PK2650 Deflection Data
Z Position (mm)	110.000	W Position (deg)	288.00
Preform ID	Diameter (mm)	Time Stamp	Start Time	Operator	Serial Number
Test 1	25	03-Nov-22 18:05:01	03-Nov-22 18:08:15	[no user]	266007708
Radius (mm)	Deflection
-26.260	0.000015
-26.255	0.000001
-26.250	0.000008
-26.245	-0.000032
-26.240	-0.000018
-26.235	-0.000046
-26.230	-0.000053
-26.225	0.000015
-26.220	-0.000026
-26.215	0.000021
-26.210	0.000008
-26.205	-0.000013
-26.200	0.000001
-26.195	0.000001
-26.190	0.000001
-26.185	-0.000013
-26.180	-0.000012
-26.175	0.000001
-26.170	-0.000019
-26.165	-0.000006
-26.160	0.000007
-26.155	-0.000006
-26.150	-0.000020
-26.145	-0.000013
-26.140	0.000021
-26.135	0.000007
-26.130	0.000014
-26.125	-0.000020
-26.120	-0.000013
-26.115	-0.000007
-26.110	-0.000006
-26.105	0.000001
-26.100	0.000014
-26.095	-0.000040
-26.090	0.000000
-26.085	-0.000034
-26.080	-0.000007
-26.075	0.000014
-26.070	-0.000007
-26.065	0.000014
-26.060	-0.000007
-26.055	0.000014
-26.050	0.000020
-26.045	0.000001
-26.040	-0.000033
-26.035	-0.000027
-26.030	-0.000021
-26.025	-0.000034
-26.020	-0.000021
-26.015	0.000020
-26.010	-0.000007
-26.005	0.000007
-26.000	-0.000000
-25.995	0.000007
-25.990	0.000006
-25.985	-0.000007
-25.980	0.000013
-25.975	0.000007
-25.970	0.000000
-25.965	-0.000000
-25.960	-0.000001
-25.955	-0.000021
-25.950	0.000006
-25.945	-0.000007
-25.940	-0.000007
-25.935	-0.000001
-25.930	0.000006
-25.925	-0.000021
-25.920	-0.000007
-25.915	0.000020
-25.910	-0.000013
-25.905	-0.000020
-25.900	-0.000028
-25.895	-0.000021
-25.890	0.000006
-25.885	0.000026
-25.880	-0.000014
-25.875	0.000006
-25.870	0.000006
-25.865	-0.000021
-25.860	0.000033
-25.855	-0.000008
-25.850	-0.000015
-25.845	-0.000008
-25.840	-0.000021
-25.835	-0.000007
-25.830	-0.000001
-25.825	-0.000008
-25.820	-0.000008
-25.815	-0.000028
-25.810	0.000019
-25.805	-0.000015
-25.800	0.000033
-25.795	0.000012
-25.790	0.000033
-25.785	-0.000001
-25.780	-0.000001
-25.775	0.000013
-25.770	-0.000007
-25.765	-0.000008
-25.760	-0.000022
-25.755	-0.000022
-25.750	0.000006
-25.745	-0.000001
-25.740	-0.000028
-25.735	0.000033
-25.730	-0.000001
-25.725	0.000026
-25.720	-0.000015
-25.715	0.000005
-25.710	-0.000001
-25.705	0.000006
-25.700	-0.000008
-25.695	-0.000008
-25.690	-0.000008
-25.685	-0.000008
-25.680	-0.000008
-25.675	0.000012
-25.670	0.000039
-25.665	-0.000015
-25.660	0.000032
-25.655	0.000019
-25.650	0.000012
-25.645	0.000006
-25.640	0.000006
-25.635	-0.000001
-25.630	-0.000008
-25.625	-0.000008
-25.620	-0.000002
-25.615	-0.000002
-25.610	0.000025
-25.605	0.000005
-25.600	0.000012
-25.595	0.000032
-25.590	0.000039
-25.585	0.000025
-25.580	-0.000008
-25.575	-0.000008
-25.570	-0.000001
-25.565	-0.000009
-25.560	0.000012
-25.555	-0.000002
-25.550	0.000005
-25.545	-0.000002
-25.540	0.000012
-25.535	0.000012
-25.530	0.000025
-25.525	0.000018
-25.520	0.000018
-25.515	-0.000009
-25.510	-0.000001
-25.505	-0.000022
-25.500	-0.000002
-25.495	0.000005
-25.490	0.000005
-25.485	-0.000002
-25.480	-0.000002
-25.475	-0.000023
-25.470	-0.000002
-25.465	0.000018
-25.460	0.000032
-25.455	0.000018
-25.450	-0.000002
-25.445	-0.000015
-25.440	-0.000008
-25.435	-0.000009
-25.430	-0.000023
-25.425	-0.000002
-25.420	-0.000023
-25.415	0.000045
-25.410	0.000004
-25.405	0.000038
-25.400	0.000025
-25.395	0.000011
-25.390	0.000025
-25.385	0.000011
-25.380	0.000032
-25.375	0.000005
-25.370	-0.000002
-25.365	-0.000016
-25.360	0.000031
-25.355	0.000004
-25.350	0.000004
-25.345	0.000011
-25.340	0.000004
-25.335	0.000031
-25.330	0.000031
-25.325	0.000011
-25.320	0.000025
-25.315	0.000031
-25.310	-0.000009
-25.305	-0.000002
-25.300	-0.000010
-25.295	0.000017
-25.290	0.000004
-25.285	-0.000003
-25.280	0.000004
-25.275	0.000031
-25.270	0.000025
-25.265	0.000038
-25.260	0.000031
-25.255	0.000024
-25.250	0.000018
-25.245	0.000032
-25.240	0.000005
-25.235	0.000018
-25.230	-0.000030
-25.225	0.000011
-25.220	-0.000003
-25.215	0.000031
-25.210	-0.000009
-25.205	0.000011
-25.200	0.000011
-25.195	0.000038
-25.190	0.000024
-25.185	0.000004
-25.180	0.000018
-25.175	0.000018
-25.170	0.000011
-25.165	0.000010
-25.160	0.000017
-25.155	-0.000017
-25.150	-0.000003
-25.145	-0.000010
-25.140	0.000017
-25.135	0.000051
-25.130	0.000017
-25.125	0.000031
-25.120	0.000037
-25.115	0.000031
-25.110	0.000025
-25.105	0.000032
-25.100	0.000011
-25.095	0.000004
-25.090	0.000038
-25.085	0.000038
-25.080	0.000037
-25.075	0.000017
-25.070	0.000065
-25.065	0.000024
-25.060	0.000010
-25.055	0.000051
-25.050	0.000037
-25.045	0.000018
-25.040	0.000025
-25.035	0.000004
-25.030	0.000003
-25.025	0.000044
-25.020	0.000023
-25.015	-0.000010
-25.010	0.000024
-25.005	0.000031
-25.000	0.000044
-24.995	0.000031
-24.990	0.000017
-24.985	0.000017
-24.980	0.000051
-24.975	0.000045
-24.970	0.000031
-24.965	0.000030
-24.960	0.000004
-24.955	0.000030
-24.950	0.000010
-24.945	0.000030
-24.940	0.000037
-24.935	0.000058
-24.930	0.000051
-24.925	0.000051
-24.920	0.000030
-24.915	0.000030
-24.910	0.000024
-24.905	0.000044
-24.900	0.000030
-24.895	0.000064
-24.890	0.000010
-24.885	0.000010
-24.880	0.000017
-24.875	0.000030
-24.870	0.000064
-24.865	0.000078
-24.860	0.000044
-24.855	0.000044
-24.850	0.000057
-24.845	-0.000003
-24.840	0.000045
-24.835	0.000017
-24.830	-0.000010
-24.825	0.000044
-24.820	0.000030
-24.815	-0.000017
-24.810	0.000051
-24.805	0.000017
-24.800	0.000003
-24.795	0.000024
-24.790	0.000030
-24.785	0.000010
-24.780	0.000017
-24.775	0.000058
-24.770	0.000024
-24.765	0.000023
-24.760	0.000037
-24.755	0.000037
-24.750	0.000044
-24.745	0.000003
-24.740	0.000037
-24.735	0.000044
-24.730	0.000010
-24.725	0.000017
-24.720	0.000010
-24.715	0.000024
-24.710	0.000044
-24.705	0.000011
-24.700	0.000057
-24.695	0.000037
-24.690	0.000017
-24.685	0.000023
-24.680	0.000037
-24.675	0.000051
-24.670	0.000051
-24.665	0.000037
-24.660	0.000037
-24.655	0.000030
-24.650	0.000030
-24.645	0.000017
-24.640	0.000024
-24.635	0.000017
-24.630	0.000043
-24.625	0.000023
-24.620	0.000036
-24.615	0.000050
-24.610	0.000037
-24.605	0.000071
-24.600	0.000030
-24.595	0.000030
-24.590	0.000050
-24.585	0.000064
-24.580	0.000044
-24.575	0.000031
-24.570	0.000037
-24.565	0.000037
-24.560	0.000010
-24.555	0.000023
-24.550	0.000044
-24.545	0.000050
-24.540	0.000057
-24.535	0.000091
-24.530	0.000044
-24.525	0.000091
-24.520	0.000057
-24.515	0.000064
-24.510	0.000023
-24.505	0.000031
-24.500	0.000064
-24.495	0.000037
-24.490	0.000030
-24.485	0.000057
-24.480	0.000043
-24.475	0.000057
-24.470	0.000037
-24.465	0.000077
-24.460	0.000050
-24.455	0.000043
-24.450	0.000050
-24.445	0.000044
-24.440	0.000044
-24.435	0.000057
-24.430	0.000036
-24.425	0.000030
-24.420	0.000037
-24.415	0.000037
-24.410	0.000077
-24.405	0.000043
-24.400	0.000064
-24.395	0.000084
-24.390	0.000070
-24.385	0.000063
-24.380	0.000064
-24.375	0.000057
-24.370	0.000050
-24.365	0.000016
-24.360	0.000023
-24.355	0.000056
-24.350	0.000070
-24.345	0.000036
-24.340	0.000070
-24.335	0.000070
-24.330	0.000057
-24.325	0.000043
-24.320	0.000036
-24.315	0.000057
-24.310	0.000057
-24.305	0.000030
-24.300	0.000043
-24.295	0.000076
-24.290	0.000050
-24.285	0.000077
-24.280	0.000063
-24.275	0.000056
-24.270	0.000036
-24.265	0.000036
-24.260	0.000077
-24.255	0.000056
-24.250	0.000063
-24.245	0.000036
-24.240	0.000070
-24.235	0.000043
-24.230	0.000029
-24.225	0.000056
-24.220	0.000063
-24.215	0.000076
-24.210	0.000056
-24.205	0.000070
-24.200	0.000090
-24.195	0.000056
-24.190	0.000104
-24.185	0.000063
-24.180	0.000050
-24.175	0.000063
-24.170	0.000043
-24.165	0.000083
-24.160	0.000056
-24.155	0.000056
-24.150	0.000056
-24.145	0.000076
-24.140	0.000063
-24.135	0.000063
-24.130	0.000069
-24.125	0.000096
-24.120	0.000069
-24.115	0.000076
-24.110	0.000070
-24.105	0.000043
-24.100	0.000076
-24.095	0.000028
-24.090	0.000042
-24.085	0.000062
-24.080	0.000076
-24.075	0.000069
-24.070	0.000076
-24.065	0.000083
-24.060	0.000062
-24.055	0.000076
-24.050	0.000083
-24.045	0.000043
-24.040	0.000070
-24.035	0.000056
-24.030	0.000048
-24.025	0.000028
-24.020	0.000062
-24.015	0.000076
-24.010	0.000069
-24.005	0.000096
-24.000	0.000056
-23.995	0.000049
-23.990	0.000055
-23.985	0.000069
-23.980	0.000049
-23.975	0.000056
-23.970	0.000042
-23.965	0.000035
-23.960	0.000062
-23.955	0.000055
-23.950	0.000048
-23.945	0.000062
-23.940	0.000041
-23.935	0.000075
-23.930	0.000062
-23.925	0.000069
-23.920	0.000055
-23.915	0.000076
-23.910	0.000062
-23.905	0.000048
-23.900	0.000041
-23.895	0.000062
-23.890	0.000055
-23.885	0.000041
-23.880	0.000075
-23.875	0.000055
-23.870	0.000055
-23.865	0.000088
-23.860	0.000061
-23.855	0.000048
-23.850	0.000034
-23.845	0.000068
-23.840	0.000062
-23.835	0.000034
-23.830	0.000027
-23.825	0.000041
-23.820	0.000041
-23.815	0.000054
-23.810	0.000047
-23.805	0.000061
-23.800	0.000068
-23.795	0.000074
-23.790	0.000061
-23.785	0.000054
-23.780	0.000055
-23.775	0.000041
-23.770	0.000034
-23.765	0.000047
-23.760	0.000041
-23.755	0.000074
-23.750	0.000054
-23.745	0.000061
-23.740	0.000081
-23.735	0.000068
-23.730	0.000040
-23.725	0.000054
-23.720	0.000054
-23.715	0.000054
-23.710	0.000034
-23.705	0.000047
-23.700	0.000033
-23.695	0.000033
-23.690	0.000047
-23.685	0.000040
-23.680	0.000054
-23.675	0.000054
-23.670	0.000061
-23.665	0.000101
-23.660	0.000040
-23.655	0.000040
-23.650	0.000054
-23.645	0.000048
-23.640	0.000068
-23.635	0.000047
-23.630	0.000047
-23.625	0.000074
-23.620	0.000060
-23.615	0.000040
-23.610	0.000067
-23.605	0.000053
-23.600	0.000074
-23.595	0.000026
-23.590	0.000047
-23.585	0.000053
-23.580	0.000020
-23.575	0.000054
-23.570	0.000026
-23.565	0.000026
-23.560	0.000026
-23.555	0.000046
-23.550	0.000026
-23.545	0.000033
-23.540	0.000026
-23.535	0.000032
-23.530	0.000046
-23.525	0.000033
-23.520	0.000019
-23.515	0.000013
-23.510	0.000026
-23.505	0.000040
-23.500	0.000046
-23.495	0.000019
-23.490	-0.000001
-23.485	-0.000022
-23.480	0.000005
-23.475	-0.000008
-23.470	0.000019
-23.465	0.000025
-23.460	0.000039
-23.455	0.000025
-23.450	0.000026
-23.445	0.000039
-23.440	0.000012
-23.435	0.000018
-23.430	0.000005
-23.425	0.000011
-23.420	0.000011
-23.415	0.000032
-23.410	0.000038
-23.405	0.000032
-23.400	0.000018
-23.395	0.000052
-23.390	-0.000016
-23.385	0.000018
-23.380	0.000025
-23.375	0.000025
-23.370	0.000025
-23.365	-0.000009
-23.360	-0.000009
-23.355	0.000011
-23.350	0.000018
-23.345	0.000032
-23.340	0.000032
-23.335	0.000045
-23.330	0.000038
-23.325	0.000018
-23.320	0.000031
-23.315	0.000025
-23.310	0.000012
-23.305	0.000018
-23.300	0.000031
-23.295	0.000031
-23.290	0.000011
-23.285	0.000038
-23.280	0.000038
-23.275	0.000018
-23.270	0.000024
-23.265	0.000017
-23.260	0.000038
-23.255	0.000024
-23.250	0.000018
-23.245	0.000025
-23.240	0.000031
-23.235	0.000024
-23.230	-0.000003
-23.225	0.000017
-23.220	0.000011
-23.215	0.000038
-23.210	0.000038
-23.205	0.000051
-23.200	0.000038
-23.195	0.000024
-23.190	0.000010
-23.185	0.000044
-23.180	0.000045
-23.175	0.000011
-23.170	0.000031
-23.165	0.000003
-23.160	-0.000004
-23.155	0.000017
-23.150	0.000010
-23.145	0.000030
-23.140	0.000037
-23.135	0.000044
-23.130	0.000031
-23.125	0.000003
-23.120	0.000023
-23.115	0.000017
-23.110	0.000004
-23.105	0.000030
-23.100	0.000017
-23.095	0.000010
-23.090	-0.000010
-23.085	0.000010
-23.080	0.000010
-23.075	0.000017
-23.070	-0.000010
-23.065	0.000010
-23.060	0.000030
-23.055	0.000037
-23.050	0.000023
-23.045	0.000010
-23.040	0.000024
-23.035	-0.000011
-23.030	-0.000004
-23.025	0.000003
-23.020	-0.000011
-23.015	0.000036
-23.010	0.000030
-23.005	0.000037
-23.000	0.000003
-22.995	0.000030
-22.990	0.000043
-22.985	0.000003
-22.980	0.000037
-22.975	-0.000017
-22.970	0.000003
-22.965	0.000016
-22.960	-0.000011
-22.955	0.000009
-22.950	0.000016
-22.945	0.000016
-22.940	0.000010
-22.935	0.000009
-22.930	0.000043
-22.925	0.000043
-22.920	0.000036
-22.915	0.000023
-22.910	-0.000004
-22.905	0.000030
-22.900	-0.000011
-22.895	-0.000005
-22.890	-0.000011
-22.885	0.000016
-22.880	0.000043
-22.875	0.000036
-22.870	0.000029
-22.865	0.000029
-22.860	-0.000005
-22.855	0.000022
-22.850	0.000016
-22.845	0.000023
-22.840	0.000009
-22.835	0.000015
-22.830	-0.000012
-22.825	-0.000011
-22.820	0.000036
-22.815	0.000029
-22.810	0.000036
-22.805	0.000036
-22.800	0.000036
-22.795	0.000022
-22.790	0.000009
-22.785	0.000029
-22.780	0.000009
-22.775	-0.000025
-22.770	0.000029
-22.765	-0.000005
-22.760	0.000015
-22.755	0.000001
-22.750	0.000015
-22.745	0.000002
-22.740	0.000035
-22.735	0.000015
-22.730	0.000029
-22.725	0.000015
-22.720	0.000015
-22.715	0.000022
-22.710	0.000002
-22.705	-0.000012
-22.700	0.000022
-22.695	0.000015
-22.690	-0.000005
-22.685	0.000022
-22.680	0.000015
-22.675	0.000008
-22.670	0.000049
-22.665	-0.000005
-22.660	0.000015
-22.655	0.000008
-22.650	0.000008
-22.645	-0.000025
-22.640	-0.000025
-22.635	-0.000019
-22.630	0.000015
-22.625	-0.000006
-22.620	-0.000006
-22.615	-0.000013
-22.610	0.000001
-22.605	-0.000013
-22.600	0.000028
-22.595	0.000028
-22.590	0.000001
-22.585	-0.000006
-22.580	0.000002
-22.575	0.000002
-22.570	-0.000006
-22.565	-0.000006
-22.560	0.000008
-22.555	0.000021
-22.550	0.000021
-22.545	0.000008
-22.540	0.000028
-22.535	-0.000006
-22.530	0.000008
-22.525	0.000014
-22.520	-0.000006
-22.515	0.000008
-22.510	0.000008
-22.505	-0.000013
-22.500	-0.000013
-22.495	0.000014
-22.490	-0.000020
-22.485	0.000014
-22.480	0.000021
-22.475	0.000000
-22.470	-0.000013
-22.465	0.000021
-22.460	-0.000006
-22.455	0.000007
-22.450	-0.000006
-22.445	0.000001
-22.440	-0.000040
-22.435	-0.000034
-22.430	-0.000013
-22.425	-0.000013
-22.420	-0.000013
-22.415	0.000021
-22.410	0.000034
-22.405	-0.000013
-22.400	-0.000013
-22.395	0.000007
-22.390	-0.000007
-22.385	0.000000
-22.380	-0.000033
-22.375	-0.000033
-22.370	0.000007
-22.365	-0.000020
-22.360	-0.000020
-22.355	0.000007
-22.350	0.000007
-22.345	-0.000007
-22.340	-0.000013
-22.335	0.000014
-22.330	0.000041
-22.325	-0.000014
-22.320	-0.000000
-22.315	-0.000006
-22.310	0.000001
-22.305	-0.000027
-22.300	-0.000007
-22.295	0.000014
-22.290	-0.000014
-22.285	0.000007
-22.280	-0.000034
-22.275	-0.000000
-22.270	-0.000000
-22.265	-0.000020
-22.260	0.000006
-22.255	0.000006
-22.250	0.000007
-22.245	-0.000040
-22.240	-0.000007
-22.235	-0.000014
-22.230	-0.000034
-22.225	-0.000014
-22.220	-0.000014
-22.215	-0.000000
-22.210	-0.000014
-22.205	-0.000000
-22.200	0.000020
-22.195	-0.000014
-22.190	0.000013
-22.185	0.000006
-22.180	-0.000020
-22.175	-0.000027
-22.170	-0.000027
-22.165	-0.000028
-22.160	-0.000034
-22.155	-0.000028
-22.150	-0.000021
-22.145	-0.000000
-22.140	0.000006
-22.135	0.000013
-22.130	0.000006
-22.125	-0.000014
-22.120	-0.000007
-22.115	-0.000027
-22.110	-0.000014
-22.105	-0.000014
-22.100	-0.000021
-22.095	-0.000021
-22.090	-0.000014
-22.085	-0.000008
-22.080	0.000006
-22.075	-0.000001
-22.070	-0.000001
-22.065	-0.000014
-22.060	-0.000001
-22.055	-0.000028
-22.050	-0.000000
-22.045	-0.000041
-22.040	-0.000021
-22.035	-0.000021
-22.030	-0.000014
-22.025	-0.000001
-22.020	0.000006
-22.015	-0.000021
-22.010	0.000006
-22.005	-0.000014
-22.000	-0.000001
-21.995	-0.000008
-21.990	-0.000028
-21.985	-0.000021
-21.980	-0.000021
-21.975	-0.000014
-21.970	-0.000015
-21.965	-0.000042
-21.960	-0.000028
-21.955	-0.000015
-21.950	-0.000015
-21.945	-0.000001
-21.940	-0.000008
-21.935	0.000039
-21.930	0.000012
-21.925	-0.000001
-21.920	-0.000001
-21.915	-0.000007
-21.910	-0.000028
-21.905	-0.000008
-21.900	-0.000035
-21.895	-0.000028
-21.890	-0.000028
-21.885	-0.000008
-21.880	0.000006
-21.875	-0.000015
-21.870	-0.000021
-21.865	0.000006
-21.860	-0.000001
-21.855	0.000005
-21.850	-0.000022
-21.845	-0.000035
-21.840	-0.000008
-21.835	-0.000042
-21.830	-0.000002
-21.825	-0.000036
-21.820	-0.000042
-21.815	-0.000015
-21.810	-0.000001
-21.805	0.000005
-21.800	-0.000001
-21.795	0.000032
-21.790	0.000019
-21.785	0.000006
-21.780	-0.000001
-21.775	0.000006
-21.770	-0.000029
-21.765	0.000005
-21.760	-0.000022
-21.755	-0.000015
-21.750	0.000012
-21.745	0.000026
-21.740	0.000019
-21.735	0.000019
-21.730	-0.000008
-21.725	0.000005
-21.720	-0.000036
-21.715	-0.000035
-21.710	-0.000021
-21.705	-0.000001
-21.700	-0.000029
-21.695	-0.000016
-21.690	-0.000036
-21.685	-0.000009
-21.680	0.000018
-21.675	-0.000002
-21.670	0.000005
-21.665	-0.000009
-21.660	-0.000009
-21.655	0.000025
-21.650	-0.000015
-21.645	-0.000008
-21.640	-0.000015
-21.635	-0.000022
-21.630	-0.000009
-21.625	-0.000009
-21.620	-0.000022
-21.615	-0.000036
-21.610	0.000005
-21.605	0.000005
-21.600	-0.000009
-21.595	0.000005
-21.590	0.000012
-21.585	0.000005
-21.580	-0.000008
-21.575	-0.000015
-21.570	-0.000029
-21.565	0.000018
-21.560	-0.000009
-21.555	-0.000009
-21.550	0.000018
-21.545	-0.000016
-21.540	0.000011
-21.535	0.000011
-21.530	0.000011
-21.525	0.000005
-21.520	0.000005
-21.515	0.000019
-21.510	0.000012
-21.505	-0.000009
-21.500	-0.000016
-21.495	0.000004
-21.490	0.000005
-21.485	0.000005
-21.480	0.000032
-21.475	0.000046
-21.470	0.000032
-21.465	0.000053
-21.460	0.000059
-21.455	0.000079
-21.450	0.000121
-21.445	0.000162
-21.440	0.000298
-21.435	0.000455
-21.430	0.000721
-21.425	0.001111
-21.420	0.001586
-21.415	0.002241
-21.410	0.003129
-21.405	0.004226
-21.400	0.005568
-21.395	0.007205
-21.390	0.009065
-21.385	0.011228
-21.380	0.013768
-21.375	0.016653
-21.370	0.019718
-21.365	0.023044
-21.360	0.026609
-21.355	0.030222
-21.350	0.033823
-21.345	0.037442
-21.340	0.041168
-21.335	0.044769
-21.330	0.048256
-21.325	0.050419
-21.320	0.050002
-21.315	0.049098
-21.310	0.048130
-21.305	0.046121
-21.300	0.044783
-21.295	0.043962
-21.290	0.043066
-21.285	0.042101
-21.280	0.041545
-21.275	0.040761
-21.270	0.039468
-21.265	0.038456
-21.260	0.037486
-21.255	0.036394
-21.250	0.035938
-21.245	0.035353
-21.240	0.034376
-21.235	0.034072
-21.230	0.033682
-21.225	0.032948
-21.220	0.032423
-21.215	0.032004
-21.210	0.031543
-21.205	0.031174
-21.200	0.030890
-21.195	0.030508
-21.190	0.030387
-21.185	0.030342
-21.180	0.029623
-21.175	0.028668
-21.170	0.028281
-21.165	0.028047
-21.160	0.027705
-21.155	0.027217
-21.150	0.027039
-21.145	0.026893
-21.140	0.027015
-21.135	0.027213
-21.130	0.026812
-21.125	0.025875
-21.120	0.025546
-21.115	0.025371
-21.110	0.025179
-21.105	0.024961
-21.100	0.024806
-21.095	0.024652
-21.090	0.024368
-21.085	0.024041
-21.080	0.023840
-21.075	0.023694
-21.070	0.023474
-21.065	0.023222
-21.060	0.023005
-21.055	0.022762
-21.050	0.022637
-21.045	0.022519
-21.040	0.022415
-21.035	0.022226
-21.030	0.022052
-21.025	0.021949
-21.020	0.021788
-21.015	0.021694
-21.010	0.021631
-21.005	0.021532
-21.000	0.021458
-20.995	0.021314
-20.990	0.021141
-20.985	0.020918
-20.980	0.020756
-20.975	0.020599
-20.970	0.020506
-20.965	0.020342
-20.960	0.020229
-20.955	0.020113
-20.950	0.019996
-20.945	0.019887
-20.940	0.019797
-20.935	0.019672
-20.930	0.019571
-20.925	0.019460
-20.920	0.019329
-20.915	0.019194
-20.910	0.019056
-20.905	0.019001
-20.900	0.018886
-20.895	0.018740
-20.890	0.018694
-20.885	0.018619
-20.880	0.018564
-20.875	0.018448
-20.870	0.018348
-20.865	0.018311
-20.860	0.018247
-20.855	0.018113
-20.850	0.018025
-20.845	0.017873
-20.840	0.017805
-20.835	0.017678
-20.830	0.017555
-20.825	0.017493
-20.820	0.017383
-20.815	0.017317
-20.810	0.017205
-20.805	0.017191
-20.800	0.017076
-20.795	0.017022
-20.790	0.016944
-20.785	0.016900
-20.780	0.016809
-20.775	0.016769
-20.770	0.016687
-20.765	0.016616
-20.760	0.016570
-20.755	0.016447
-20.750	0.016337
-20.745	0.016297
-20.740	0.016222
-20.735	0.016139
-20.730	0.016120
-20.725	0.016045
-20.720	0.015959
-20.715	0.015911
-20.710	0.015822
-20.705	0.015711
-20.700	0.015657
-20.695	0.015615
-20.690	0.015566
-20.685	0.015507
-20.680	0.015490
-20.675	0.015397
-20.670	0.015369
-20.665	0.015346
-20.660	0.015288
-20.655	0.015221
-20.650	0.015131
-20.645	0.015086
-20.640	0.015002
-20.635	0.014973
-20.630	0.014928
-20.625	0.014880
-20.620	0.014880
-20.615	0.014787
-20.610	0.014750
-20.605	0.014715
-20.600	0.014666
-20.595	0.014601
-20.590	0.014563
-20.585	0.014530
-20.580	0.014488
-20.575	0.014435
-20.570	0.014344
-20.565	0.014286
-20.560	0.014227
-20.555	0.014189
-20.550	0.014167
-20.545	0.014110
-20.540	0.014058
-20.535	0.014036
-20.530	0.014006
-20.525	0.013956
-20.520	0.013926
-20.515	0.013879
-20.510	0.013802
-20.505	0.013737
-20.500	0.013732
-20.495	0.013694
-20.490	0.013653
-20.485	0.013667
-20.480	0.013621
-20.475	0.013620
-20.470	0.013575
-20.465	0.013546
-20.460	0.013490
-20.455	0.013423
-20.450	0.013360
-20.445	0.013310
-20.440	0.013306
-20.435	0.013230
-20.430	0.013196
-20.425	0.013163
-20.420	0.013124
-20.415	0.013114
-20.410	0.013048
-20.405	0.013044
-20.400	0.013003
-20.395	0.012971
-20.390	0.012926
-20.385	0.012896
-20.380	0.012818
-20.375	0.012804
-20.370	0.012747
-20.365	0.012757
-20.360	0.012737
-20.355	0.012669
-20.350	0.012658
-20.345	0.012612
-20.340	0.012598
-20.335	0.012534
-20.330	0.012502
-20.325	0.012467
-20.320	0.012410
-20.315	0.012366
-20.310	0.012335
-20.305	0.012283
-20.300	0.012266
-20.295	0.012241
-20.290	0.012197
-20.285	0.012213
-20.280	0.012175
-20.275	0.012131
-20.270	0.012083
-20.265	0.012092
-20.260	0.012053
-20.255	0.012020
-20.250	0.012015
-20.245	0.011976
-20.240	0.011968
-20.235	0.011948
-20.230	0.011875
-20.225	0.011851
-20.220	0.011870
-20.215	0.011841
-20.210	0.011835
-20.205	0.011789
-20.200	0.011773
-20.195	0.011740
-20.190	0.011703
-20.185	0.011691
-20.180	0.011642
-20.175	0.011620
-20.170	0.011579
-20.165	0.011545
-20.160	0.011580
-20.155	0.011480
-20.150	0.011502
-20.145	0.011466
-20.140	0.011444
-20.135	0.011400
-20.130	0.011390
-20.125	0.011364
-20.120	0.011339
-20.115	0.011290
-20.110	0.011290
-20.105	0.011205
-20.100	0.011195
-20.095	0.011163
-20.090	0.011175
-20.085	0.011152
-20.080	0.011095
-20.075	0.011075
-20.070	0.011081
-20.065	0.011047
-20.060	0.011012
-20.055	0.010964
-20.050	0.010953
-20.045	0.010920
-20.040	0.010895
-20.035	0.010898
-20.030	0.010843
-20.025	0.010865
-20.020	0.010873
-20.015	0.010838
-20.010	0.010793
-20.005	0.010742
-20.000	0.010763
-19.995	0.010712
-19.990	0.010732
-19.985	0.010654
-19.980	0.010669
-19.975	0.010614
-19.970	0.010629
-19.965	0.010589
-19.960	0.010549
-19.955	0.010570
-19.950	0.010553
-19.945	0.010511
-19.940	0.010500
-19.935	0.010506
-19.930	0.010458
-19.925	0.010438
-19.920	0.010454
-19.915	0.010426
-19.910	0.010347
-19.905	0.010372
-19.900	0.010340
-19.895	0.010313
-19.890	0.010306
-19.885	0.010296
-19.880	0.010292
-19.875	0.010286
-19.870	0.010240
-19.865	0.010220
-19.860	0.010178
-19.855	0.010198
-19.850	0.010180
-19.845	0.010143
-19.840	0.010143
-19.835	0.010105
-19.830	0.010069
-19.825	0.010052
-19.820	0.010054
-19.815	0.010021
-19.810	0.010002
-19.805	0.009974
-19.800	0.009964
-19.795	0.009963
-19.790	0.009900
-19.785	0.009888
-19.780	0.009876
-19.775	0.009833
-19.770	0.009814
-19.765	0.009814
-19.760	0.009801
-19.755	0.009748
-19.750	0.009741
-19.745	0.009728
-19.740	0.009720
-19.735	0.009719
-19.730	0.009697
-19.725	0.009640
-19.720	0.009657
-19.715	0.009624
-19.710	0.009556
-19.705	0.009551
-19.700	0.009518
-19.695	0.009496
-19.690	0.009498
-19.685	0.009485
-19.680	0.009466
-19.675	0.009424
-19.670	0.009416
-19.665	0.009413
-19.660	0.009419
-19.655	0.009371
-19.650	0.009349
-19.645	0.009360
-19.640	0.009323
-19.635	0.009312
-19.630	0.009285
-19.625	0.009272
-19.620	0.009253
-19.615	0.009231
-19.610	0.009293
-19.605	0.009235
-19.600	0.009246
-19.595	0.009229
-19.590	0.009165
-19.585	0.009157
-19.580	0.009157
-19.575	0.009166
-19.570	0.009171
-19.565	0.009125
-19.560	0.009119
-19.555	0.009133
-19.550	0.009114
-19.545	0.009092
-19.540	0.009089
-19.535	0.009072
-19.530	0.009071
-19.525	0.009027
-19.520	0.009015
-19.515	0.008989
-19.510	0.009014
-19.505	0.008984
-19.500	0.008989
-19.495	0.008932
-19.490	0.008958
-19.485	0.008972
-19.480	0.008932
-19.475	0.008952
-19.470	0.008940
-19.465	0.008940
-19.460	0.008927
-19.455	0.008856
-19.450	0.008867
-19.445	0.008856
-19.440	0.008848
-19.435	0.008798
-19.430	0.008793
-19.425	0.008787
-19.420	0.008784
-19.415	0.008756
-19.410	0.008808
-19.405	0.008754
-19.400	0.008726
-19.395	0.008739
-19.390	0.008726
-19.385	0.008686
-19.380	0.008682
-19.375	0.008626
-19.370	0.008641
-19.365	0.008614
-19.360	0.008587
-19.355	0.008634
-19.350	0.008633
-19.345	0.008609
-19.340	0.008590
-19.335	0.008585
-19.330	0.008584
-19.325	0.008552
-19.320	0.008542
-19.315	0.008521
-19.310	0.008508
-19.305	0.008503
-19.300	0.008487
-19.295	0.008484
-19.290	0.008474
-19.285	0.008469
-19.280	0.008465
-19.275	0.008429
-19.270	0.008460
-19.265	0.008443
-19.260	0.008408
-19.255	0.008412
-19.250	0.008407
-19.245	0.008358
-19.240	0.008355
-19.235	0.008350
-19.230	0.008342
-19.225	0.008327
-19.220	0.008314
-19.215	0.008298
-19.210	0.008312
-19.205	0.008313
-19.200	0.008272
-19.195	0.008258
-19.190	0.008260
-19.185	0.008267
-19.180	0.008229
-19.175	0.008187
-19.170	0.008232
-19.165	0.008220
-19.160	0.008166
-19.155	0.008175
-19.150	0.008199
-19.145	0.008171
-19.140	0.008154
-19.135	0.008147
-19.130	0.008161
-19.125	0.008183
-19.120	0.008124
-19.115	0.008099
-19.110	0.008114
-19.105	0.008070
-19.100	0.008064
-19.095	0.008070
-19.090	0.008068
-19.085	0.008054
-19.080	0.008045
-19.075	0.008032
-19.070	0.008054
-19.065	0.008012
-19.060	0.008019
-19.055	0.008005
-19.050	0.007965
-19.045	0.007959
-19.040	0.007971
-19.035	0.007962
-19.030	0.007933
-19.025	0.007933
-19.020	0.007954
-19.015	0.007926
-19.010	0.007926
-19.005	0.007927
-19.000	0.007881
-18.995	0.007874
-18.990	0.007896
-18.985	0.007809
-18.980	0.007803
-18.975	0.007774
-18.970	0.007779
-18.965	0.007744
-18.960	0.007778
-18.955	0.007771
-18.950	0.007765
-18.945	0.007736
-18.940	0.007723
-18.935	0.007715
-18.930	0.007709
-18.925	0.007695
-18.920	0.007663
-18.915	0.007665
-18.910	0.007652
-18.905	0.007613
-18.900	0.007599
-18.895	0.007571
-18.890	0.007593
-18.885	0.007561
-18.880	0.007583
-18.875	0.007549
-18.870	0.007590
-18.865	0.007534
-18.860	0.007562
-18.855	0.007532
-18.850	0.007520
-18.845	0.007562
-18.840	0.007492
-18.835	0.007483
-18.830	0.007469
-18.825	0.007490
-18.820	0.007490
-18.815	0.007476
-18.810	0.007457
-18.805	0.007419
-18.800	0.007438
-18.795	0.007427
-18.790	0.007427
-18.785	0.007412
-18.780	0.007385
-18.775	0.007422
-18.770	0.007366
-18.765	0.007365
-18.760	0.007385
-18.755	0.007358
-18.750	0.007356
-18.745	0.007320
-18.740	0.007354
-18.735	0.007339
-18.730	0.007305
-18.725	0.007305
-18.720	0.007314
-18.715	0.007301
-18.710	0.007308
-18.705	0.007267
-18.700	0.007253
-18.695	0.007266
-18.690	0.007265
-18.685	0.007223
-18.680	0.007231
-18.675	0.007243
-18.670	0.007209
-18.665	0.007214
-18.660	0.007199
-18.655	0.007197
-18.650	0.007194
-18.645	0.007200
-18.640	0.007143
-18.635	0.007168
-18.630	0.007119
-18.625	0.007118
-18.620	0.007132
-18.615	0.007124
-18.610	0.007139
-18.605	0.007124
-18.600	0.007123
-18.595	0.007108
-18.590	0.007095
-18.585	0.007091
-18.580	0.007052
-18.575	0.007043
-18.570	0.007068
-18.565	0.007053
-18.560	0.007039
-18.555	0.007033
-18.550	0.007054
-18.545	0.007012
-18.540	0.007020
-18.535	0.007019
-18.530	0.006998
-18.525	0.007017
-18.520	0.006972
-18.515	0.006952
-18.510	0.006960
-18.505	0.006983
-18.500	0.006943
-18.495	0.006928
-18.490	0.006930
-18.485	0.006916
-18.480	0.006943
-18.475	0.006944
-18.470	0.006944
-18.465	0.006930
-18.460	0.006903
-18.455	0.006917
-18.450	0.006920
-18.445	0.006905
-18.440	0.006873
-18.435	0.006846
-18.430	0.006860
-18.425	0.006845
-18.420	0.006825
-18.415	0.006838
-18.410	0.006825
-18.405	0.006832
-18.400	0.006819
-18.395	0.006810
-18.390	0.006810
-18.385	0.006776
-18.380	0.006807
-18.375	0.006798
-18.370	0.006749
-18.365	0.006761
-18.360	0.006741
-18.355	0.006755
-18.350	0.006755
-18.345	0.006727
-18.340	0.006727
-18.335	0.006741
-18.330	0.006747
-18.325	0.006719
-18.320	0.006686
-18.315	0.006668
-18.310	0.006660
-18.305	0.006669
-18.300	0.006684
-18.295	0.006636
-18.290	0.006678
-18.285	0.006644
-18.280	0.006659
-18.275	0.006636
-18.270	0.006609
-18.265	0.006622
-18.260	0.006641
-18.255	0.006607
-18.250	0.006575
-18.245	0.006577
-18.240	0.006588
-18.235	0.006566
-18.230	0.006562
-18.225	0.006535
-18.220	0.006549
-18.215	0.006557
-18.210	0.006572
-18.205	0.006559
-18.200	0.006526
-18.195	0.006527
-18.190	0.006519
-18.185	0.006489
-18.180	0.006505
-18.175	0.006476
-18.170	0.006482
-18.165	0.006489
-18.160	0.006497
-18.155	0.006478
-18.150	0.006506
-18.145	0.006479
-18.140	0.006480
-18.135	0.006486
-18.130	0.006465
-18.125	0.006485
-18.120	0.006460
-18.115	0.006437
-18.110	0.006445
-18.105	0.006429
-18.100	0.006443
-18.095	0.006409
-18.090	0.006438
-18.085	0.006410
-18.080	0.006397
-18.075	0.006438
-18.070	0.006391
-18.065	0.006404
-18.060	0.006404
-18.055	0.006412
-18.050	0.006365
-18.045	0.006391
-18.040	0.006359
-18.035	0.006350
-18.030	0.006363
-18.025	0.006357
-18.020	0.006372
-18.015	0.006343
-18.010	0.006369
-18.005	0.006340
-18.000	0.006332
-17.995	0.006338
-17.990	0.006323
-17.985	0.006338
-17.980	0.006318
-17.975	0.006302
-17.970	0.006306
-17.965	0.006271
-17.960	0.006286
-17.955	0.006265
-17.950	0.006250
-17.945	0.006256
-17.940	0.006263
-17.935	0.006255
-17.930	0.006256
-17.925	0.006213
-17.920	0.006210
-17.915	0.006204
-17.910	0.006189
-17.905	0.006213
-17.900	0.006191
-17.895	0.006171
-17.890	0.006164
-17.885	0.006199
-17.880	0.006179
-17.875	0.006166
-17.870	0.006180
-17.865	0.006151
-17.860	0.006185
-17.855	0.006156
-17.850	0.006144
-17.845	0.006159
-17.840	0.006142
-17.835	0.006134
-17.830	0.006126
-17.825	0.006106
-17.820	0.006100
-17.815	0.006141
-17.810	0.006129
-17.805	0.006148
-17.800	0.006121
-17.795	0.006106
-17.790	0.006125
-17.785	0.006100
-17.780	0.006081
-17.775	0.006056
-17.770	0.006061
-17.765	0.006033
-17.760	0.006055
-17.755	0.006047
-17.750	0.006067
-17.745	0.006060
-17.740	0.006032
-17.735	0.006032
-17.730	0.006010
-17.725	0.006016
-17.720	0.005997
-17.715	0.006005
-17.710	0.005944
-17.705	0.005973
-17.700	0.005960
-17.695	0.005974
-17.690	0.005946
-17.685	0.005980
-17.680	0.005946
-17.675	0.005919
-17.670	0.005919
-17.665	0.005920
-17.660	0.005950
-17.655	0.005921
-17.650	0.005889
-17.645	0.005903
-17.640	0.005865
-17.635	0.005885
-17.630	0.005865
-17.625	0.005906
-17.620	0.005887
-17.615	0.005867
-17.610	0.005867
-17.605	0.005867
-17.600	0.005860
-17.595	0.005839
-17.590	0.005839
-17.585	0.005834
-17.580	0.005807
-17.575	0.005805
-17.570	0.005838
-17.565	0.005797
-17.560	0.005817
-17.555	0.005837
-17.550	0.005791
-17.545	0.005818
-17.540	0.005770
-17.535	0.005796
-17.530	0.005783
-17.525	0.005775
-17.520	0.005770
-17.515	0.005717
-17.510	0.005751
-17.505	0.005727
-17.500	0.005713
-17.495	0.005733
-17.490	0.005719
-17.485	0.005747
-17.480	0.005733
-17.475	0.005731
-17.470	0.005711
-17.465	0.005710
-17.460	0.005681
-17.455	0.005681
-17.450	0.005690
-17.445	0.005670
-17.440	0.005660
-17.435	0.005652
-17.430	0.005680
-17.425	0.005673
-17.420	0.005667
-17.415	0.005674
-17.410	0.005668
-17.405	0.005645
-17.400	0.005652
-17.395	0.005652
-17.390	0.005651
-17.385	0.005612
-17.380	0.005620
-17.375	0.005597
-17.370	0.005609
-17.365	0.005623
-17.360	0.005602
-17.355	0.005635
-17.350	0.005595
-17.345	0.005614
-17.340	0.005587
-17.335	0.005607
-17.330	0.005573
-17.325	0.005571
-17.320	0.005572
-17.315	0.005580
-17.310	0.005559
-17.305	0.005563
-17.300	0.005535
-17.295	0.005535
-17.290	0.005534
-17.285	0.005568
-17.280	0.005533
-17.275	0.005554
-17.270	0.005548
-17.265	0.005527
-17.260	0.005521
-17.255	0.005501
-17.250	0.005489
-17.245	0.005461
-17.240	0.005500
-17.235	0.005472
-17.230	0.005479
-17.225	0.005451
-17.220	0.005451
-17.215	0.005458
-17.210	0.005479
-17.205	0.005486
-17.200	0.005452
-17.195	0.005425
-17.190	0.005446
-17.185	0.005413
-17.180	0.005402
-17.175	0.005400
-17.170	0.005419
-17.165	0.005426
-17.160	0.005392
-17.155	0.005426
-17.150	0.005418
-17.145	0.005419
-17.140	0.005438
-17.135	0.005405
-17.130	0.005398
-17.125	0.005405
-17.120	0.005399
-17.115	0.005366
-17.110	0.005385
-17.105	0.005342
-17.100	0.005362
-17.095	0.005347
-17.090	0.005368
-17.085	0.005355
-17.080	0.005375
-17.075	0.005355
-17.070	0.005396
-17.065	0.005376
-17.060	0.005347
-17.055	0.005354
-17.050	0.005349
-17.045	0.005314
-17.040	0.005345
-17.035	0.005337
-17.030	0.005317
-17.025	0.005303
-17.020	0.005297
-17.015	0.005297
-17.010	0.005291
-17.005	0.005290
-17.000	0.005277
-16.995	0.005270
-16.990	0.005291
-16.985	0.005286
-16.980	0.005301
-16.975	0.005285
-16.970	0.005229
-16.965	0.005250
-16.960	0.005236
-16.955	0.005244
-16.950	0.005216
-16.945	0.005264
-16.940	0.005244
-16.935	0.005243
-16.930	0.005209
-16.925	0.005221
-16.920	0.005203
-16.915	0.005217
-16.910	0.005197
-16.905	0.005181
-16.900	0.005209
-16.895	0.005188
-16.890	0.005195
-16.885	0.005182
-16.880	0.005202
-16.875	0.005168
-16.870	0.005197
-16.865	0.005191
-16.860	0.005198
-16.855	0.005213
-16.850	0.005160
-16.845	0.005188
-16.840	0.005124
-16.835	0.005165
-16.830	0.005125
-16.825	0.005140
-16.820	0.005155
-16.815	0.005113
-16.810	0.005161
-16.805	0.005134
-16.800	0.005113
-16.795	0.005153
-16.790	0.005133
-16.785	0.005114
-16.780	0.005116
-16.775	0.005099
-16.770	0.005112
-16.765	0.005084
-16.760	0.005085
-16.755	0.005119
-16.750	0.005091
-16.745	0.005092
-16.740	0.005070
-16.735	0.005091
-16.730	0.005078
-16.725	0.005065
-16.720	0.005032
-16.715	0.005019
-16.710	0.005026
-16.705	0.005023
-16.700	0.005030
-16.695	0.005043
-16.690	0.005009
-16.685	0.005050
-16.680	0.005029
-16.675	0.005036
-16.670	0.005030
-16.665	0.005001
-16.660	0.005015
-16.655	0.004989
-16.650	0.004984
-16.645	0.004943
-16.640	0.004961
-16.635	0.004975
-16.630	0.004948
-16.625	0.004975
-16.620	0.004976
-16.615	0.004976
-16.610	0.004976
-16.605	0.004955
-16.600	0.004956
-16.595	0.004929
-16.590	0.004923
-16.585	0.004945
-16.580	0.004904
-16.575	0.004888
-16.570	0.004887
-16.565	0.004886
-16.560	0.004887
-16.555	0.004888
-16.550	0.004888
-16.545	0.004901
-16.540	0.004902
-16.535	0.004901
-16.530	0.004894
-16.525	0.004873
-16.520	0.004875
-16.515	0.004862
-16.510	0.004848
-16.505	0.004839
-16.500	0.004832
-16.495	0.004853
-16.490	0.004825
-16.485	0.004845
-16.480	0.004838
-16.475	0.004865
-16.470	0.004844
-16.465	0.004830
-16.460	0.004850
-16.455	0.004858
-16.450	0.004818
-16.445	0.004817
-16.440	0.004816
-16.435	0.004808
-16.430	0.004801
-16.425	0.004842
-16.420	0.004800
-16.415	0.004842
-16.410	0.004814
-16.405	0.004827
-16.400	0.004814
-16.395	0.004806
-16.390	0.004758
-16.385	0.004801
-16.380	0.004788
-16.375	0.004765
-16.370	0.004771
-16.365	0.004763
-16.360	0.004729
-16.355	0.004784
-16.350	0.004749
-16.345	0.004783
-16.340	0.004763
-16.335	0.004790
-16.330	0.004755
-16.325	0.004761
-16.320	0.004742
-16.315	0.004730
-16.310	0.004716
-16.305	0.004707
-16.300	0.004735
-16.295	0.004735
-16.290	0.004700
-16.285	0.004742
-16.280	0.004708
-16.275	0.004707
-16.270	0.004714
-16.265	0.004693
-16.260	0.004679
-16.255	0.004715
-16.250	0.004688
-16.245	0.004661
-16.240	0.004659
-16.235	0.004673
-16.230	0.004674
-16.225	0.004620
-16.220	0.004675
-16.215	0.004662
-16.210	0.004682
-16.205	0.004655
-16.200	0.004641
-16.195	0.004655
-16.190	0.004670
-16.185	0.004643
-16.180	0.004638
-16.175	0.004602
-16.170	0.004650
-16.165	0.004645
-16.160	0.004625
-16.155	0.004625
-16.150	0.004653
-16.145	0.004605
-16.140	0.004646
-16.135	0.004599
-16.130	0.004614
-16.125	0.004613
-16.120	0.004636
-16.115	0.004617
-16.110	0.004561
-16.105	0.004567
-16.100	0.004595
-16.095	0.004623
-16.090	0.004589
-16.085	0.004603
-16.080	0.004616
-16.075	0.004610
-16.070	0.004602
-16.065	0.004575
-16.060	0.004581
-16.055	0.004583
-16.050	0.004570
-16.045	0.004576
-16.040	0.004532
-16.035	0.004566
-16.030	0.004560
-16.025	0.004526
-16.020	0.004540
-16.015	0.004547
-16.010	0.004533
-16.005	0.004519
-16.000	0.004525
-15.995	0.004538
-15.990	0.004531
-15.985	0.004539
-15.980	0.004512
-15.975	0.004509
-15.970	0.004515
-15.965	0.004507
-15.960	0.004508
-15.955	0.004507
-15.950	0.004480
-15.945	0.004507
-15.940	0.004506
-15.935	0.004492
-15.930	0.004499
-15.925	0.004483
-15.920	0.004458
-15.915	0.004493
-15.910	0.004436
-15.905	0.004455
-15.900	0.004454
-15.895	0.004474
-15.890	0.004440
-15.885	0.004454
-15.880	0.004440
-15.875	0.004474
-15.870	0.004446
-15.865	0.004451
-15.860	0.004409
-15.855	0.004437
-15.850	0.004418
-15.845	0.004397
-15.840	0.004407
-15.835	0.004414
-15.830	0.004386
-15.825	0.004434
-15.820	0.004372
-15.815	0.004413
-15.810	0.004406
-15.805	0.004392
-15.800	0.004405
-15.795	0.004391
-15.790	0.004378
-15.785	0.004393
-15.780	0.004394
-15.775	0.004344
-15.770	0.004343
-15.765	0.004357
-15.760	0.004336
-15.755	0.004344
-15.750	0.004378
-15.745	0.004391
-15.740	0.004344
-15.735	0.004322
-15.730	0.004357
-15.725	0.004349
-15.720	0.004344
-15.715	0.004352
-15.710	0.004297
-15.705	0.004309
-15.700	0.004302
-15.695	0.004329
-15.690	0.004329
-15.685	0.004337
-15.680	0.004310
-15.675	0.004297
-15.670	0.004289
-15.665	0.004317
-15.660	0.004283
-15.655	0.004326
-15.650	0.004293
-15.645	0.004258
-15.640	0.004277
-15.635	0.004270
-15.630	0.004270
-15.625	0.004291
-15.620	0.004271
-15.615	0.004292
-15.610	0.004271
-15.605	0.004258
-15.600	0.004279
-15.595	0.004257
-15.590	0.004230
-15.585	0.004252
-15.580	0.004219
-15.575	0.004244
-15.570	0.004244
-15.565	0.004243
-15.560	0.004243
-15.555	0.004264
-15.550	0.004251
-15.545	0.004265
-15.540	0.004217
-15.535	0.004244
-15.530	0.004224
-15.525	0.004195
-15.520	0.004204
-15.515	0.004198
-15.510	0.004204
-15.505	0.004189
-15.500	0.004203
-15.495	0.004169
-15.490	0.004183
-15.485	0.004184
-15.480	0.004185
-15.475	0.004191
-15.470	0.004163
-15.465	0.004169
-15.460	0.004175
-15.455	0.004155
-15.450	0.004164
-15.445	0.004142
-15.440	0.004141
-15.435	0.004161
-15.430	0.004154
-15.425	0.004154
-15.420	0.004148
-15.415	0.004161
-15.410	0.004134
-15.405	0.004154
-15.400	0.004133
-15.395	0.004140
-15.390	0.004161
-15.385	0.004142
-15.380	0.004128
-15.375	0.004112
-15.370	0.004111
-15.365	0.004124
-15.360	0.004111
-15.355	0.004091
-15.350	0.004119
-15.345	0.004139
-15.340	0.004119
-15.335	0.004091
-15.330	0.004105
-15.325	0.004097
-15.320	0.004092
-15.315	0.004093
-15.310	0.004099
-15.305	0.004084
-15.300	0.004070
-15.295	0.004083
-15.290	0.004063
-15.285	0.004078
-15.280	0.004092
-15.275	0.004071
-15.270	0.004093
-15.265	0.004045
-15.260	0.004066
-15.255	0.004019
-15.250	0.004015
-15.245	0.004056
-15.240	0.004026
-15.235	0.004040
-15.230	0.004047
-15.225	0.004013
-15.220	0.004034
-15.215	0.004056
-15.210	0.004036
-15.205	0.004064
-15.200	0.004038
-15.195	0.004010
-15.190	0.003998
-15.185	0.004007
-15.180	0.003995
-15.175	0.003993
-15.170	0.004029
-15.165	0.003981
-15.160	0.003982
-15.155	0.004011
-15.150	0.003985
-15.145	0.004035
-15.140	0.003967
-15.135	0.004023
-15.130	0.003974
-15.125	0.004023
-15.120	0.003985
-15.115	0.003999
-15.110	0.003977
-15.105	0.003976
-15.100	0.003989
-15.095	0.003983
-15.090	0.003983
-15.085	0.003990
-15.080	0.003956
-15.075	0.003970
-15.070	0.003990
-15.065	0.003989
-15.060	0.003962
-15.055	0.003970
-15.050	0.003985
-15.045	0.003957
-15.040	0.003969
-15.035	0.003976
-15.030	0.003962
-15.025	0.003934
-15.020	0.003962
-15.015	0.003975
-15.010	0.003990
-15.005	0.003961
-15.000	0.003967
-14.995	0.003959
-14.990	0.003980
-14.985	0.003981
-14.980	0.003939
-14.975	0.003935
-14.970	0.003948
-14.965	0.003940
-14.960	0.003933
-14.955	0.003967
-14.950	0.003932
-14.945	0.003938
-14.940	0.003937
-14.935	0.003923
-14.930	0.003929
-14.925	0.003942
-14.920	0.003963
-14.915	0.003909
-14.910	0.003913
-14.905	0.003890
-14.900	0.003877
-14.895	0.003925
-14.890	0.003931
-14.885	0.003924
-14.880	0.003911
-14.875	0.003896
-14.870	0.003902
-14.865	0.003874
-14.860	0.003915
-14.855	0.003895
-14.850	0.003882
-14.845	0.003853
-14.840	0.003872
-14.835	0.003879
-14.830	0.003851
-14.825	0.003857
-14.820	0.003858
-14.815	0.003878
-14.810	0.003886
-14.805	0.003865
-14.800	0.003871
-14.795	0.003856
-14.790	0.003837
-14.785	0.003852
-14.780	0.003852
-14.775	0.003802
-14.770	0.003801
-14.765	0.003808
-14.760	0.003815
-14.755	0.003850
-14.750	0.003837
-14.745	0.003830
-14.740	0.003845
-14.735	0.003824
-14.730	0.003838
-14.725	0.003831
-14.720	0.003799
-14.715	0.003785
-14.710	0.003778
-14.705	0.003756
-14.700	0.003776
-14.695	0.003797
-14.690	0.003770
-14.685	0.003804
-14.680	0.003784
-14.675	0.003778
-14.670	0.003805
-14.665	0.003797
-14.660	0.003790
-14.655	0.003750
-14.650	0.003758
-14.645	0.003778
-14.640	0.003777
-14.635	0.003749
-14.630	0.003776
-14.625	0.003762
-14.620	0.003784
-14.615	0.003749
-14.610	0.003776
-14.605	0.003775
-14.600	0.003783
-14.595	0.003742
-14.590	0.003743
-14.585	0.003750
-14.580	0.003750
-14.575	0.003713
-14.570	0.003727
-14.565	0.003727
-14.560	0.003706
-14.555	0.003746
-14.550	0.003760
-14.545	0.003719
-14.540	0.003733
-14.535	0.003760
-14.530	0.003732
-14.525	0.003752
-14.520	0.003726
-14.515	0.003747
-14.510	0.003698
-14.505	0.003717
-14.500	0.003696
-14.495	0.003689
-14.490	0.003716
-14.485	0.003716
-14.480	0.003688
-14.475	0.003668
-14.470	0.003702
-14.465	0.003701
-14.460	0.003695
-14.455	0.003668
-14.450	0.003690
-14.445	0.003668
-14.440	0.003708
-14.435	0.003632
-14.430	0.003659
-14.425	0.003679
-14.420	0.003673
-14.415	0.003685
-14.410	0.003672
-14.405	0.003652
-14.400	0.003699
-14.395	0.003664
-14.390	0.003658
-14.385	0.003604
-14.380	0.003659
-14.375	0.003629
-14.370	0.003622
-14.365	0.003615
-14.360	0.003643
-14.355	0.003602
-14.350	0.003629
-14.345	0.003643
-14.340	0.003630
-14.335	0.003637
-14.330	0.003636
-14.325	0.003642
-14.320	0.003611
-14.315	0.003624
-14.310	0.003629
-14.305	0.003607
-14.300	0.003601
-14.295	0.003621
-14.290	0.003595
-14.285	0.003616
-14.280	0.003581
-14.275	0.003615
-14.270	0.003622
-14.265	0.003601
-14.260	0.003601
-14.255	0.003595
-14.250	0.003575
-14.245	0.003568
-14.240	0.003601
-14.235	0.003539
-14.230	0.003553
-14.225	0.003594
-14.220	0.003560
-14.215	0.003601
-14.210	0.003567
-14.205	0.003575
-14.200	0.003567
-14.195	0.003560
-14.190	0.003568
-14.185	0.003548
-14.180	0.003507
-14.175	0.003546
-14.170	0.003525
-14.165	0.003525
-14.160	0.003532
-14.155	0.003546
-14.150	0.003539
-14.145	0.003573
-14.140	0.003553
-14.135	0.003539
-14.130	0.003526
-14.125	0.003545
-14.120	0.003526
-14.115	0.003554
-14.110	0.003511
-14.105	0.003504
-14.100	0.003511
-14.095	0.003503
-14.090	0.003503
-14.085	0.003524
-14.080	0.003538
-14.075	0.003538
-14.070	0.003490
-14.065	0.003517
-14.060	0.003470
-14.055	0.003519
-14.050	0.003479
-14.045	0.003478
-14.040	0.003483
-14.035	0.003483
-14.030	0.003483
-14.025	0.003476
-14.020	0.003475
-14.015	0.003482
-14.010	0.003475
-14.005	0.003489
-14.000	0.003496
-13.995	0.003455
-13.990	0.003476
-13.985	0.003449
-13.980	0.003463
-13.975	0.003454
-13.970	0.003454
-13.965	0.003448
-13.960	0.003441
-13.955	0.003440
-13.950	0.003420
-13.945	0.003475
-13.940	0.003427
-13.935	0.003427
-13.930	0.003441
-13.925	0.003434
-13.920	0.003450
-13.915	0.003422
-13.910	0.003413
-13.905	0.003419
-13.900	0.003413
-13.895	0.003413
-13.890	0.003414
-13.885	0.003428
-13.880	0.003435
-13.875	0.003407
-13.870	0.003400
-13.865	0.003414
-13.860	0.003393
-13.855	0.003414
-13.850	0.003388
-13.845	0.003386
-13.840	0.003412
-13.835	0.003371
-13.830	0.003384
-13.825	0.003398
-13.820	0.003399
-13.815	0.003406
-13.810	0.003419
-13.805	0.003384
-13.800	0.003412
-13.795	0.003384
-13.790	0.003406
-13.785	0.003414
-13.780	0.003365
-13.775	0.003404
-13.770	0.003343
-13.765	0.003363
-13.760	0.003350
-13.755	0.003377
-13.750	0.003377
-13.745	0.003356
-13.740	0.003363
-13.735	0.003383
-13.730	0.003349
-13.725	0.003362
-13.720	0.003350
-13.715	0.003336
-13.710	0.003335
-13.705	0.003368
-13.700	0.003347
-13.695	0.003355
-13.690	0.003362
-13.685	0.003340
-13.680	0.003361
-13.675	0.003327
-13.670	0.003354
-13.665	0.003340
-13.660	0.003361
-13.655	0.003328
-13.650	0.003322
-13.645	0.003334
-13.640	0.003306
-13.635	0.003334
-13.630	0.003300
-13.625	0.003320
-13.620	0.003314
-13.615	0.003334
-13.610	0.003321
-13.605	0.003314
-13.600	0.003335
-13.595	0.003280
-13.590	0.003308
-13.585	0.003289
-13.580	0.003282
-13.575	0.003301
-13.570	0.003287
-13.565	0.003287
-13.560	0.003280
-13.555	0.003260
-13.550	0.003302
-13.545	0.003301
-13.540	0.003289
-13.535	0.003268
-13.530	0.003288
-13.525	0.003262
-13.520	0.003251
-13.515	0.003244
-13.510	0.003257
-13.505	0.003242
-13.500	0.003277
-13.495	0.003270
-13.490	0.003229
-13.485	0.003264
-13.480	0.003258
-13.475	0.003258
-13.470	0.003259
-13.465	0.003245
-13.460	0.003238
-13.455	0.003240
-13.450	0.003221
-13.445	0.003234
-13.440	0.003219
-13.435	0.003213
-13.430	0.003227
-13.425	0.003241
-13.420	0.003214
-13.415	0.003255
-13.410	0.003235
-13.405	0.003235
-13.400	0.003229
-13.395	0.003228
-13.390	0.003195
-13.385	0.003210
-13.380	0.003230
-13.375	0.003214
-13.370	0.003214
-13.365	0.003214
-13.360	0.003235
-13.355	0.003221
-13.350	0.003228
-13.345	0.003194
-13.340	0.003228
-13.335	0.003214
-13.330	0.003214
-13.325	0.003228
-13.320	0.003222
-13.315	0.003181
-13.310	0.003200
-13.305	0.003192
-13.300	0.003199
-13.295	0.003198
-13.290	0.003178
-13.285	0.003164
-13.280	0.003185
-13.275	0.003198
-13.270	0.003198
-13.265	0.003191
-13.260	0.003212
-13.255	0.003171
-13.250	0.003165
-13.245	0.003205
-13.240	0.003177
-13.235	0.003191
-13.230	0.003163
-13.225	0.003177
-13.220	0.003183
-13.215	0.003217
-13.210	0.003190
-13.205	0.003162
-13.200	0.003155
-13.195	0.003175
-13.190	0.003169
-13.185	0.003155
-13.180	0.003148
-13.175	0.003140
-13.170	0.003181
-13.165	0.003147
-13.160	0.003148
-13.155	0.003147
-13.150	0.003127
-13.145	0.003169
-13.140	0.003161
-13.135	0.003147
-13.130	0.003154
-13.125	0.003126
-13.120	0.003127
-13.115	0.003114
-13.110	0.003139
-13.105	0.003077
-13.100	0.003111
-13.095	0.003098
-13.090	0.003098
-13.085	0.003105
-13.080	0.003126
-13.075	0.003078
-13.070	0.003146
-13.065	0.003118
-13.060	0.003125
-13.055	0.003085
-13.050	0.003079
-13.045	0.003078
-13.040	0.003064
-13.035	0.003077
-13.030	0.003091
-13.025	0.003057
-13.020	0.003092
-13.015	0.003085
-13.010	0.003058
-13.005	0.003092
-13.000	0.003078
-12.995	0.003078
-12.990	0.003052
-12.985	0.003059
-12.980	0.003046
-12.975	0.003044
-12.970	0.003057
-12.965	0.003037
-12.960	0.003072
-12.955	0.003044
-12.950	0.003051
-12.945	0.003065
-12.940	0.003024
-12.935	0.003052
-12.930	0.003078
-12.925	0.003010
-12.920	0.003046
-12.915	0.003032
-12.910	0.003030
-12.905	0.003003
-12.900	0.002988
-12.895	0.003009
-12.890	0.003023
-12.885	0.003051
-12.880	0.003017
-12.875	0.003017
-12.870	0.003024
-12.865	0.003010
-12.860	0.003024
-12.855	0.002997
-12.850	0.003025
-12.845	0.002996
-12.840	0.003008
-12.835	0.002994
-12.830	0.003002
-12.825	0.002981
-12.820	0.003002
-12.815	0.003009
-12.810	0.003002
-12.805	0.003001
-12.800	0.003007
-12.795	0.002987
-12.790	0.003001
-12.785	0.002995
-12.780	0.002981
-12.775	0.002979
-12.770	0.003000
-12.765	0.002972
-12.760	0.002986
-12.755	0.002979
-12.750	0.002959
-12.745	0.002958
-12.740	0.002952
-12.735	0.002979
-12.730	0.002986
-12.725	0.002973
-12.720	0.002968
-12.715	0.002940
-12.710	0.002953
-12.705	0.002958
-12.700	0.002952
-12.695	0.002918
-12.690	0.002959
-12.685	0.002966
-12.680	0.002932
-12.675	0.002953
-12.670	0.002972
-12.665	0.002916
-12.660	0.002931
-12.655	0.002959
-12.650	0.002953
-12.645	0.002945
-12.640	0.002937
-12.635	0.002929
-12.630	0.002923
-12.625	0.002923
-12.620	0.002902
-12.615	0.002916
-12.610	0.002924
-12.605	0.002930
-12.600	0.002938
-12.595	0.002909
-12.590	0.002911
-12.585	0.002905
-12.580	0.002877
-12.575	0.002889
-12.570	0.002909
-12.565	0.002930
-12.560	0.002917
-12.555	0.002882
-12.550	0.002876
-12.545	0.002924
-12.540	0.002862
-12.535	0.002896
-12.530	0.002868
-12.525	0.002902
-12.520	0.002917
-12.515	0.002877
-12.510	0.002875
-12.505	0.002867
-12.500	0.002853
-12.495	0.002861
-12.490	0.002902
-12.485	0.002888
-12.480	0.002881
-12.475	0.002875
-12.470	0.002882
-12.465	0.002854
-12.460	0.002874
-12.455	0.002855
-12.450	0.002862
-12.445	0.002895
-12.440	0.002819
-12.435	0.002853
-12.430	0.002846
-12.425	0.002839
-12.420	0.002887
-12.415	0.002859
-12.410	0.002873
-12.405	0.002852
-12.400	0.002853
-12.395	0.002866
-12.390	0.002880
-12.385	0.002840
-12.380	0.002820
-12.375	0.002845
-12.370	0.002831
-12.365	0.002803
-12.360	0.002824
-12.355	0.002852
-12.350	0.002838
-12.345	0.002852
-12.340	0.002818
-12.335	0.002844
-12.330	0.002796
-12.325	0.002825
-12.320	0.002811
-12.315	0.002811
-12.310	0.002810
-12.305	0.002803
-12.300	0.002823
-12.295	0.002809
-12.290	0.002802
-12.285	0.002802
-12.280	0.002816
-12.275	0.002782
-12.270	0.002802
-12.265	0.002808
-12.260	0.002815
-12.255	0.002795
-12.250	0.002782
-12.245	0.002781
-12.240	0.002788
-12.235	0.002787
-12.230	0.002766
-12.225	0.002794
-12.220	0.002787
-12.215	0.002800
-12.210	0.002814
-12.205	0.002794
-12.200	0.002780
-12.195	0.002780
-12.190	0.002780
-12.185	0.002788
-12.180	0.002759
-12.175	0.002799
-12.170	0.002779
-12.165	0.002738
-12.160	0.002752
-12.155	0.002765
-12.150	0.002758
-12.145	0.002772
-12.140	0.002751
-12.135	0.002764
-12.130	0.002751
-12.125	0.002758
-12.120	0.002744
-12.115	0.002717
-12.110	0.002722
-12.105	0.002729
-12.100	0.002756
-12.095	0.002762
-12.090	0.002735
-12.085	0.002722
-12.080	0.002770
-12.075	0.002742
-12.070	0.002756
-12.065	0.002721
-12.060	0.002728
-12.055	0.002722
-12.050	0.002744
-12.045	0.002735
-12.040	0.002694
-12.035	0.002714
-12.030	0.002686
-12.025	0.002721
-12.020	0.002714
-12.015	0.002700
-12.010	0.002721
-12.005	0.002700
-12.000	0.002727
-11.995	0.002706
-11.990	0.002693
-11.985	0.002666
-11.980	0.002687
-11.975	0.002692
-11.970	0.002699
-11.965	0.002706
-11.960	0.002692
-11.955	0.002699
-11.950	0.002699
-11.945	0.002693
-11.940	0.002720
-11.935	0.002692
-11.930	0.002679
-11.925	0.002679
-11.920	0.002681
-11.915	0.002646
-11.910	0.002685
-11.905	0.002651
-11.900	0.002672
-11.895	0.002692
-11.890	0.002651
-11.885	0.002692
-11.880	0.002678
-11.875	0.002671
-11.870	0.002692
-11.865	0.002664
-11.860	0.002664
-11.855	0.002679
-11.850	0.002645
-11.845	0.002650
-11.840	0.002643
-11.835	0.002649
-11.830	0.002643
-11.825	0.002643
-11.820	0.002650
-11.815	0.002657
-11.810	0.002630
-11.805	0.002637
-11.800	0.002644
-11.795	0.002630
-11.790	0.002665
-11.785	0.002666
-11.780	0.002651
-11.775	0.002602
-11.770	0.002657
-11.765	0.002629
-11.760	0.002582
-11.755	0.002630
-11.750	0.002665
-11.745	0.002651
-11.740	0.002652
-11.735	0.002617
-11.730	0.002657
-11.725	0.002651
-11.720	0.002625
-11.715	0.002605
-11.710	0.002624
-11.705	0.002624
-11.700	0.002596
-11.695	0.002596
-11.690	0.002610
-11.685	0.002624
-11.680	0.002597
-11.675	0.002618
-11.670	0.002576
-11.665	0.002590
-11.660	0.002590
-11.655	0.002598
-11.650	0.002564
-11.645	0.002597
-11.640	0.002604
-11.635	0.002583
-11.630	0.002597
-11.625	0.002584
-11.620	0.002591
-11.615	0.002570
-11.610	0.002570
-11.605	0.002584
-11.600	0.002569
-11.595	0.002582
-11.590	0.002550
-11.585	0.002564
-11.580	0.002584
-11.575	0.002549
-11.570	0.002576
-11.565	0.002596
-11.560	0.002583
-11.555	0.002583
-11.550	0.002570
-11.545	0.002570
-11.540	0.002584
-11.535	0.002543
-11.530	0.002543
-11.525	0.002537
-11.520	0.002573
-11.515	0.002531
-11.510	0.002544
-11.505	0.002557
-11.500	0.002565
-11.495	0.002544
-11.490	0.002571
-11.485	0.002551
-11.480	0.002578
-11.475	0.002564
-11.470	0.002550
-11.465	0.002550
-11.460	0.002557
-11.455	0.002545
-11.450	0.002545
-11.445	0.002530
-11.440	0.002495
-11.435	0.002516
-11.430	0.002530
-11.425	0.002508
-11.420	0.002543
-11.415	0.002529
-11.410	0.002516
-11.405	0.002529
-11.400	0.002550
-11.395	0.002529
-11.390	0.002510
-11.385	0.002517
-11.380	0.002503
-11.375	0.002508
-11.370	0.002515
-11.365	0.002508
-11.360	0.002508
-11.355	0.002508
-11.350	0.002516
-11.345	0.002509
-11.340	0.002502
-11.335	0.002508
-11.330	0.002508
-11.325	0.002522
-11.320	0.002490
-11.315	0.002476
-11.310	0.002453
-11.305	0.002474
-11.300	0.002460
-11.295	0.002487
-11.290	0.002494
-11.285	0.002467
-11.280	0.002515
-11.275	0.002481
-11.270	0.002488
-11.265	0.002515
-11.260	0.002482
-11.255	0.002469
-11.250	0.002496
-11.245	0.002447
-11.240	0.002460
-11.235	0.002453
-11.230	0.002468
-11.225	0.002453
-11.220	0.002440
-11.215	0.002461
-11.210	0.002502
-11.205	0.002488
-11.200	0.002433
-11.195	0.002454
-11.190	0.002447
-11.185	0.002434
-11.180	0.002420
-11.175	0.002453
-11.170	0.002425
-11.165	0.002439
-11.160	0.002426
-11.155	0.002447
-11.150	0.002454
-11.145	0.002447
-11.140	0.002454
-11.135	0.002453
-11.130	0.002426
-11.125	0.002455
-11.120	0.002442
-11.115	0.002414
-11.110	0.002419
-11.105	0.002433
-11.100	0.002406
-11.095	0.002413
-11.090	0.002448
-11.085	0.002448
-11.080	0.002428
-11.075	0.002415
-11.070	0.002428
-11.065	0.002421
-11.060	0.002428
-11.055	0.002387
-11.050	0.002421
-11.045	0.002411
-11.040	0.002411
-11.035	0.002370
-11.030	0.002369
-11.025	0.002370
-11.020	0.002384
-11.015	0.002349
-11.010	0.002404
-11.005	0.002370
-11.000	0.002411
-10.995	0.002370
-10.990	0.002392
-10.985	0.002392
-10.980	0.002370
-10.975	0.002356
-10.970	0.002370
-10.965	0.002370
-10.960	0.002356
-10.955	0.002335
-10.950	0.002377
-10.945	0.002376
-10.940	0.002363
-10.935	0.002341
-10.930	0.002361
-10.925	0.002369
-10.920	0.002363
-10.915	0.002370
-10.910	0.002354
-10.905	0.002340
-10.900	0.002334
-10.895	0.002381
-10.890	0.002395
-10.885	0.002340
-10.880	0.002354
-10.875	0.002340
-10.870	0.002360
-10.865	0.002347
-10.860	0.002368
-10.855	0.002321
-10.850	0.002342
-10.845	0.002299
-10.840	0.002305
-10.835	0.002319
-10.830	0.002333
-10.825	0.002332
-10.820	0.002326
-10.815	0.002339
-10.810	0.002367
-10.805	0.002346
-10.800	0.002332
-10.795	0.002318
-10.790	0.002333
-10.785	0.002299
-10.780	0.002291
-10.775	0.002311
-10.770	0.002303
-10.765	0.002297
-10.760	0.002304
-10.755	0.002310
-10.750	0.002325
-10.745	0.002324
-10.740	0.002311
-10.735	0.002310
-10.730	0.002324
-10.725	0.002325
-10.720	0.002299
-10.715	0.002291
-10.710	0.002290
-10.705	0.002296
-10.700	0.002310
-10.695	0.002276
-10.690	0.002290
-10.685	0.002263
-10.680	0.002270
-10.675	0.002311
-10.670	0.002283
-10.665	0.002290
-10.660	0.002284
-10.655	0.002264
-10.650	0.002265
-10.645	0.002270
-10.640	0.002256
-10.635	0.002235
-10.630	0.002276
-10.625	0.002249
-10.620	0.002263
-10.615	0.002256
-10.610	0.002284
-10.605	0.002270
-10.600	0.002270
-10.595	0.002257
-10.590	0.002271
-10.585	0.002272
-10.580	0.002251
-10.575	0.002257
-10.570	0.002230
-10.565	0.002250
-10.560	0.002251
-10.555	0.002244
-10.550	0.002238
-10.545	0.002279
-10.540	0.002272
-10.535	0.002237
-10.530	0.002244
-10.525	0.002264
-10.520	0.002232
-10.515	0.002218
-10.510	0.002223
-10.505	0.002203
-10.500	0.002210
-10.495	0.002237
-10.490	0.002230
-10.485	0.002217
-10.480	0.002251
-10.475	0.002196
-10.470	0.002230
-10.465	0.002209
-10.460	0.002251
-10.455	0.002245
-10.450	0.002225
-10.445	0.002182
-10.440	0.002237
-10.435	0.002230
-10.430	0.002223
-10.425	0.002203
-10.420	0.002244
-10.415	0.002223
-10.410	0.002210
-10.405	0.002264
-10.400	0.002243
-10.395	0.002202
-10.390	0.002210
-10.385	0.002190
-10.380	0.002203
-10.375	0.002209
-10.370	0.002174
-10.365	0.002167
-10.360	0.002195
-10.355	0.002223
-10.350	0.002209
-10.345	0.002209
-10.340	0.002202
-10.335	0.002181
-10.330	0.002181
-10.325	0.002196
-10.320	0.002170
-10.315	0.002176
-10.310	0.002195
-10.305	0.002160
-10.300	0.002174
-10.295	0.002167
-10.290	0.002153
-10.285	0.002160
-10.280	0.002154
-10.275	0.002187
-10.270	0.002166
-10.265	0.002173
-10.260	0.002167
-10.255	0.002140
-10.250	0.002148
-10.245	0.002139
-10.240	0.002139
-10.235	0.002152
-10.230	0.002159
-10.225	0.002180
-10.220	0.002125
-10.215	0.002160
-10.210	0.002173
-10.205	0.002125
-10.200	0.002132
-10.195	0.002146
-10.190	0.002127
-10.185	0.002120
-10.180	0.002099
-10.175	0.002125
-10.170	0.002111
-10.165	0.002111
-10.160	0.002098
-10.155	0.002139
-10.150	0.002139
-10.145	0.002125
-10.140	0.002146
-10.135	0.002131
-10.130	0.002110
-10.125	0.002132
-10.120	0.002126
-10.115	0.002098
-10.110	0.002083
-10.105	0.002117
-10.100	0.002117
-10.095	0.002104
-10.090	0.002111
-10.085	0.002124
-10.080	0.002118
-10.075	0.002111
-10.070	0.002125
-10.065	0.002124
-10.060	0.002105
-10.055	0.002092
-10.050	0.002119
-10.045	0.002056
-10.040	0.002090
-10.035	0.002097
-10.030	0.002097
-10.025	0.002117
-10.020	0.002111
-10.015	0.002083
-10.010	0.002111
-10.005	0.002069
-10.000	0.002089
-9.995	0.002124
-9.990	0.002063
-9.985	0.002077
-9.980	0.002070
-9.975	0.002049
-9.970	0.002083
-9.965	0.002069
-9.960	0.002103
-9.955	0.002062
-9.950	0.002083
-9.945	0.002049
-9.940	0.002097
-9.935	0.002083
-9.930	0.002042
-9.925	0.002049
-9.920	0.002044
-9.915	0.002071
-9.910	0.002069
-9.905	0.002035
-9.900	0.002097
-9.895	0.002083
-9.890	0.002069
-9.885	0.002090
-9.880	0.002049
-9.875	0.002035
-9.870	0.002056
-9.865	0.002076
-9.860	0.002049
-9.855	0.002057
-9.850	0.002030
-9.845	0.002035
-9.840	0.002056
-9.835	0.002069
-9.830	0.002042
-9.825	0.002035
-9.820	0.002049
-9.815	0.002028
-9.810	0.002035
-9.805	0.002028
-9.800	0.002028
-9.795	0.002028
-9.790	0.002036
-9.785	0.002043
-9.780	0.002008
-9.775	0.002000
-9.770	0.002014
-9.765	0.001994
-9.760	0.002042
-9.755	0.002014
-9.750	0.002008
-9.745	0.001994
-9.740	0.002021
-9.735	0.002014
-9.730	0.002000
-9.725	0.002008
-9.720	0.002002
-9.715	0.001981
-9.710	0.002014
-9.705	0.002019
-9.700	0.002026
-9.695	0.001990
-9.690	0.001983
-9.685	0.001997
-9.680	0.001977
-9.675	0.002024
-9.670	0.001997
-9.665	0.001990
-9.660	0.001977
-9.655	0.002004
-9.650	0.001996
-9.645	0.001983
-9.640	0.001991
-9.635	0.001984
-9.630	0.001963
-9.625	0.001996
-9.620	0.001982
-9.615	0.002010
-9.610	0.001976
-9.605	0.001989
-9.600	0.001989
-9.595	0.001990
-9.590	0.001969
-9.585	0.001935
-9.580	0.001962
-9.575	0.001943
-9.570	0.001950
-9.565	0.001936
-9.560	0.001934
-9.555	0.001955
-9.550	0.001921
-9.545	0.001921
-9.540	0.001894
-9.535	0.001894
-9.530	0.001887
-9.525	0.001866
-9.520	0.001832
-9.515	0.001749
-9.510	0.001557
-9.505	0.001249
-9.500	0.000728
-9.495	-0.000034
-9.490	-0.001084
-9.485	-0.002545
-9.480	-0.004393
-9.475	-0.006758
-9.470	-0.009461
-9.465	-0.012402
-9.460	-0.015807
-9.455	-0.019378
-9.450	-0.023355
-9.445	-0.027653
-9.440	-0.032030
-9.435	-0.036359
-9.430	-0.040595
-9.425	-0.044535
-9.420	-0.048224
-9.415	-0.051449
-9.410	-0.053317
-9.405	-0.052956
-9.400	-0.050474
-9.395	-0.046637
-9.390	-0.042433
-9.385	-0.038642
-9.380	-0.035456
-9.375	-0.032895
-9.370	-0.030858
-9.365	-0.029274
-9.360	-0.027958
-9.355	-0.026816
-9.350	-0.025822
-9.345	-0.024968
-9.340	-0.024181
-9.335	-0.023425
-9.330	-0.022827
-9.325	-0.022185
-9.320	-0.021662
-9.315	-0.021154
-9.310	-0.020614
-9.305	-0.020176
-9.300	-0.019704
-9.295	-0.019278
-9.290	-0.018899
-9.285	-0.018492
-9.280	-0.018138
-9.275	-0.017810
-9.270	-0.017458
-9.265	-0.017148
-9.260	-0.016830
-9.255	-0.016527
-9.250	-0.016207
-9.245	-0.015976
-9.240	-0.015709
-9.235	-0.015451
-9.230	-0.015201
-9.225	-0.014988
-9.220	-0.014787
-9.215	-0.014545
-9.210	-0.014310
-9.205	-0.014072
-9.200	-0.013903
-9.195	-0.013703
-9.190	-0.013528
-9.185	-0.013302
-9.180	-0.013179
-9.175	-0.012974
-9.170	-0.012847
-9.165	-0.012689
-9.160	-0.012493
-9.155	-0.012384
-9.150	-0.012235
-9.145	-0.012118
-9.140	-0.011959
-9.135	-0.011877
-9.130	-0.011741
-9.125	-0.011598
-9.120	-0.011480
-9.115	-0.011378
-9.110	-0.011219
-9.105	-0.011134
-9.100	-0.011059
-9.095	-0.010930
-9.090	-0.010826
-9.085	-0.010701
-9.080	-0.010592
-9.075	-0.010513
-9.070	-0.010406
-9.065	-0.010291
-9.060	-0.010230
-9.055	-0.010119
-9.050	-0.010046
-9.045	-0.009936
-9.040	-0.009872
-9.035	-0.009764
-9.030	-0.009735
-9.025	-0.009644
-9.020	-0.009569
-9.015	-0.009502
-9.010	-0.009433
-9.005	-0.009357
-9.000	-0.009280
-8.995	-0.009232
-8.990	-0.009163
-8.985	-0.009079
-8.980	-0.009041
-8.975	-0.008947
-8.970	-0.008881
-8.965	-0.008793
-8.960	-0.008718
-8.955	-0.008614
-8.950	-0.008531
-8.945	-0.008495
-8.940	-0.008378
-8.935	-0.008356
-8.930	-0.008245
-8.925	-0.008182
-8.920	-0.008155
-8.915	-0.008099
-8.910	-0.008025
-8.905	-0.007979
-8.900	-0.007917
-8.895	-0.007867
-8.890	-0.007845
-8.885	-0.007783
-8.880	-0.007735
-8.875	-0.007709
-8.870	-0.007613
-8.865	-0.007599
-8.860	-0.007557
-8.855	-0.007502
-8.850	-0.007433
-8.845	-0.007399
-8.840	-0.007367
-8.835	-0.007326
-8.830	-0.007283
-8.825	-0.007254
-8.820	-0.007199
-8.815	-0.007131
-8.810	-0.007082
-8.805	-0.007061
-8.800	-0.007013
-8.795	-0.006978
-8.790	-0.006916
-8.785	-0.006875
-8.780	-0.006848
-8.775	-0.006773
-8.770	-0.006794
-8.765	-0.006745
-8.760	-0.006729
-8.755	-0.006647
-8.750	-0.006606
-8.745	-0.006586
-8.740	-0.006565
-8.735	-0.006537
-8.730	-0.006489
-8.725	-0.006455
-8.720	-0.006435
-8.715	-0.006387
-8.710	-0.006353
-8.705	-0.006354
-8.700	-0.006299
-8.695	-0.006262
-8.690	-0.006289
-8.685	-0.006200
-8.680	-0.006172
-8.675	-0.006167
-8.670	-0.006098
-8.665	-0.006057
-8.660	-0.006043
-8.655	-0.006002
-8.650	-0.005954
-8.645	-0.005921
-8.640	-0.005916
-8.635	-0.005888
-8.630	-0.005886
-8.625	-0.005864
-8.620	-0.005830
-8.615	-0.005795
-8.610	-0.005774
-8.605	-0.005719
-8.600	-0.005698
-8.595	-0.005679
-8.590	-0.005631
-8.585	-0.005618
-8.580	-0.005611
-8.575	-0.005564
-8.570	-0.005536
-8.565	-0.005549
-8.560	-0.005513
-8.555	-0.005458
-8.550	-0.005445
-8.545	-0.005404
-8.540	-0.005390
-8.535	-0.005355
-8.530	-0.005334
-8.525	-0.005286
-8.520	-0.005251
-8.515	-0.005210
-8.510	-0.005183
-8.505	-0.005149
-8.500	-0.005177
-8.495	-0.005161
-8.490	-0.005134
-8.485	-0.005120
-8.480	-0.005148
-8.475	-0.005121
-8.470	-0.005135
-8.465	-0.005142
-8.460	-0.005073
-8.455	-0.005080
-8.450	-0.005066
-8.445	-0.005011
-8.440	-0.004991
-8.435	-0.004971
-8.430	-0.004901
-8.425	-0.004928
-8.420	-0.004873
-8.415	-0.004866
-8.410	-0.004846
-8.405	-0.004840
-8.400	-0.004763
-8.395	-0.004743
-8.390	-0.004756
-8.385	-0.004709
-8.380	-0.004709
-8.375	-0.004696
-8.370	-0.004676
-8.365	-0.004703
-8.360	-0.004647
-8.355	-0.004619
-8.350	-0.004599
-8.345	-0.004600
-8.340	-0.004551
-8.335	-0.004538
-8.330	-0.004517
-8.325	-0.004517
-8.320	-0.004490
-8.315	-0.004449
-8.310	-0.004442
-8.305	-0.004444
-8.300	-0.004402
-8.295	-0.004401
-8.290	-0.004407
-8.285	-0.004380
-8.280	-0.004366
-8.275	-0.004325
-8.270	-0.004325
-8.265	-0.004277
-8.260	-0.004278
-8.255	-0.004278
-8.250	-0.004264
-8.245	-0.004216
-8.240	-0.004217
-8.235	-0.004190
-8.230	-0.004189
-8.225	-0.004155
-8.220	-0.004141
-8.215	-0.004141
-8.210	-0.004121
-8.205	-0.004087
-8.200	-0.004093
-8.195	-0.004059
-8.190	-0.004052
-8.185	-0.004039
-8.180	-0.003997
-8.175	-0.004025
-8.170	-0.003978
-8.165	-0.003970
-8.160	-0.003990
-8.155	-0.003956
-8.150	-0.003942
-8.145	-0.003915
-8.140	-0.003894
-8.135	-0.003867
-8.130	-0.003895
-8.125	-0.003875
-8.120	-0.003854
-8.115	-0.003861
-8.110	-0.003827
-8.105	-0.003814
-8.100	-0.003814
-8.095	-0.003806
-8.090	-0.003807
-8.085	-0.003786
-8.080	-0.003759
-8.075	-0.003752
-8.070	-0.003752
-8.065	-0.003745
-8.060	-0.003697
-8.055	-0.003704
-8.050	-0.003704
-8.045	-0.003676
-8.040	-0.003663
-8.035	-0.003690
-8.030	-0.003676
-8.025	-0.003621
-8.020	-0.003628
-8.015	-0.003621
-8.010	-0.003614
-8.005	-0.003593
-8.000	-0.003587
-7.995	-0.003546
-7.990	-0.003504
-7.985	-0.003546
-7.980	-0.003518
-7.975	-0.003553
-7.970	-0.003546
-7.965	-0.003511
-7.960	-0.003490
-7.955	-0.003484
-7.950	-0.003456
-7.945	-0.003436
-7.940	-0.003450
-7.935	-0.003450
-7.930	-0.003436
-7.925	-0.003415
-7.920	-0.003395
-7.915	-0.003381
-7.910	-0.003381
-7.905	-0.003388
-7.900	-0.003382
-7.895	-0.003360
-7.890	-0.003353
-7.885	-0.003312
-7.880	-0.003346
-7.875	-0.003285
-7.870	-0.003299
-7.865	-0.003278
-7.860	-0.003305
-7.855	-0.003285
-7.850	-0.003250
-7.845	-0.003251
-7.840	-0.003237
-7.835	-0.003258
-7.830	-0.003237
-7.825	-0.003216
-7.820	-0.003223
-7.815	-0.003223
-7.810	-0.003216
-7.805	-0.003175
-7.800	-0.003189
-7.795	-0.003175
-7.790	-0.003162
-7.785	-0.003168
-7.780	-0.003148
-7.775	-0.003135
-7.770	-0.003135
-7.765	-0.003135
-7.760	-0.003141
-7.755	-0.003141
-7.750	-0.003121
-7.745	-0.003100
-7.740	-0.003107
-7.735	-0.003086
-7.730	-0.003073
-7.725	-0.003038
-7.720	-0.003045
-7.715	-0.003025
-7.710	-0.003039
-7.705	-0.003053
-7.700	-0.003018
-7.695	-0.003025
-7.690	-0.003025
-7.685	-0.003004
-7.680	-0.003011
-7.675	-0.002984
-7.670	-0.002998
-7.665	-0.002977
-7.660	-0.002963
-7.655	-0.002963
-7.650	-0.002963
-7.645	-0.002949
-7.640	-0.002936
-7.635	-0.002922
-7.630	-0.002943
-7.625	-0.002895
-7.620	-0.002895
-7.615	-0.002895
-7.610	-0.002888
-7.605	-0.002860
-7.600	-0.002840
-7.595	-0.002861
-7.590	-0.002874
-7.585	-0.002861
-7.580	-0.002861
-7.575	-0.002868
-7.570	-0.002834
-7.565	-0.002841
-7.560	-0.002785
-7.555	-0.002826
-7.550	-0.002785
-7.545	-0.002806
-7.540	-0.002827
-7.535	-0.002813
-7.530	-0.002779
-7.525	-0.002827
-7.520	-0.002779
-7.515	-0.002779
-7.510	-0.002799
-7.505	-0.002806
-7.500	-0.002813
-7.495	-0.002799
-7.490	-0.002785
-7.485	-0.002779
-7.480	-0.002737
-7.475	-0.002744
-7.470	-0.002717
-7.465	-0.002676
-7.460	-0.002669
-7.455	-0.002676
-7.450	-0.002676
-7.445	-0.002635
-7.440	-0.002635
-7.435	-0.002594
-7.430	-0.002628
-7.425	-0.002580
-7.420	-0.002573
-7.415	-0.002608
-7.410	-0.002573
-7.405	-0.002553
-7.400	-0.002539
-7.395	-0.002553
-7.390	-0.002539
-7.385	-0.002539
-7.380	-0.002518
-7.375	-0.002533
-7.370	-0.002533
-7.365	-0.002526
-7.360	-0.002519
-7.355	-0.002505
-7.350	-0.002491
-7.345	-0.002484
-7.340	-0.002498
-7.335	-0.002498
-7.330	-0.002416
-7.325	-0.002430
-7.320	-0.002436
-7.315	-0.002457
-7.310	-0.002444
-7.305	-0.002444
-7.300	-0.002430
-7.295	-0.002430
-7.290	-0.002416
-7.285	-0.002409
-7.280	-0.002409
-7.275	-0.002382
-7.270	-0.002347
-7.265	-0.002375
-7.260	-0.002382
-7.255	-0.002361
-7.250	-0.002347
-7.245	-0.002341
-7.240	-0.002334
-7.235	-0.002362
-7.230	-0.002341
-7.225	-0.002341
-7.220	-0.002355
-7.215	-0.002328
-7.210	-0.002383
-7.205	-0.002356
-7.200	-0.002335
-7.195	-0.002315
-7.190	-0.002287
-7.185	-0.002267
-7.180	-0.002309
-7.175	-0.002288
-7.170	-0.002309
-7.165	-0.002281
-7.160	-0.002280
-7.155	-0.002294
-7.150	-0.002280
-7.145	-0.002293
-7.140	-0.002279
-7.135	-0.002293
-7.130	-0.002272
-7.125	-0.002265
-7.120	-0.002252
-7.115	-0.002258
-7.110	-0.002272
-7.105	-0.002245
-7.100	-0.002293
-7.095	-0.002265
-7.090	-0.002272
-7.085	-0.002231
-7.080	-0.002203
-7.075	-0.002224
-7.070	-0.002217
-7.065	-0.002203
-7.060	-0.002210
-7.055	-0.002176
-7.050	-0.002231
-7.045	-0.002183
-7.040	-0.002211
-7.035	-0.002183
-7.030	-0.002183
-7.025	-0.002169
-7.020	-0.002176
-7.015	-0.002176
-7.010	-0.002183
-7.005	-0.002156
-7.000	-0.002169
-6.995	-0.002169
-6.990	-0.002142
-6.985	-0.002121
-6.980	-0.002128
-6.975	-0.002115
-6.970	-0.002149
-6.965	-0.002122
-6.960	-0.002108
-6.955	-0.002128
-6.950	-0.002108
-6.945	-0.002087
-6.940	-0.002128
-6.935	-0.002094
-6.930	-0.002067
-6.925	-0.002053
-6.920	-0.002074
-6.915	-0.002067
-6.910	-0.002081
-6.905	-0.002060
-6.900	-0.002067
-6.895	-0.002094
-6.890	-0.002067
-6.885	-0.002012
-6.880	-0.002101
-6.875	-0.002060
-6.870	-0.002067
-6.865	-0.002033
-6.860	-0.002081
-6.855	-0.002060
-6.850	-0.002053
-6.845	-0.002081
-6.840	-0.002074
-6.835	-0.002102
-6.830	-0.002088
-6.825	-0.002108
-6.820	-0.002095
-6.815	-0.002088
-6.810	-0.002088
-6.805	-0.002067
-6.800	-0.002081
-6.795	-0.002102
-6.790	-0.002067
-6.785	-0.002074
-6.780	-0.002068
-6.775	-0.002109
-6.770	-0.002088
-6.765	-0.002075
-6.760	-0.002047
-6.755	-0.002061
-6.750	-0.002068
-6.745	-0.002054
-6.740	-0.002033
-6.735	-0.002020
-6.730	-0.002020
-6.725	-0.001992
-6.720	-0.001986
-6.715	-0.001999
-6.710	-0.002006
-6.705	-0.001972
-6.700	-0.001972
-6.695	-0.002006
-6.690	-0.001979
-6.685	-0.001958
-6.680	-0.001979
-6.675	-0.001952
-6.670	-0.001938
-6.665	-0.001938
-6.660	-0.001931
-6.655	-0.001924
-6.650	-0.001904
-6.645	-0.001931
-6.640	-0.001938
-6.635	-0.001931
-6.630	-0.001911
-6.625	-0.001883
-6.620	-0.001904
-6.615	-0.001883
-6.610	-0.001918
-6.605	-0.001897
-6.600	-0.001870
-6.595	-0.001835
-6.590	-0.001870
-6.585	-0.001856
-6.580	-0.001849
-6.575	-0.001856
-6.570	-0.001870
-6.565	-0.001863
-6.560	-0.001883
-6.555	-0.001870
-6.550	-0.001863
-6.545	-0.001863
-6.540	-0.001836
-6.535	-0.001836
-6.530	-0.001849
-6.525	-0.001788
-6.520	-0.001829
-6.515	-0.001815
-6.510	-0.001836
-6.505	-0.001829
-6.500	-0.001822
-6.495	-0.001815
-6.490	-0.001788
-6.485	-0.001815
-6.480	-0.001829
-6.475	-0.001788
-6.470	-0.001788
-6.465	-0.001774
-6.460	-0.001754
-6.455	-0.001795
-6.450	-0.001740
-6.445	-0.001767
-6.440	-0.001788
-6.435	-0.001774
-6.430	-0.001767
-6.425	-0.001747
-6.420	-0.001761
-6.415	-0.001774
-6.410	-0.001761
-6.405	-0.001740
-6.400	-0.001761
-6.395	-0.001706
-6.390	-0.001761
-6.385	-0.001692
-6.380	-0.001733
-6.375	-0.001719
-6.370	-0.001692
-6.365	-0.001713
-6.360	-0.001699
-6.355	-0.001692
-6.350	-0.001671
-6.345	-0.001706
-6.340	-0.001685
-6.335	-0.001665
-6.330	-0.001658
-6.325	-0.001651
-6.320	-0.001623
-6.315	-0.001651
-6.310	-0.001637
-6.305	-0.001685
-6.300	-0.001651
-6.295	-0.001672
-6.290	-0.001637
-6.285	-0.001665
-6.280	-0.001651
-6.275	-0.001665
-6.270	-0.001665
-6.265	-0.001665
-6.260	-0.001638
-6.255	-0.001638
-6.250	-0.001651
-6.245	-0.001658
-6.240	-0.001665
-6.235	-0.001631
-6.230	-0.001658
-6.225	-0.001638
-6.220	-0.001645
-6.215	-0.001638
-6.210	-0.001631
-6.205	-0.001645
-6.200	-0.001631
-6.195	-0.001652
-6.190	-0.001631
-6.185	-0.001610
-6.180	-0.001617
-6.175	-0.001617
-6.170	-0.001645
-6.165	-0.001624
-6.160	-0.001624
-6.155	-0.001597
-6.150	-0.001597
-6.145	-0.001624
-6.140	-0.001611
-6.135	-0.001590
-6.130	-0.001590
-6.125	-0.001590
-6.120	-0.001556
-6.115	-0.001563
-6.110	-0.001563
-6.105	-0.001542
-6.100	-0.001570
-6.095	-0.001570
-6.090	-0.001570
-6.085	-0.001549
-6.080	-0.001563
-6.075	-0.001535
-6.070	-0.001570
-6.065	-0.001542
-6.060	-0.001529
-6.055	-0.001515
-6.050	-0.001515
-6.045	-0.001549
-6.040	-0.001536
-6.035	-0.001515
-6.030	-0.001522
-6.025	-0.001501
-6.020	-0.001515
-6.015	-0.001508
-6.010	-0.001522
-6.005	-0.001488
-6.000	-0.001474
-5.995	-0.001488
-5.990	-0.001447
-5.985	-0.001453
-5.980	-0.001481
-5.975	-0.001481
-5.970	-0.001495
-5.965	-0.001433
-5.960	-0.001481
-5.955	-0.001454
-5.950	-0.001433
-5.945	-0.001426
-5.940	-0.001426
-5.935	-0.001392
-5.930	-0.001385
-5.925	-0.001378
-5.920	-0.001365
-5.915	-0.001385
-5.910	-0.001365
-5.905	-0.001364
-5.900	-0.001344
-5.895	-0.001351
-5.890	-0.001324
-5.885	-0.001344
-5.880	-0.001351
-5.875	-0.001317
-5.870	-0.001310
-5.865	-0.001317
-5.860	-0.001262
-5.855	-0.001276
-5.850	-0.001303
-5.845	-0.001276
-5.840	-0.001289
-5.835	-0.001303
-5.830	-0.001289
-5.825	-0.001289
-5.820	-0.001310
-5.815	-0.001317
-5.810	-0.001303
-5.805	-0.001296
-5.800	-0.001296
-5.795	-0.001372
-5.790	-0.001379
-5.785	-0.001413
-5.780	-0.001434
-5.775	-0.001502
-5.770	-0.001550
-5.765	-0.001619
-5.760	-0.001694
-5.755	-0.001756
-5.750	-0.001852
-5.745	-0.001962
-5.740	-0.002038
-5.735	-0.002141
-5.730	-0.002223
-5.725	-0.002326
-5.720	-0.002443
-5.715	-0.002504
-5.710	-0.002573
-5.705	-0.002608
-5.700	-0.002642
-5.695	-0.002628
-5.690	-0.002566
-5.685	-0.002552
-5.680	-0.002443
-5.675	-0.002326
-5.670	-0.002168
-5.665	-0.002065
-5.660	-0.001921
-5.655	-0.001784
-5.650	-0.001647
-5.645	-0.001496
-5.640	-0.001393
-5.635	-0.001304
-5.630	-0.001228
-5.625	-0.001160
-5.620	-0.001153
-5.615	-0.001077
-5.610	-0.001071
-5.605	-0.001077
-5.600	-0.001043
-5.595	-0.001036
-5.590	-0.001050
-5.585	-0.001070
-5.580	-0.001071
-5.575	-0.001063
-5.570	-0.001084
-5.565	-0.001091
-5.560	-0.001112
-5.555	-0.001132
-5.550	-0.001098
-5.545	-0.001098
-5.540	-0.001112
-5.535	-0.001098
-5.530	-0.001098
-5.525	-0.001098
-5.520	-0.001084
-5.515	-0.001105
-5.510	-0.001112
-5.505	-0.001091
-5.500	-0.001139
-5.495	-0.001146
-5.490	-0.001167
-5.485	-0.001126
-5.480	-0.001126
-5.475	-0.001119
-5.470	-0.001146
-5.465	-0.001181
-5.460	-0.001139
-5.455	-0.001126
-5.450	-0.001016
-5.445	-0.000775
-5.440	-0.000294
-5.435	0.000394
-5.430	0.001384
-5.425	0.002774
-5.420	0.004887
-5.415	0.007442
-5.410	0.010626
-5.405	0.014138
-5.400	0.017812
-5.395	0.022425
-5.390	0.027336
-5.385	0.032265
-5.380	0.038066
-5.375	0.044359
-5.370	0.049997
-5.365	0.054944
-5.360	0.060284
-5.355	0.065971
-5.350	0.070454
-5.345	0.072128
-5.340	0.070845
-5.335	0.067598
-5.330	0.063665
-5.325	0.059674
-5.320	0.055988
-5.315	0.052775
-5.310	0.050069
-5.305	0.047771
-5.300	0.045777
-5.295	0.044010
-5.290	0.042418
-5.285	0.041048
-5.280	0.039743
-5.275	0.038528
-5.270	0.037402
-5.265	0.036416
-5.260	0.035554
-5.255	0.034776
-5.250	0.034050
-5.245	0.033360
-5.240	0.032658
-5.235	0.032069
-5.230	0.031457
-5.225	0.030949
-5.220	0.030416
-5.215	0.029859
-5.210	0.029331
-5.205	0.028794
-5.200	0.028285
-5.195	0.027830
-5.190	0.027382
-5.185	0.026948
-5.180	0.026485
-5.175	0.026041
-5.170	0.025617
-5.165	0.025232
-5.160	0.024919
-5.155	0.024676
-5.150	0.024307
-5.145	0.024006
-5.140	0.023675
-5.135	0.023332
-5.130	0.023075
-5.125	0.022808
-5.120	0.022540
-5.115	0.022330
-5.110	0.022094
-5.105	0.021883
-5.100	0.021711
-5.095	0.021549
-5.090	0.021383
-5.085	0.021231
-5.080	0.021044
-5.075	0.020835
-5.070	0.020648
-5.065	0.020511
-5.060	0.020354
-5.055	0.020215
-5.050	0.020036
-5.045	0.019852
-5.040	0.019594
-5.035	0.019401
-5.030	0.019227
-5.025	0.019037
-5.020	0.018844
-5.015	0.018700
-5.010	0.018548
-5.005	0.018459
-5.000	0.018294
-4.995	0.018217
-4.990	0.018096
-4.985	0.017924
-4.980	0.017730
-4.975	0.017534
-4.970	0.017342
-4.965	0.017158
-4.960	0.017078
-4.955	0.016942
-4.950	0.016847
-4.945	0.016654
-4.940	0.016517
-4.935	0.016401
-4.930	0.016294
-4.925	0.016205
-4.920	0.016053
-4.915	0.015914
-4.910	0.015822
-4.905	0.015685
-4.900	0.015646
-4.895	0.015614
-4.890	0.015542
-4.885	0.015543
-4.880	0.015531
-4.875	0.015411
-4.870	0.015367
-4.865	0.015290
-4.860	0.015201
-4.855	0.015187
-4.850	0.015158
-4.845	0.015072
-4.840	0.015031
-4.835	0.014949
-4.830	0.014855
-4.825	0.014776
-4.820	0.014689
-4.815	0.014615
-4.810	0.014480
-4.805	0.014390
-4.800	0.014275
-4.795	0.014193
-4.790	0.014117
-4.785	0.014151
-4.780	0.014077
-4.775	0.013987
-4.770	0.013899
-4.765	0.013736
-4.760	0.013632
-4.755	0.013502
-4.750	0.013474
-4.745	0.013456
-4.740	0.013340
-4.735	0.013287
-4.730	0.013254
-4.725	0.013267
-4.720	0.013279
-4.715	0.013300
-4.710	0.013256
-4.705	0.013203
-4.700	0.013066
-4.695	0.013000
-4.690	0.012857
-4.685	0.012738
-4.680	0.012668
-4.675	0.012531
-4.670	0.012525
-4.665	0.012405
-4.660	0.012415
-4.655	0.012369
-4.650	0.012260
-4.645	0.012126
-4.640	0.011992
-4.635	0.011818
-4.630	0.011627
-4.625	0.011416
-4.620	0.011262
-4.615	0.011187
-4.610	0.011157
-4.605	0.011123
-4.600	0.011120
-4.595	0.011148
-4.590	0.011230
-4.585	0.011270
-4.580	0.011289
-4.575	0.011316
-4.570	0.011373
-4.565	0.011383
-4.560	0.011430
-4.555	0.011364
-4.550	0.011303
-4.545	0.011289
-4.540	0.011178
-4.535	0.011138
-4.530	0.011103
-4.525	0.011028
-4.520	0.010960
-4.515	0.010886
-4.510	0.010794
-4.505	0.010742
-4.500	0.010675
-4.495	0.010617
-4.490	0.010616
-4.485	0.010658
-4.480	0.010631
-4.475	0.010578
-4.470	0.010536
-4.465	0.010474
-4.460	0.010386
-4.455	0.010324
-4.450	0.010300
-4.445	0.010241
-4.440	0.010182
-4.435	0.010120
-4.430	0.010121
-4.425	0.010086
-4.420	0.010085
-4.415	0.010105
-4.410	0.010074
-4.405	0.010060
-4.400	0.009978
-4.395	0.009916
-4.390	0.009882
-4.385	0.009839
-4.380	0.009815
-4.375	0.009777
-4.370	0.009764
-4.365	0.009730
-4.360	0.009750
-4.355	0.009688
-4.350	0.009647
-4.345	0.009619
-4.340	0.009602
-4.335	0.009604
-4.330	0.009564
-4.325	0.009523
-4.320	0.009493
-4.315	0.009447
-4.310	0.009423
-4.305	0.009384
-4.300	0.009347
-4.295	0.009290
-4.290	0.009241
-4.285	0.009180
-4.280	0.009100
-4.275	0.009052
-4.270	0.009004
-4.265	0.008977
-4.260	0.009023
-4.255	0.009031
-4.250	0.009084
-4.245	0.009102
-4.240	0.009028
-4.235	0.009020
-4.230	0.009029
-4.225	0.008976
-4.220	0.008985
-4.215	0.008958
-4.210	0.008939
-4.205	0.008873
-4.200	0.008790
-4.195	0.008722
-4.190	0.008613
-4.185	0.008603
-4.180	0.008542
-4.175	0.008489
-4.170	0.008388
-4.165	0.008228
-4.160	0.008021
-4.155	0.007801
-4.150	0.007363
-4.145	0.006789
-4.140	0.005864
-4.135	0.004495
-4.130	0.002830
-4.125	0.000576
-4.120	-0.002194
-4.115	-0.005425
-4.110	-0.009252
-4.105	-0.013544
-4.100	-0.018219
-4.095	-0.023285
-4.090	-0.028842
-4.085	-0.034594
-4.080	-0.040548
-4.075	-0.046540
-4.070	-0.052379
-4.065	-0.057999
-4.060	-0.062933
-4.055	-0.066729
-4.050	-0.069164
-4.045	-0.069867
-4.040	-0.068814
-4.035	-0.066115
-4.030	-0.062345
-4.025	-0.058183
-4.020	-0.054170
-4.015	-0.050577
-4.010	-0.047565
-4.005	-0.044963
-4.000	-0.042735
-3.995	-0.040834
-3.990	-0.039165
-3.985	-0.037720
-3.980	-0.036303
-3.975	-0.035085
-3.970	-0.033998
-3.965	-0.032957
-3.960	-0.032062
-3.955	-0.031207
-3.950	-0.030378
-3.945	-0.029707
-3.940	-0.028990
-3.935	-0.028372
-3.930	-0.027786
-3.925	-0.027250
-3.920	-0.026752
-3.915	-0.026227
-3.910	-0.025775
-3.905	-0.025300
-3.900	-0.024858
-3.895	-0.024428
-3.890	-0.023986
-3.885	-0.023540
-3.880	-0.023127
-3.875	-0.022764
-3.870	-0.022401
-3.865	-0.022001
-3.860	-0.021653
-3.855	-0.021284
-3.850	-0.020954
-3.845	-0.020639
-3.840	-0.020314
-3.835	-0.019994
-3.830	-0.019684
-3.825	-0.019353
-3.820	-0.019068
-3.815	-0.018787
-3.810	-0.018514
-3.805	-0.018251
-3.800	-0.017981
-3.795	-0.017739
-3.790	-0.017503
-3.785	-0.017337
-3.780	-0.017104
-3.775	-0.016904
-3.770	-0.016676
-3.765	-0.016450
-3.760	-0.016238
-3.755	-0.016034
-3.750	-0.015814
-3.745	-0.015643
-3.740	-0.015433
-3.735	-0.015252
-3.730	-0.015070
-3.725	-0.014872
-3.720	-0.014730
-3.715	-0.014570
-3.710	-0.014454
-3.705	-0.014287
-3.700	-0.014173
-3.695	-0.014090
-3.690	-0.013953
-3.685	-0.013825
-3.680	-0.013686
-3.675	-0.013563
-3.670	-0.013434
-3.665	-0.013308
-3.660	-0.013197
-3.655	-0.013071
-3.650	-0.012953
-3.645	-0.012840
-3.640	-0.012718
-3.635	-0.012666
-3.630	-0.012566
-3.625	-0.012471
-3.620	-0.012276
-3.615	-0.012187
-3.610	-0.012007
-3.605	-0.011799
-3.600	-0.011591
-3.595	-0.011382
-3.590	-0.011146
-3.585	-0.010976
-3.580	-0.010653
-3.575	-0.010386
-3.570	-0.009962
-3.565	-0.009546
-3.560	-0.009209
-3.555	-0.008787
-3.550	-0.008270
-3.545	-0.007706
-3.540	-0.007097
-3.535	-0.006542
-3.530	-0.005858
-3.525	-0.005179
-3.520	-0.004459
-3.515	-0.003746
-3.510	-0.003088
-3.505	-0.002450
-3.500	-0.001888
-3.495	-0.001374
-3.490	-0.000813
-3.485	-0.000340
-3.480	0.000043
-3.475	0.000380
-3.470	0.000627
-3.465	0.000703
-3.460	0.000778
-3.455	0.000813
-3.450	0.000826
-3.445	0.000889
-3.440	0.000903
-3.435	0.000930
-3.430	0.000928
-3.425	0.001023
-3.420	0.001173
-3.415	0.001420
-3.410	0.001787
-3.405	0.002242
-3.400	0.002795
-3.395	0.003468
-3.390	0.004189
-3.385	0.005026
-3.380	0.005915
-3.375	0.006932
-3.370	0.007896
-3.365	0.008852
-3.360	0.009793
-3.355	0.010727
-3.350	0.011534
-3.345	0.012069
-3.340	0.012159
-3.335	0.011894
-3.330	0.011373
-3.325	0.010882
-3.320	0.010374
-3.315	0.009986
-3.310	0.009668
-3.305	0.009450
-3.300	0.009315
-3.295	0.009226
-3.290	0.009115
-3.285	0.009027
-3.280	0.008902
-3.275	0.008821
-3.270	0.008765
-3.265	0.008793
-3.260	0.008840
-3.255	0.008927
-3.250	0.008935
-3.245	0.008980
-3.240	0.009060
-3.235	0.009120
-3.230	0.009172
-3.225	0.009234
-3.220	0.009282
-3.215	0.009322
-3.210	0.009362
-3.205	0.009472
-3.200	0.009616
-3.195	0.009776
-3.190	0.009940
-3.185	0.010038
-3.180	0.010115
-3.175	0.010186
-3.170	0.010335
-3.165	0.010420
-3.160	0.010509
-3.155	0.010578
-3.150	0.010681
-3.145	0.010729
-3.140	0.010777
-3.135	0.010872
-3.130	0.010944
-3.125	0.011048
-3.120	0.011143
-3.115	0.011205
-3.110	0.011299
-3.105	0.011425
-3.100	0.011490
-3.095	0.011538
-3.090	0.011612
-3.085	0.011653
-3.080	0.011720
-3.075	0.011755
-3.070	0.011852
-3.065	0.011975
-3.060	0.012057
-3.055	0.012159
-3.050	0.012236
-3.045	0.012267
-3.040	0.012325
-3.035	0.012371
-3.030	0.012421
-3.025	0.012499
-3.020	0.012635
-3.015	0.012770
-3.010	0.012899
-3.005	0.012957
-3.000	0.013060
-2.995	0.013124
-2.990	0.013170
-2.985	0.013295
-2.980	0.013398
-2.975	0.013456
-2.970	0.013503
-2.965	0.013582
-2.960	0.013700
-2.955	0.013745
-2.950	0.013713
-2.945	0.013745
-2.940	0.013875
-2.935	0.014054
-2.930	0.014189
-2.925	0.014299
-2.920	0.014375
-2.915	0.014419
-2.910	0.014451
-2.905	0.014487
-2.900	0.014571
-2.895	0.014721
-2.890	0.014899
-2.885	0.014984
-2.880	0.015103
-2.875	0.015280
-2.870	0.015384
-2.865	0.015488
-2.860	0.015567
-2.855	0.015664
-2.850	0.015744
-2.845	0.015756
-2.840	0.015771
-2.835	0.015793
-2.830	0.015772
-2.825	0.015680
-2.820	0.015631
-2.815	0.015638
-2.810	0.015734
-2.805	0.015750
-2.800	0.015750
-2.795	0.015770
-2.790	0.015849
-2.785	0.015965
-2.780	0.016053
-2.775	0.016095
-2.770	0.016232
-2.765	0.016360
-2.760	0.016470
-2.755	0.016541
-2.750	0.016541
-2.745	0.016533
-2.740	0.016611
-2.735	0.016709
-2.730	0.016875
-2.725	0.016946
-2.720	0.016901
-2.715	0.016936
-2.710	0.017027
-2.705	0.017060
-2.700	0.017046
-2.695	0.017078
-2.690	0.017216
-2.685	0.017296
-2.680	0.017415
-2.675	0.017542
-2.670	0.017731
-2.665	0.017932
-2.660	0.018017
-2.655	0.018125
-2.650	0.018233
-2.645	0.018307
-2.640	0.018313
-2.635	0.018252
-2.630	0.018244
-2.625	0.018232
-2.620	0.018271
-2.615	0.018226
-2.610	0.018210
-2.605	0.018168
-2.600	0.018174
-2.595	0.018133
-2.590	0.018064
-2.585	0.017969
-2.580	0.017875
-2.575	0.017950
-2.570	0.018080
-2.565	0.018198
-2.560	0.018342
-2.555	0.018492
-2.550	0.018688
-2.545	0.018818
-2.540	0.018861
-2.535	0.018925
-2.530	0.018931
-2.525	0.018904
-2.520	0.018943
-2.515	0.019024
-2.510	0.019042
-2.505	0.019018
-2.500	0.018970
-2.495	0.018934
-2.490	0.018933
-2.485	0.018839
-2.480	0.018859
-2.475	0.018888
-2.470	0.018930
-2.465	0.018891
-2.460	0.018847
-2.455	0.018764
-2.450	0.018742
-2.445	0.018844
-2.440	0.018956
-2.435	0.019071
-2.430	0.019164
-2.425	0.019237
-2.420	0.019366
-2.415	0.019451
-2.410	0.019446
-2.405	0.019520
-2.400	0.019600
-2.395	0.019707
-2.390	0.019794
-2.385	0.019859
-2.380	0.019929
-2.375	0.019973
-2.370	0.020021
-2.365	0.020056
-2.360	0.020045
-2.355	0.019996
-2.350	0.019969
-2.345	0.019947
-2.340	0.019929
-2.335	0.019869
-2.330	0.019822
-2.325	0.019790
-2.320	0.019758
-2.315	0.019725
-2.310	0.019751
-2.305	0.019748
-2.300	0.019733
-2.295	0.019724
-2.290	0.019747
-2.285	0.019768
-2.280	0.019801
-2.275	0.019837
-2.270	0.019815
-2.265	0.019776
-2.260	0.019791
-2.255	0.019793
-2.250	0.019804
-2.245	0.019854
-2.240	0.019893
-2.235	0.019922
-2.230	0.019993
-2.225	0.020032
-2.220	0.020038
-2.215	0.020049
-2.210	0.019999
-2.205	0.019962
-2.200	0.019909
-2.195	0.019883
-2.190	0.019814
-2.185	0.019784
-2.180	0.019770
-2.175	0.019730
-2.170	0.019679
-2.165	0.019641
-2.160	0.019560
-2.155	0.019565
-2.150	0.019598
-2.145	0.019643
-2.140	0.019719
-2.135	0.019801
-2.130	0.019840
-2.125	0.019869
-2.120	0.019906
-2.115	0.020010
-2.110	0.020122
-2.105	0.020213
-2.100	0.020327
-2.095	0.020409
-2.090	0.020455
-2.085	0.020463
-2.080	0.020482
-2.075	0.020463
-2.070	0.020413
-2.065	0.020305
-2.060	0.020196
-2.055	0.020113
-2.050	0.019982
-2.045	0.019942
-2.040	0.019922
-2.035	0.019887
-2.030	0.019892
-2.025	0.019895
-2.020	0.019917
-2.015	0.019939
-2.010	0.019958
-2.005	0.019905
-2.000	0.019905
-1.995	0.019906
-1.990	0.019925
-1.985	0.019929
-1.980	0.019902
-1.975	0.019864
-1.970	0.019834
-1.965	0.019786
-1.960	0.019773
-1.955	0.019815
-1.950	0.019908
-1.945	0.019939
-1.940	0.019956
-1.935	0.020027
-1.930	0.020054
-1.925	0.020088
-1.920	0.020108
-1.915	0.020092
-1.910	0.020047
-1.905	0.019922
-1.900	0.019842
-1.895	0.019707
-1.890	0.019626
-1.885	0.019540
-1.880	0.019515
-1.875	0.019489
-1.870	0.019491
-1.865	0.019439
-1.860	0.019412
-1.855	0.019378
-1.850	0.019310
-1.845	0.019320
-1.840	0.019181
-1.835	0.019132
-1.830	0.019099
-1.825	0.019041
-1.820	0.019020
-1.815	0.019041
-1.810	0.019046
-1.805	0.019044
-1.800	0.019043
-1.795	0.019030
-1.790	0.019036
-1.785	0.019055
-1.780	0.019059
-1.775	0.019119
-1.770	0.019122
-1.765	0.019109
-1.760	0.019176
-1.755	0.019285
-1.750	0.019314
-1.745	0.019272
-1.740	0.019186
-1.735	0.019087
-1.730	0.018913
-1.725	0.018822
-1.720	0.018699
-1.715	0.018642
-1.710	0.018603
-1.705	0.018663
-1.700	0.018658
-1.695	0.018648
-1.690	0.018684
-1.685	0.018691
-1.680	0.018687
-1.675	0.018607
-1.670	0.018593
-1.665	0.018547
-1.660	0.018527
-1.655	0.018480
-1.650	0.018391
-1.645	0.018288
-1.640	0.018199
-1.635	0.018103
-1.630	0.018010
-1.625	0.018010
-1.620	0.017980
-1.615	0.017939
-1.610	0.017919
-1.605	0.017925
-1.600	0.017971
-1.595	0.018020
-1.590	0.018041
-1.585	0.018115
-1.580	0.018141
-1.575	0.018235
-1.570	0.018247
-1.565	0.018316
-1.560	0.018260
-1.555	0.018217
-1.550	0.018158
-1.545	0.018036
-1.540	0.017935
-1.535	0.017817
-1.530	0.017686
-1.525	0.017577
-1.520	0.017563
-1.515	0.017491
-1.510	0.017470
-1.505	0.017395
-1.500	0.017343
-1.495	0.017267
-1.490	0.017175
-1.485	0.017079
-1.480	0.017001
-1.475	0.016876
-1.470	0.016771
-1.465	0.016645
-1.460	0.016547
-1.455	0.016458
-1.450	0.016373
-1.445	0.016280
-1.440	0.016211
-1.435	0.016083
-1.430	0.015996
-1.425	0.015947
-1.420	0.015877
-1.415	0.015839
-1.410	0.015764
-1.405	0.015749
-1.400	0.015668
-1.395	0.015663
-1.390	0.015619
-1.385	0.015623
-1.380	0.015665
-1.375	0.015718
-1.370	0.015820
-1.365	0.015836
-1.360	0.015949
-1.355	0.015963
-1.350	0.015994
-1.345	0.016035
-1.340	0.016016
-1.335	0.016054
-1.330	0.016016
-1.325	0.015951
-1.320	0.015881
-1.315	0.015754
-1.310	0.015683
-1.305	0.015622
-1.300	0.015488
-1.295	0.015404
-1.290	0.015348
-1.285	0.015331
-1.280	0.015303
-1.275	0.015311
-1.270	0.015305
-1.265	0.015275
-1.260	0.015204
-1.255	0.015142
-1.250	0.015092
-1.245	0.015043
-1.240	0.014974
-1.235	0.014972
-1.230	0.014901
-1.225	0.014862
-1.220	0.014825
-1.215	0.014738
-1.210	0.014642
-1.205	0.014586
-1.200	0.014497
-1.195	0.014394
-1.190	0.014297
-1.185	0.014218
-1.180	0.014099
-1.175	0.014032
-1.170	0.013983
-1.165	0.013905
-1.160	0.013827
-1.155	0.013721
-1.150	0.013601
-1.145	0.013592
-1.140	0.013646
-1.135	0.013726
-1.130	0.013695
-1.125	0.013649
-1.120	0.013543
-1.115	0.013501
-1.110	0.013525
-1.105	0.013527
-1.100	0.013508
-1.095	0.013503
-1.090	0.013519
-1.085	0.013581
-1.080	0.013570
-1.075	0.013532
-1.070	0.013555
-1.065	0.013522
-1.060	0.013496
-1.055	0.013437
-1.050	0.013403
-1.045	0.013331
-1.040	0.013278
-1.035	0.013226
-1.030	0.013112
-1.025	0.013083
-1.020	0.013036
-1.015	0.013002
-1.010	0.012960
-1.005	0.012853
-1.000	0.012806
-0.995	0.012736
-0.990	0.012714
-0.985	0.012667
-0.980	0.012600
-0.975	0.012506
-0.970	0.012335
-0.965	0.012249
-0.960	0.012174
-0.955	0.012160
-0.950	0.012105
-0.945	0.012052
-0.940	0.011949
-0.935	0.011877
-0.930	0.011793
-0.925	0.011764
-0.920	0.011722
-0.915	0.011637
-0.910	0.011584
-0.905	0.011502
-0.900	0.011414
-0.895	0.011369
-0.890	0.011232
-0.885	0.011194
-0.880	0.011049
-0.875	0.010968
-0.870	0.010879
-0.865	0.010755
-0.860	0.010644
-0.855	0.010527
-0.850	0.010485
-0.845	0.010385
-0.840	0.010243
-0.835	0.010137
-0.830	0.010026
-0.825	0.009953
-0.820	0.009878
-0.815	0.009816
-0.810	0.009753
-0.805	0.009663
-0.800	0.009628
-0.795	0.009547
-0.790	0.009477
-0.785	0.009450
-0.780	0.009377
-0.775	0.009339
-0.770	0.009316
-0.765	0.009300
-0.760	0.009281
-0.755	0.009219
-0.750	0.009254
-0.745	0.009288
-0.740	0.009288
-0.735	0.009283
-0.730	0.009269
-0.725	0.009249
-0.720	0.009207
-0.715	0.009175
-0.710	0.009199
-0.705	0.009152
-0.700	0.009142
-0.695	0.009162
-0.690	0.009087
-0.685	0.009094
-0.680	0.008983
-0.675	0.008942
-0.670	0.008845
-0.665	0.008785
-0.660	0.008665
-0.655	0.008591
-0.650	0.008467
-0.645	0.008368
-0.640	0.008306
-0.635	0.008174
-0.630	0.008070
-0.625	0.008021
-0.620	0.007878
-0.615	0.007796
-0.610	0.007727
-0.605	0.007659
-0.600	0.007565
-0.595	0.007503
-0.590	0.007426
-0.585	0.007336
-0.580	0.007288
-0.575	0.007240
-0.570	0.007155
-0.565	0.007117
-0.560	0.007089
-0.555	0.007034
-0.550	0.006984
-0.545	0.006958
-0.540	0.006909
-0.535	0.006889
-0.530	0.006826
-0.525	0.006820
-0.520	0.006784
-0.515	0.006731
-0.510	0.006699
-0.505	0.006638
-0.500	0.006587
-0.495	0.006490
-0.490	0.006449
-0.485	0.006380
-0.480	0.006351
-0.475	0.006296
-0.470	0.006213
-0.465	0.006151
-0.460	0.006108
-0.455	0.006012
-0.450	0.005874
-0.445	0.005820
-0.440	0.005720
-0.435	0.005616
-0.430	0.005526
-0.425	0.005429
-0.420	0.005368
-0.415	0.005292
-0.410	0.005217
-0.405	0.005162
-0.400	0.005094
-0.395	0.005006
-0.390	0.004971
-0.385	0.004888
-0.380	0.004821
-0.375	0.004769
-0.370	0.004713
-0.365	0.004623
-0.360	0.004574
-0.355	0.004505
-0.350	0.004490
-0.345	0.004447
-0.340	0.004446
-0.335	0.004426
-0.330	0.004351
-0.325	0.004270
-0.320	0.004162
-0.315	0.004115
-0.310	0.004027
-0.305	0.003965
-0.300	0.003926
-0.295	0.003924
-0.290	0.003843
-0.285	0.003795
-0.280	0.003700
-0.275	0.003645
-0.270	0.003562
-0.265	0.003473
-0.260	0.003397
-0.255	0.003396
-0.250	0.003300
-0.245	0.003239
-0.240	0.003130
-0.235	0.003067
-0.230	0.002977
-0.225	0.002882
-0.220	0.002814
-0.215	0.002765
-0.210	0.002736
-0.205	0.002633
-0.200	0.002505
-0.195	0.002342
-0.190	0.002226
-0.185	0.002123
-0.180	0.002075
-0.175	0.002095
-0.170	0.002127
-0.165	0.002119
-0.160	0.002166
-0.155	0.002213
-0.150	0.002301
-0.145	0.002383
-0.140	0.002439
-0.135	0.002612
-0.130	0.002777
-0.125	0.002915
-0.120	0.002934
-0.115	0.002962
-0.110	0.002950
-0.105	0.002833
-0.100	0.002647
-0.095	0.002346
-0.090	0.002002
-0.085	0.001528
-0.080	0.000870
-0.075	0.000041
-0.070	-0.000844
-0.065	-0.001715
-0.060	-0.002526
-0.055	-0.003289
-0.050	-0.003860
-0.045	-0.004128
-0.040	-0.004181
-0.035	-0.003802
-0.030	-0.002950
-0.025	-0.001695
-0.020	-0.000227
-0.015	0.001385
-0.010	0.003033
-0.005	0.004466
0.000	0.005647
0.005	0.006309
0.010	0.006409
0.015	0.006018
0.020	0.005148
0.025	0.003839
0.030	0.002250
0.035	0.000613
0.040	-0.000926
0.045	-0.002217
0.050	-0.003279
0.055	-0.004040
0.060	-0.004514
0.065	-0.004721
0.070	-0.004550
0.075	-0.004146
0.080	-0.003631
0.085	-0.003171
0.090	-0.002711
0.095	-0.002457
0.100	-0.002327
0.105	-0.002155
0.110	-0.002073
0.115	-0.002039
0.120	-0.001956
0.125	-0.001977
0.130	-0.001901
0.135	-0.001963
0.140	-0.001956
0.145	-0.001970
0.150	-0.002004
0.155	-0.001963
0.160	-0.002032
0.165	-0.002087
0.170	-0.002142
0.175	-0.002128
0.180	-0.002224
0.185	-0.002279
0.190	-0.002375
0.195	-0.002491
0.200	-0.002635
0.205	-0.002655
0.210	-0.002649
0.215	-0.002697
0.220	-0.002773
0.225	-0.002863
0.230	-0.002890
0.235	-0.002917
0.240	-0.002965
0.245	-0.002999
0.250	-0.003089
0.255	-0.003144
0.260	-0.003247
0.265	-0.003350
0.270	-0.003405
0.275	-0.003480
0.280	-0.003569
0.285	-0.003673
0.290	-0.003749
0.295	-0.003858
0.300	-0.003988
0.305	-0.004056
0.310	-0.004146
0.315	-0.004228
0.320	-0.004331
0.325	-0.004386
0.330	-0.004510
0.335	-0.004593
0.340	-0.004709
0.345	-0.004852
0.350	-0.004962
0.355	-0.005018
0.360	-0.005107
0.365	-0.005168
0.370	-0.005284
0.375	-0.005366
0.380	-0.005449
0.385	-0.005518
0.390	-0.005581
0.395	-0.005692
0.400	-0.005766
0.405	-0.005819
0.410	-0.005880
0.415	-0.005948
0.420	-0.005990
0.425	-0.006039
0.430	-0.006134
0.435	-0.006209
0.440	-0.006236
0.445	-0.006244
0.450	-0.006272
0.455	-0.006294
0.460	-0.006342
0.465	-0.006356
0.470	-0.006348
0.475	-0.006410
0.480	-0.006416
0.485	-0.006458
0.490	-0.006452
0.495	-0.006521
0.500	-0.006547
0.505	-0.006588
0.510	-0.006622
0.515	-0.006684
0.520	-0.006719
0.525	-0.006808
0.530	-0.006903
0.535	-0.006944
0.540	-0.007040
0.545	-0.007109
0.550	-0.007246
0.555	-0.007323
0.560	-0.007431
0.565	-0.007491
0.570	-0.007574
0.575	-0.007635
0.580	-0.007738
0.585	-0.007813
0.590	-0.007876
0.595	-0.007933
0.600	-0.008036
0.605	-0.008084
0.610	-0.008131
0.615	-0.008187
0.620	-0.008250
0.625	-0.008252
0.630	-0.008304
0.635	-0.008364
0.640	-0.008363
0.645	-0.008419
0.650	-0.008431
0.655	-0.008452
0.660	-0.008465
0.665	-0.008540
0.670	-0.008533
0.675	-0.008527
0.680	-0.008562
0.685	-0.008578
0.690	-0.008599
0.695	-0.008688
0.700	-0.008719
0.705	-0.008733
0.710	-0.008774
0.715	-0.008823
0.720	-0.008850
0.725	-0.008852
0.730	-0.008913
0.735	-0.008969
0.740	-0.009079
0.745	-0.009168
0.750	-0.009257
0.755	-0.009349
0.760	-0.009411
0.765	-0.009566
0.770	-0.009682
0.775	-0.009826
0.780	-0.009964
0.785	-0.010053
0.790	-0.010205
0.795	-0.010288
0.800	-0.010444
0.805	-0.010548
0.810	-0.010666
0.815	-0.010803
0.820	-0.010908
0.825	-0.011006
0.830	-0.011106
0.835	-0.011229
0.840	-0.011345
0.845	-0.011434
0.850	-0.011550
0.855	-0.011641
0.860	-0.011702
0.865	-0.011745
0.870	-0.011793
0.875	-0.011826
0.880	-0.011866
0.885	-0.011882
0.890	-0.011898
0.895	-0.011925
0.900	-0.011927
0.905	-0.011881
0.910	-0.011859
0.915	-0.011868
0.920	-0.011862
0.925	-0.011837
0.930	-0.011817
0.935	-0.011824
0.940	-0.011865
0.945	-0.011893
0.950	-0.011948
0.955	-0.011976
0.960	-0.012018
0.965	-0.012069
0.970	-0.012158
0.975	-0.012131
0.980	-0.012255
0.985	-0.012270
0.990	-0.012289
0.995	-0.012351
1.000	-0.012401
1.005	-0.012471
1.010	-0.012524
1.015	-0.012586
1.020	-0.012665
1.025	-0.012749
1.030	-0.012808
1.035	-0.012860
1.040	-0.012949
1.045	-0.013004
1.050	-0.013104
1.055	-0.013219
1.060	-0.013315
1.065	-0.013418
1.070	-0.013540
1.075	-0.013601
1.080	-0.013675
1.085	-0.013760
1.090	-0.013878
1.095	-0.013939
1.100	-0.014047
1.105	-0.014125
1.110	-0.014216
1.115	-0.014294
1.120	-0.014349
1.125	-0.014398
1.130	-0.014397
1.135	-0.014445
1.140	-0.014496
1.145	-0.014468
1.150	-0.014544
1.155	-0.014573
1.160	-0.014648
1.165	-0.014665
1.170	-0.014684
1.175	-0.014759
1.180	-0.014791
1.185	-0.014800
1.190	-0.014829
1.195	-0.014847
1.200	-0.014863
1.205	-0.014767
1.210	-0.014676
1.215	-0.014641
1.220	-0.014561
1.225	-0.014488
1.230	-0.014470
1.235	-0.014403
1.240	-0.014404
1.245	-0.014342
1.250	-0.014335
1.255	-0.014316
1.260	-0.014369
1.265	-0.014460
1.270	-0.014563
1.275	-0.014694
1.280	-0.014850
1.285	-0.014982
1.290	-0.015138
1.295	-0.015262
1.300	-0.015362
1.305	-0.015451
1.310	-0.015551
1.315	-0.015669
1.320	-0.015713
1.325	-0.015760
1.330	-0.015814
1.335	-0.015919
1.340	-0.015982
1.345	-0.016065
1.350	-0.016092
1.355	-0.016130
1.360	-0.016170
1.365	-0.016217
1.370	-0.016252
1.375	-0.016275
1.380	-0.016348
1.385	-0.016374
1.390	-0.016371
1.395	-0.016377
1.400	-0.016385
1.405	-0.016412
1.410	-0.016394
1.415	-0.016380
1.420	-0.016420
1.425	-0.016460
1.430	-0.016515
1.435	-0.016536
1.440	-0.016576
1.445	-0.016561
1.450	-0.016599
1.455	-0.016573
1.460	-0.016502
1.465	-0.016472
1.470	-0.016517
1.475	-0.016516
1.480	-0.016572
1.485	-0.016639
1.490	-0.016674
1.495	-0.016761
1.500	-0.016872
1.505	-0.017013
1.510	-0.017158
1.515	-0.017235
1.520	-0.017365
1.525	-0.017495
1.530	-0.017651
1.535	-0.017774
1.540	-0.017873
1.545	-0.017967
1.550	-0.018038
1.555	-0.018156
1.560	-0.018253
1.565	-0.018304
1.570	-0.018364
1.575	-0.018393
1.580	-0.018460
1.585	-0.018473
1.590	-0.018475
1.595	-0.018474
1.600	-0.018504
1.605	-0.018484
1.610	-0.018517
1.615	-0.018590
1.620	-0.018599
1.625	-0.018632
1.630	-0.018610
1.635	-0.018623
1.640	-0.018587
1.645	-0.018546
1.650	-0.018562
1.655	-0.018552
1.660	-0.018500
1.665	-0.018389
1.670	-0.018281
1.675	-0.018160
1.680	-0.018073
1.685	-0.017984
1.690	-0.017929
1.695	-0.017897
1.700	-0.017957
1.705	-0.018060
1.710	-0.018151
1.715	-0.018337
1.720	-0.018486
1.725	-0.018641
1.730	-0.018795
1.735	-0.018923
1.740	-0.018997
1.745	-0.019066
1.750	-0.019119
1.755	-0.019153
1.760	-0.019187
1.765	-0.019216
1.770	-0.019293
1.775	-0.019313
1.780	-0.019279
1.785	-0.019267
1.790	-0.019273
1.795	-0.019253
1.800	-0.019252
1.805	-0.019273
1.810	-0.019272
1.815	-0.019225
1.820	-0.019168
1.825	-0.019120
1.830	-0.019103
1.835	-0.019142
1.840	-0.019152
1.845	-0.019204
1.850	-0.019220
1.855	-0.019189
1.860	-0.019100
1.865	-0.019070
1.870	-0.019039
1.875	-0.019016
1.880	-0.019085
1.885	-0.019054
1.890	-0.019151
1.895	-0.019278
1.900	-0.019328
1.905	-0.019403
1.910	-0.019413
1.915	-0.019483
1.920	-0.019570
1.925	-0.019644
1.930	-0.019699
1.935	-0.019705
1.940	-0.019749
1.945	-0.019749
1.950	-0.019819
1.955	-0.019845
1.960	-0.019879
1.965	-0.019924
1.970	-0.019950
1.975	-0.019950
1.980	-0.020024
1.985	-0.020072
1.990	-0.020087
1.995	-0.020122
2.000	-0.020091
2.005	-0.020065
2.010	-0.020005
2.015	-0.019948
2.020	-0.019876
2.025	-0.019830
2.030	-0.019766
2.035	-0.019709
2.040	-0.019741
2.045	-0.019810
2.050	-0.019866
2.055	-0.019923
2.060	-0.019948
2.065	-0.019963
2.070	-0.019991
2.075	-0.020041
2.080	-0.020032
2.085	-0.020008
2.090	-0.019880
2.095	-0.019776
2.100	-0.019688
2.105	-0.019582
2.110	-0.019586
2.115	-0.019555
2.120	-0.019526
2.125	-0.019570
2.130	-0.019545
2.135	-0.019558
2.140	-0.019587
2.145	-0.019576
2.150	-0.019575
2.155	-0.019655
2.160	-0.019760
2.165	-0.019824
2.170	-0.019861
2.175	-0.019817
2.180	-0.019832
2.185	-0.019806
2.190	-0.019751
2.195	-0.019699
2.200	-0.019627
2.205	-0.019558
2.210	-0.019486
2.215	-0.019404
2.220	-0.019364
2.225	-0.019333
2.230	-0.019319
2.235	-0.019309
2.240	-0.019276
2.245	-0.019243
2.250	-0.019258
2.255	-0.019366
2.260	-0.019387
2.265	-0.019443
2.270	-0.019491
2.275	-0.019597
2.280	-0.019701
2.285	-0.019804
2.290	-0.019882
2.295	-0.019976
2.300	-0.020022
2.305	-0.020059
2.310	-0.020050
2.315	-0.020047
2.320	-0.020084
2.325	-0.020003
2.330	-0.019940
2.335	-0.019845
2.340	-0.019749
2.345	-0.019684
2.350	-0.019667
2.355	-0.019576
2.360	-0.019476
2.365	-0.019417
2.370	-0.019338
2.375	-0.019272
2.380	-0.019160
2.385	-0.019075
2.390	-0.019041
2.395	-0.018977
2.400	-0.018937
2.405	-0.018875
2.410	-0.018843
2.415	-0.018901
2.420	-0.018971
2.425	-0.019044
2.430	-0.019063
2.435	-0.019057
2.440	-0.019042
2.445	-0.019042
2.450	-0.018998
2.455	-0.018886
2.460	-0.018866
2.465	-0.018796
2.470	-0.018743
2.475	-0.018636
2.480	-0.018631
2.485	-0.018569
2.490	-0.018540
2.495	-0.018523
2.500	-0.018540
2.505	-0.018492
2.510	-0.018433
2.515	-0.018345
2.520	-0.018313
2.525	-0.018265
2.530	-0.018253
2.535	-0.018207
2.540	-0.018247
2.545	-0.018288
2.550	-0.018322
2.555	-0.018380
2.560	-0.018400
2.565	-0.018319
2.570	-0.018306
2.575	-0.018261
2.580	-0.018226
2.585	-0.018141
2.590	-0.017982
2.595	-0.017954
2.600	-0.017979
2.605	-0.017927
2.610	-0.017942
2.615	-0.017955
2.620	-0.018007
2.625	-0.017926
2.630	-0.017894
2.635	-0.017788
2.640	-0.017682
2.645	-0.017539
2.650	-0.017379
2.655	-0.017352
2.660	-0.017355
2.665	-0.017302
2.670	-0.017302
2.675	-0.017299
2.680	-0.017241
2.685	-0.017168
2.690	-0.017013
2.695	-0.016921
2.700	-0.016929
2.705	-0.016850
2.710	-0.016786
2.715	-0.016680
2.720	-0.016575
2.725	-0.016470
2.730	-0.016396
2.735	-0.016253
2.740	-0.016088
2.745	-0.015995
2.750	-0.015926
2.755	-0.015784
2.760	-0.015699
2.765	-0.015598
2.770	-0.015571
2.775	-0.015550
2.780	-0.015557
2.785	-0.015549
2.790	-0.015580
2.795	-0.015558
2.800	-0.015533
2.805	-0.015511
2.810	-0.015532
2.815	-0.015546
2.820	-0.015564
2.825	-0.015595
2.830	-0.015554
2.835	-0.015494
2.840	-0.015405
2.845	-0.015334
2.850	-0.015213
2.855	-0.015100
2.860	-0.015034
2.865	-0.014946
2.870	-0.014804
2.875	-0.014563
2.880	-0.014468
2.885	-0.014410
2.890	-0.014303
2.895	-0.014192
2.900	-0.014119
2.905	-0.014076
2.910	-0.013967
2.915	-0.013909
2.920	-0.013862
2.925	-0.013865
2.930	-0.013831
2.935	-0.013714
2.940	-0.013629
2.945	-0.013500
2.950	-0.013390
2.955	-0.013247
2.960	-0.013127
2.965	-0.013027
2.970	-0.012858
2.975	-0.012791
2.980	-0.012745
2.985	-0.012667
2.990	-0.012611
2.995	-0.012513
3.000	-0.012491
3.005	-0.012456
3.010	-0.012408
3.015	-0.012379
3.020	-0.012305
3.025	-0.012127
3.030	-0.012040
3.035	-0.011935
3.040	-0.011873
3.045	-0.011805
3.050	-0.011807
3.055	-0.011731
3.060	-0.011573
3.065	-0.011469
3.070	-0.011384
3.075	-0.011314
3.080	-0.011224
3.085	-0.011056
3.090	-0.011009
3.095	-0.010954
3.100	-0.010811
3.105	-0.010710
3.110	-0.010621
3.115	-0.010571
3.120	-0.010554
3.125	-0.010512
3.130	-0.010443
3.135	-0.010383
3.140	-0.010376
3.145	-0.010219
3.150	-0.010111
3.155	-0.010038
3.160	-0.010023
3.165	-0.009930
3.170	-0.009853
3.175	-0.009793
3.180	-0.009614
3.185	-0.009463
3.190	-0.009271
3.195	-0.009086
3.200	-0.009046
3.205	-0.008977
3.210	-0.008922
3.215	-0.008862
3.220	-0.008783
3.225	-0.008696
3.230	-0.008653
3.235	-0.008632
3.240	-0.008664
3.245	-0.008649
3.250	-0.008654
3.255	-0.008681
3.260	-0.008790
3.265	-0.008784
3.270	-0.008839
3.275	-0.008875
3.280	-0.008926
3.285	-0.008958
3.290	-0.009131
3.295	-0.009371
3.300	-0.009644
3.305	-0.009851
3.310	-0.010145
3.315	-0.010405
3.320	-0.010554
3.325	-0.010631
3.330	-0.010569
3.335	-0.010432
3.340	-0.010303
3.345	-0.010200
3.350	-0.009873
3.355	-0.009257
3.360	-0.008519
3.365	-0.007743
3.370	-0.007025
3.375	-0.005994
3.380	-0.004618
3.385	-0.003193
3.390	-0.002010
3.395	-0.001097
3.400	-0.000473
3.405	-0.000192
3.410	-0.000109
3.415	-0.000109
3.420	-0.000212
3.425	-0.000288
3.430	-0.000350
3.435	-0.000385
3.440	-0.000467
3.445	-0.000454
3.450	-0.000351
3.455	-0.000194
3.460	-0.000002
3.465	0.000286
3.470	0.000628
3.475	0.001019
3.480	0.001403
3.485	0.001939
3.490	0.002487
3.495	0.003033
3.500	0.003627
3.505	0.004257
3.510	0.004893
3.515	0.005606
3.520	0.006230
3.525	0.006883
3.530	0.007445
3.535	0.008041
3.540	0.008527
3.545	0.009021
3.550	0.009447
3.555	0.009861
3.560	0.010202
3.565	0.010582
3.570	0.010857
3.575	0.011118
3.580	0.011311
3.585	0.011573
3.590	0.011690
3.595	0.011849
3.600	0.011994
3.605	0.012167
3.610	0.012288
3.615	0.012430
3.620	0.012582
3.625	0.012762
3.630	0.012894
3.635	0.012972
3.640	0.013103
3.645	0.013235
3.650	0.013332
3.655	0.013476
3.660	0.013523
3.665	0.013621
3.670	0.013771
3.675	0.013888
3.680	0.014051
3.685	0.014158
3.690	0.014331
3.695	0.014479
3.700	0.014614
3.705	0.014739
3.710	0.014882
3.715	0.015008
3.720	0.015227
3.725	0.015372
3.730	0.015579
3.735	0.015751
3.740	0.015921
3.745	0.016106
3.750	0.016296
3.755	0.016543
3.760	0.016730
3.765	0.016991
3.770	0.017199
3.775	0.017392
3.780	0.017646
3.785	0.017875
3.790	0.018148
3.795	0.018388
3.800	0.018606
3.805	0.018875
3.810	0.019160
3.815	0.019433
3.820	0.019691
3.825	0.019963
3.830	0.020275
3.835	0.020597
3.840	0.020938
3.845	0.021325
3.850	0.021671
3.855	0.022009
3.860	0.022398
3.865	0.022746
3.870	0.023108
3.875	0.023471
3.880	0.023863
3.885	0.024212
3.890	0.024673
3.895	0.025123
3.900	0.025572
3.905	0.026052
3.910	0.026609
3.915	0.027158
3.920	0.027708
3.925	0.028313
3.930	0.028891
3.935	0.029539
3.940	0.030240
3.945	0.030945
3.950	0.031798
3.955	0.032662
3.960	0.033665
3.965	0.034702
3.970	0.035950
3.975	0.037296
3.980	0.038824
3.985	0.040562
3.990	0.042424
3.995	0.044555
4.000	0.046869
4.005	0.049377
4.010	0.052031
4.015	0.054698
4.020	0.057283
4.025	0.059622
4.030	0.061516
4.035	0.062984
4.040	0.063900
4.045	0.064140
4.050	0.063565
4.055	0.062030
4.060	0.059482
4.065	0.056147
4.070	0.051619
4.075	0.045879
4.080	0.038928
4.085	0.031098
4.090	0.023004
4.095	0.015307
4.100	0.008512
4.105	0.003038
4.110	-0.000905
4.115	-0.003525
4.120	-0.005216
4.125	-0.006226
4.130	-0.006858
4.135	-0.007222
4.140	-0.007505
4.145	-0.007697
4.150	-0.007870
4.155	-0.008084
4.160	-0.008282
4.165	-0.008438
4.170	-0.008560
4.175	-0.008623
4.180	-0.008693
4.185	-0.008722
4.190	-0.008762
4.195	-0.008781
4.200	-0.008870
4.205	-0.008966
4.210	-0.009035
4.215	-0.008989
4.220	-0.008970
4.225	-0.008922
4.230	-0.008816
4.235	-0.008784
4.240	-0.008838
4.245	-0.008864
4.250	-0.008812
4.255	-0.008825
4.260	-0.008846
4.265	-0.008847
4.270	-0.008962
4.275	-0.009071
4.280	-0.009160
4.285	-0.009196
4.290	-0.009246
4.295	-0.009284
4.300	-0.009318
4.305	-0.009345
4.310	-0.009365
4.315	-0.009338
4.320	-0.009392
4.325	-0.009467
4.330	-0.009471
4.335	-0.009519
4.340	-0.009489
4.345	-0.009531
4.350	-0.009595
4.355	-0.009634
4.360	-0.009661
4.365	-0.009714
4.370	-0.009768
4.375	-0.009810
4.380	-0.009828
4.385	-0.009860
4.390	-0.009901
4.395	-0.009922
4.400	-0.009929
4.405	-0.009890
4.410	-0.009898
4.415	-0.009887
4.420	-0.009895
4.425	-0.009866
4.430	-0.009986
4.435	-0.010083
4.440	-0.010178
4.445	-0.010227
4.450	-0.010296
4.455	-0.010324
4.460	-0.010364
4.465	-0.010391
4.470	-0.010416
4.475	-0.010424
4.480	-0.010458
4.485	-0.010543
4.490	-0.010605
4.495	-0.010610
4.500	-0.010609
4.505	-0.010699
4.510	-0.010800
4.515	-0.010849
4.520	-0.010889
4.525	-0.010912
4.530	-0.010947
4.535	-0.011085
4.540	-0.011126
4.545	-0.011207
4.550	-0.011279
4.555	-0.011383
4.560	-0.011365
4.565	-0.011389
4.570	-0.011340
4.575	-0.011259
4.580	-0.011241
4.585	-0.011304
4.590	-0.011334
4.595	-0.011437
4.600	-0.011455
4.605	-0.011476
4.610	-0.011497
4.615	-0.011542
4.620	-0.011603
4.625	-0.011725
4.630	-0.011758
4.635	-0.011791
4.640	-0.011838
4.645	-0.011922
4.650	-0.011963
4.655	-0.012039
4.660	-0.012190
4.665	-0.012299
4.670	-0.012458
4.675	-0.012652
4.680	-0.012777
4.685	-0.012835
4.690	-0.012882
4.695	-0.012905
4.700	-0.012911
4.705	-0.012887
4.710	-0.012939
4.715	-0.012996
4.720	-0.012958
4.725	-0.012883
4.730	-0.012951
4.735	-0.012966
4.740	-0.013054
4.745	-0.013149
4.750	-0.013225
4.755	-0.013275
4.760	-0.013392
4.765	-0.013487
4.770	-0.013583
4.775	-0.013673
4.780	-0.013728
4.785	-0.013865
4.790	-0.013961
4.795	-0.013975
4.800	-0.013999
4.805	-0.014083
4.810	-0.014156
4.815	-0.014311
4.820	-0.014361
4.825	-0.014463
4.830	-0.014548
4.835	-0.014660
4.840	-0.014802
4.845	-0.014919
4.850	-0.015043
4.855	-0.015173
4.860	-0.015206
4.865	-0.015207
4.870	-0.015163
4.875	-0.015170
4.880	-0.015190
4.885	-0.015325
4.890	-0.015430
4.895	-0.015461
4.900	-0.015583
4.905	-0.015716
4.910	-0.015786
4.915	-0.015854
4.920	-0.015953
4.925	-0.016002
4.930	-0.016111
4.935	-0.016151
4.940	-0.016206
4.945	-0.016309
4.950	-0.016459
4.955	-0.016646
4.960	-0.016835
4.965	-0.016953
4.970	-0.017126
4.975	-0.017279
4.980	-0.017521
4.985	-0.017700
4.990	-0.017828
4.995	-0.018033
5.000	-0.018181
5.005	-0.018292
5.010	-0.018423
5.015	-0.018590
5.020	-0.018785
5.025	-0.018994
5.030	-0.019134
5.035	-0.019270
5.040	-0.019461
5.045	-0.019571
5.050	-0.019760
5.055	-0.019972
5.060	-0.020176
5.065	-0.020387
5.070	-0.020599
5.075	-0.020797
5.080	-0.020945
5.085	-0.021105
5.090	-0.021300
5.095	-0.021466
5.100	-0.021555
5.105	-0.021696
5.110	-0.021846
5.115	-0.022089
5.120	-0.022393
5.125	-0.022683
5.130	-0.023038
5.135	-0.023296
5.140	-0.023583
5.145	-0.023848
5.150	-0.024132
5.155	-0.024489
5.160	-0.024850
5.165	-0.025211
5.170	-0.025528
5.175	-0.025937
5.180	-0.026320
5.185	-0.026775
5.190	-0.027317
5.195	-0.027720
5.200	-0.028219
5.205	-0.028670
5.210	-0.029156
5.215	-0.029700
5.220	-0.030314
5.225	-0.030916
5.230	-0.031496
5.235	-0.032002
5.240	-0.032550
5.245	-0.033146
5.250	-0.033914
5.255	-0.034709
5.260	-0.035561
5.265	-0.036491
5.270	-0.037478
5.275	-0.038538
5.280	-0.039701
5.285	-0.040965
5.290	-0.042497
5.295	-0.044142
5.300	-0.046055
5.305	-0.048192
5.310	-0.050636
5.315	-0.053149
5.320	-0.055839
5.325	-0.058409
5.330	-0.060666
5.335	-0.062670
5.340	-0.063822
5.345	-0.064751
5.350	-0.065219
5.355	-0.064528
5.360	-0.063387
5.365	-0.061565
5.370	-0.058018
5.375	-0.053335
5.380	-0.048496
5.385	-0.043310
5.390	-0.036313
5.395	-0.027384
5.400	-0.018251
5.405	-0.010663
5.410	-0.005362
5.415	-0.002092
5.420	-0.000233
5.425	0.000685
5.430	0.001068
5.435	0.001191
5.440	0.001259
5.445	0.001301
5.450	0.001369
5.455	0.001349
5.460	0.001356
5.465	0.001349
5.470	0.001349
5.475	0.001349
5.480	0.001329
5.485	0.001296
5.490	0.001289
5.495	0.001301
5.500	0.001274
5.505	0.001267
5.510	0.001301
5.515	0.001281
5.520	0.001288
5.525	0.001295
5.530	0.001294
5.535	0.001294
5.540	0.001287
5.545	0.001259
5.550	0.001254
5.555	0.001289
5.560	0.001240
5.565	0.001267
5.570	0.001267
5.575	0.001246
5.580	0.001287
5.585	0.001267
5.590	0.001281
5.595	0.001288
5.600	0.001288
5.605	0.001295
5.610	0.001267
5.615	0.001344
5.620	0.001330
5.625	0.001378
5.630	0.001425
5.635	0.001466
5.640	0.001534
5.645	0.001665
5.650	0.001740
5.655	0.001829
5.660	0.001974
5.665	0.002083
5.670	0.002233
5.675	0.002349
5.680	0.002432
5.685	0.002550
5.690	0.002646
5.695	0.002747
5.700	0.002775
5.705	0.002823
5.710	0.002809
5.715	0.002789
5.720	0.002706
5.725	0.002666
5.730	0.002556
5.735	0.002398
5.740	0.002302
5.745	0.002186
5.750	0.002077
5.755	0.001961
5.760	0.001843
5.765	0.001767
5.770	0.001672
5.775	0.001658
5.780	0.001569
5.785	0.001514
5.790	0.001493
5.795	0.001480
5.800	0.001480
5.805	0.001480
5.810	0.001473
5.815	0.001446
5.820	0.001454
5.825	0.001419
5.830	0.001431
5.835	0.001438
5.840	0.001424
5.845	0.001446
5.850	0.001453
5.855	0.001446
5.860	0.001467
5.865	0.001481
5.870	0.001461
5.875	0.001502
5.880	0.001516
5.885	0.001490
5.890	0.001497
5.895	0.001516
5.900	0.001509
5.905	0.001510
5.910	0.001510
5.915	0.001566
5.920	0.001573
5.925	0.001580
5.930	0.001581
5.935	0.001581
5.940	0.001588
5.945	0.001602
5.950	0.001603
5.955	0.001610
5.960	0.001637
5.965	0.001650
5.970	0.001616
5.975	0.001643
5.980	0.001650
5.985	0.001650
5.990	0.001657
5.995	0.001664
6.000	0.001705
6.005	0.001671
6.010	0.001684
6.015	0.001705
6.020	0.001679
6.025	0.001698
6.030	0.001724
6.035	0.001717
6.040	0.001696
6.045	0.001744
6.050	0.001717
6.055	0.001717
6.060	0.001723
6.065	0.001751
6.070	0.001765
6.075	0.001792
6.080	0.001737
6.085	0.001759
6.090	0.001753
6.095	0.001765
6.100	0.001751
6.105	0.001731
6.110	0.001772
6.115	0.001793
6.120	0.001786
6.125	0.001780
6.130	0.001779
6.135	0.001780
6.140	0.001780
6.145	0.001788
6.150	0.001781
6.155	0.001803
6.160	0.001802
6.165	0.001774
6.170	0.001774
6.175	0.001781
6.180	0.001809
6.185	0.001816
6.190	0.001829
6.195	0.001829
6.200	0.001794
6.205	0.001835
6.210	0.001828
6.215	0.001836
6.220	0.001823
6.225	0.001843
6.230	0.001821
6.235	0.001835
6.240	0.001814
6.245	0.001856
6.250	0.001877
6.255	0.001843
6.260	0.001856
6.265	0.001856
6.270	0.001877
6.275	0.001905
6.280	0.001871
6.285	0.001900
6.290	0.001886
6.295	0.001878
6.300	0.001864
6.305	0.001892
6.310	0.001865
6.315	0.001872
6.320	0.001906
6.325	0.001899
6.330	0.001891
6.335	0.001885
6.340	0.001892
6.345	0.001885
6.350	0.001906
6.355	0.001907
6.360	0.001905
6.365	0.001877
6.370	0.001911
6.375	0.001891
6.380	0.001883
6.385	0.001918
6.390	0.001918
6.395	0.001898
6.400	0.001918
6.405	0.001925
6.410	0.001910
6.415	0.001939
6.420	0.001911
6.425	0.001904
6.430	0.001916
6.435	0.001896
6.440	0.001902
6.445	0.001937
6.450	0.001929
6.455	0.001936
6.460	0.001956
6.465	0.001962
6.470	0.001955
6.475	0.001969
6.480	0.001948
6.485	0.001949
6.490	0.001956
6.495	0.001967
6.500	0.001960
6.505	0.001994
6.510	0.002001
6.515	0.001994
6.520	0.002014
6.525	0.002007
6.530	0.002021
6.535	0.002034
6.540	0.001993
6.545	0.002007
6.550	0.002007
6.555	0.001994
6.560	0.002013
6.565	0.002040
6.570	0.002054
6.575	0.002026
6.580	0.002012
6.585	0.002046
6.590	0.002033
6.595	0.002005
6.600	0.002039
6.605	0.002025
6.610	0.002052
6.615	0.002046
6.620	0.002053
6.625	0.002059
6.630	0.002065
6.635	0.002058
6.640	0.002079
6.645	0.002085
6.650	0.002071
6.655	0.002071
6.660	0.002092
6.665	0.002085
6.670	0.002098
6.675	0.002078
6.680	0.002113
6.685	0.002141
6.690	0.002126
6.695	0.002111
6.700	0.002131
6.705	0.002187
6.710	0.002173
6.715	0.002166
6.720	0.002152
6.725	0.002187
6.730	0.002159
6.735	0.002180
6.740	0.002193
6.745	0.002193
6.750	0.002228
6.755	0.002229
6.760	0.002214
6.765	0.002206
6.770	0.002248
6.775	0.002242
6.780	0.002248
6.785	0.002222
6.790	0.002250
6.795	0.002292
6.800	0.002271
6.805	0.002232
6.810	0.002246
6.815	0.002200
6.820	0.002250
6.825	0.002188
6.830	0.002223
6.835	0.002245
6.840	0.002211
6.845	0.002227
6.850	0.002199
6.855	0.002241
6.860	0.002214
6.865	0.002222
6.870	0.002202
6.875	0.002208
6.880	0.002242
6.885	0.002228
6.890	0.002218
6.895	0.002215
6.900	0.002167
6.905	0.002186
6.910	0.002233
6.915	0.002267
6.920	0.002240
6.925	0.002247
6.930	0.002233
6.935	0.002253
6.940	0.002281
6.945	0.002247
6.950	0.002248
6.955	0.002269
6.960	0.002274
6.965	0.002219
6.970	0.002308
6.975	0.002308
6.980	0.002300
6.985	0.002307
6.990	0.002326
6.995	0.002291
7.000	0.002291
7.005	0.002319
7.010	0.002332
7.015	0.002292
7.020	0.002333
7.025	0.002333
7.030	0.002304
7.035	0.002325
7.040	0.002304
7.045	0.002331
7.050	0.002345
7.055	0.002324
7.060	0.002344
7.065	0.002365
7.070	0.002371
7.075	0.002372
7.080	0.002373
7.085	0.002326
7.090	0.002360
7.095	0.002331
7.100	0.002372
7.105	0.002345
7.110	0.002351
7.115	0.002379
7.120	0.002378
7.125	0.002385
7.130	0.002405
7.135	0.002392
7.140	0.002391
7.145	0.002412
7.150	0.002379
7.155	0.002379
7.160	0.002419
7.165	0.002357
7.170	0.002411
7.175	0.002418
7.180	0.002466
7.185	0.002460
7.190	0.002433
7.195	0.002467
7.200	0.002494
7.205	0.002453
7.210	0.002501
7.215	0.002510
7.220	0.002503
7.225	0.002537
7.230	0.002549
7.235	0.002556
7.240	0.002570
7.245	0.002550
7.250	0.002584
7.255	0.002598
7.260	0.002585
7.265	0.002626
7.270	0.002633
7.275	0.002591
7.280	0.002613
7.285	0.002600
7.290	0.002594
7.295	0.002572
7.300	0.002585
7.305	0.002585
7.310	0.002606
7.315	0.002579
7.320	0.002599
7.325	0.002593
7.330	0.002592
7.335	0.002606
7.340	0.002586
7.345	0.002615
7.350	0.002609
7.355	0.002602
7.360	0.002587
7.365	0.002621
7.370	0.002642
7.375	0.002642
7.380	0.002615
7.385	0.002683
7.390	0.002683
7.395	0.002663
7.400	0.002684
7.405	0.002677
7.410	0.002676
7.415	0.002691
7.420	0.002685
7.425	0.002698
7.430	0.002710
7.435	0.002711
7.440	0.002711
7.445	0.002725
7.450	0.002690
7.455	0.002677
7.460	0.002698
7.465	0.002699
7.470	0.002720
7.475	0.002680
7.480	0.002704
7.485	0.002678
7.490	0.002720
7.495	0.002720
7.500	0.002728
7.505	0.002758
7.510	0.002780
7.515	0.002837
7.520	0.002818
7.525	0.002839
7.530	0.002844
7.535	0.002905
7.540	0.002908
7.545	0.002885
7.550	0.002918
7.555	0.002911
7.560	0.002928
7.565	0.002940
7.570	0.002940
7.575	0.002960
7.580	0.002954
7.585	0.002975
7.590	0.002955
7.595	0.002962
7.600	0.002984
7.605	0.002985
7.610	0.002979
7.615	0.002996
7.620	0.003026
7.625	0.003019
7.630	0.003018
7.635	0.003037
7.640	0.003021
7.645	0.003055
7.650	0.003066
7.655	0.003093
7.660	0.003043
7.665	0.003034
7.670	0.003081
7.675	0.003107
7.680	0.003115
7.685	0.003130
7.690	0.003123
7.695	0.003100
7.700	0.003120
7.705	0.003134
7.710	0.003168
7.715	0.003154
7.720	0.003195
7.725	0.003182
7.730	0.003203
7.735	0.003176
7.740	0.003190
7.745	0.003205
7.750	0.003214
7.755	0.003208
7.760	0.003200
7.765	0.003234
7.770	0.003227
7.775	0.003227
7.780	0.003276
7.785	0.003290
7.790	0.003275
7.795	0.003295
7.800	0.003280
7.805	0.003327
7.810	0.003313
7.815	0.003321
7.820	0.003307
7.825	0.003353
7.830	0.003325
7.835	0.003352
7.840	0.003358
7.845	0.003351
7.850	0.003379
7.855	0.003379
7.860	0.003386
7.865	0.003420
7.870	0.003393
7.875	0.003386
7.880	0.003442
7.885	0.003416
7.890	0.003401
7.895	0.003427
7.900	0.003461
7.905	0.003427
7.910	0.003482
7.915	0.003489
7.920	0.003496
7.925	0.003510
7.930	0.003516
7.935	0.003509
7.940	0.003522
7.945	0.003557
7.950	0.003558
7.955	0.003578
7.960	0.003576
7.965	0.003562
7.970	0.003603
7.975	0.003616
7.980	0.003596
7.985	0.003603
7.990	0.003644
7.995	0.003651
8.000	0.003658
8.005	0.003617
8.010	0.003665
8.015	0.003654
8.020	0.003677
8.025	0.003671
8.030	0.003692
8.035	0.003681
8.040	0.003711
8.045	0.003748
8.050	0.003729
8.055	0.003750
8.060	0.003749
8.065	0.003774
8.070	0.003805
8.075	0.003824
8.080	0.003857
8.085	0.003842
8.090	0.003825
8.095	0.003891
8.100	0.003883
8.105	0.003910
8.110	0.003923
8.115	0.003923
8.120	0.003938
8.125	0.003932
8.130	0.003993
8.135	0.003960
8.140	0.003980
8.145	0.004003
8.150	0.004004
8.155	0.004019
8.160	0.004050
8.165	0.004064
8.170	0.004077
8.175	0.004064
8.180	0.004084
8.185	0.004112
8.190	0.004159
8.195	0.004159
8.200	0.004173
8.205	0.004180
8.210	0.004207
8.215	0.004210
8.220	0.004211
8.225	0.004238
8.230	0.004250
8.235	0.004264
8.240	0.004276
8.245	0.004317
8.250	0.004335
8.255	0.004321
8.260	0.004348
8.265	0.004355
8.270	0.004376
8.275	0.004397
8.280	0.004426
8.285	0.004441
8.290	0.004441
8.295	0.004475
8.300	0.004489
8.305	0.004511
8.310	0.004510
8.315	0.004551
8.320	0.004572
8.325	0.004594
8.330	0.004622
8.335	0.004603
8.340	0.004611
8.345	0.004634
8.350	0.004686
8.355	0.004668
8.360	0.004674
8.365	0.004736
8.370	0.004749
8.375	0.004776
8.380	0.004804
8.385	0.004812
8.390	0.004833
8.395	0.004876
8.400	0.004884
8.405	0.004891
8.410	0.004877
8.415	0.004930
8.420	0.004923
8.425	0.004942
8.430	0.004949
8.435	0.004971
8.440	0.004985
8.445	0.004999
8.450	0.004998
8.455	0.005011
8.460	0.005072
8.465	0.005043
8.470	0.005094
8.475	0.005120
8.480	0.005118
8.485	0.005140
8.490	0.005191
8.495	0.005216
8.500	0.005207
8.505	0.005254
8.510	0.005272
8.515	0.005293
8.520	0.005328
8.525	0.005362
8.530	0.005363
8.535	0.005392
8.540	0.005421
8.545	0.005457
8.550	0.005509
8.555	0.005507
8.560	0.005557
8.565	0.005581
8.570	0.005591
8.575	0.005611
8.580	0.005667
8.585	0.005715
8.590	0.005701
8.595	0.005760
8.600	0.005774
8.605	0.005773
8.610	0.005808
8.615	0.005856
8.620	0.005870
8.625	0.005888
8.630	0.005907
8.635	0.005942
8.640	0.006017
8.645	0.006011
8.650	0.006061
8.655	0.006098
8.660	0.006146
8.665	0.006146
8.670	0.006166
8.675	0.006215
8.680	0.006225
8.685	0.006277
8.690	0.006311
8.695	0.006336
8.700	0.006376
8.705	0.006392
8.710	0.006461
8.715	0.006476
8.720	0.006516
8.725	0.006553
8.730	0.006602
8.735	0.006616
8.740	0.006653
8.745	0.006669
8.750	0.006699
8.755	0.006725
8.760	0.006777
8.765	0.006811
8.770	0.006831
8.775	0.006888
8.780	0.006911
8.785	0.006961
8.790	0.006990
8.795	0.007033
8.800	0.007078
8.805	0.007083
8.810	0.007149
8.815	0.007171
8.820	0.007214
8.825	0.007246
8.830	0.007283
8.835	0.007322
8.840	0.007388
8.845	0.007408
8.850	0.007505
8.855	0.007492
8.860	0.007574
8.865	0.007595
8.870	0.007657
8.875	0.007710
8.880	0.007747
8.885	0.007784
8.890	0.007789
8.895	0.007876
8.900	0.007931
8.905	0.007986
8.910	0.008029
8.915	0.008061
8.920	0.008137
8.925	0.008182
8.930	0.008242
8.935	0.008269
8.940	0.008373
8.945	0.008444
8.950	0.008460
8.955	0.008530
8.960	0.008560
8.965	0.008664
8.970	0.008728
8.975	0.008772
8.980	0.008845
8.985	0.008875
8.990	0.008948
8.995	0.009022
9.000	0.009082
9.005	0.009131
9.010	0.009185
9.015	0.009306
9.020	0.009343
9.025	0.009411
9.030	0.009484
9.035	0.009553
9.040	0.009600
9.045	0.009711
9.050	0.009807
9.055	0.009885
9.060	0.009974
9.065	0.010037
9.070	0.010131
9.075	0.010194
9.080	0.010288
9.085	0.010380
9.090	0.010466
9.095	0.010558
9.100	0.010623
9.105	0.010747
9.110	0.010835
9.115	0.010954
9.120	0.011069
9.125	0.011209
9.130	0.011220
9.135	0.011312
9.140	0.011411
9.145	0.011501
9.150	0.011656
9.155	0.011761
9.160	0.011850
9.165	0.012006
9.170	0.012129
9.175	0.012262
9.180	0.012378
9.185	0.012503
9.190	0.012667
9.195	0.012771
9.200	0.012908
9.205	0.013047
9.210	0.013211
9.215	0.013370
9.220	0.013514
9.225	0.013666
9.230	0.013819
9.235	0.013984
9.240	0.014158
9.245	0.014376
9.250	0.014605
9.255	0.014854
9.260	0.015037
9.265	0.014766
9.270	0.014792
9.275	0.015564
9.280	0.015960
9.285	0.016144
9.290	0.016347
9.295	0.016634
9.300	0.016936
9.305	0.017244
9.310	0.017570
9.315	0.017899
9.320	0.018242
9.325	0.018617
9.330	0.018967
9.335	0.019367
9.340	0.019762
9.345	0.020213
9.350	0.020650
9.355	0.021127
9.360	0.021651
9.365	0.022215
9.370	0.022823
9.375	0.023471
9.380	0.024192
9.385	0.025008
9.390	0.025932
9.395	0.027043
9.400	0.028371
9.405	0.029929
9.410	0.031715
9.415	0.033871
9.420	0.036126
9.425	0.038536
9.430	0.040922
9.435	0.042989
9.440	0.044960
9.445	0.046423
9.450	0.047395
9.455	0.048024
9.460	0.048028
9.465	0.047130
9.470	0.045395
9.475	0.043001
9.480	0.039818
9.485	0.035700
9.490	0.030165
9.495	0.023414
9.500	0.016388
9.505	0.010194
9.510	0.005430
9.515	0.002208
9.520	0.000272
9.525	-0.000774
9.530	-0.001324
9.535	-0.001579
9.540	-0.001696
9.545	-0.001744
9.550	-0.001799
9.555	-0.001868
9.560	-0.001888
9.565	-0.001902
9.570	-0.001902
9.575	-0.001909
9.580	-0.001888
9.585	-0.001916
9.590	-0.001916
9.595	-0.001902
9.600	-0.001923
9.605	-0.001936
9.610	-0.001964
9.615	-0.001936
9.620	-0.001943
9.625	-0.001930
9.630	-0.001971
9.635	-0.001937
9.640	-0.001950
9.645	-0.001943
9.650	-0.001971
9.655	-0.001978
9.660	-0.001978
9.665	-0.002005
9.670	-0.001950
9.675	-0.001944
9.680	-0.001964
9.685	-0.001944
9.690	-0.002005
9.695	-0.001971
9.700	-0.001985
9.705	-0.001944
9.710	-0.001975
9.715	-0.001995
9.720	-0.001995
9.725	-0.001988
9.730	-0.002002
9.735	-0.001988
9.740	-0.001982
9.745	-0.002009
9.750	-0.001988
9.755	-0.002009
9.760	-0.001995
9.765	-0.001968
9.770	-0.001995
9.775	-0.002002
9.780	-0.001995
9.785	-0.001995
9.790	-0.002009
9.795	-0.002009
9.800	-0.002009
9.805	-0.002009
9.810	-0.002009
9.815	-0.002009
9.820	-0.001989
9.825	-0.002003
9.830	-0.002030
9.835	-0.002003
9.840	-0.002003
9.845	-0.002030
9.850	-0.002003
9.855	-0.001982
9.860	-0.002030
9.865	-0.002030
9.870	-0.002017
9.875	-0.002003
9.880	-0.002044
9.885	-0.002017
9.890	-0.002010
9.895	-0.002024
9.900	-0.002024
9.905	-0.002037
9.910	-0.002017
9.915	-0.002031
9.920	-0.002031
9.925	-0.002037
9.930	-0.002038
9.935	-0.002065
9.940	-0.002031
9.945	-0.002038
9.950	-0.002045
9.955	-0.002045
9.960	-0.002031
9.965	-0.002024
9.970	-0.002058
9.975	-0.002052
9.980	-0.002024
9.985	-0.002038
9.990	-0.002045
9.995	-0.002045
10.000	-0.002038
10.005	-0.002031
10.010	-0.002038
10.015	-0.002024
10.020	-0.002066
10.025	-0.002059
10.030	-0.002038
10.035	-0.002052
10.040	-0.002038
10.045	-0.002052
10.050	-0.002031
10.055	-0.002045
10.060	-0.002045
10.065	-0.002059
10.070	-0.002080
10.075	-0.002073
10.080	-0.002080
10.085	-0.002052
10.090	-0.002073
10.095	-0.002107
10.100	-0.002066
10.105	-0.002080
10.110	-0.002059
10.115	-0.002038
10.120	-0.002080
10.125	-0.002080
10.130	-0.002080
10.135	-0.002108
10.140	-0.002066
10.145	-0.002101
10.150	-0.002101
10.155	-0.002052
10.160	-0.002108
10.165	-0.002052
10.170	-0.002080
10.175	-0.002115
10.180	-0.002080
10.185	-0.002087
10.190	-0.002115
10.195	-0.002122
10.200	-0.002080
10.205	-0.002128
10.210	-0.002108
10.215	-0.002094
10.220	-0.002108
10.225	-0.002094
10.230	-0.002122
10.235	-0.002149
10.240	-0.002108
10.245	-0.002115
10.250	-0.002101
10.255	-0.002128
10.260	-0.002122
10.265	-0.002122
10.270	-0.002122
10.275	-0.002135
10.280	-0.002156
10.285	-0.002122
10.290	-0.002122
10.295	-0.002128
10.300	-0.002149
10.305	-0.002122
10.310	-0.002149
10.315	-0.002128
10.320	-0.002156
10.325	-0.002129
10.330	-0.002163
10.335	-0.002163
10.340	-0.002156
10.345	-0.002142
10.350	-0.002142
10.355	-0.002142
10.360	-0.002163
10.365	-0.002170
10.370	-0.002156
10.375	-0.002177
10.380	-0.002156
10.385	-0.002163
10.390	-0.002156
10.395	-0.002156
10.400	-0.002163
10.405	-0.002204
10.410	-0.002184
10.415	-0.002204
10.420	-0.002204
10.425	-0.002163
10.430	-0.002191
10.435	-0.002191
10.440	-0.002191
10.445	-0.002232
10.450	-0.002177
10.455	-0.002198
10.460	-0.002184
10.465	-0.002225
10.470	-0.002232
10.475	-0.002198
10.480	-0.002239
10.485	-0.002246
10.490	-0.002225
10.495	-0.002198
10.500	-0.002204
10.505	-0.002239
10.510	-0.002218
10.515	-0.002225
10.520	-0.002218
10.525	-0.002211
10.530	-0.002253
10.535	-0.002246
10.540	-0.002218
10.545	-0.002253
10.550	-0.002239
10.555	-0.002259
10.560	-0.002266
10.565	-0.002253
10.570	-0.002280
10.575	-0.002232
10.580	-0.002260
10.585	-0.002273
10.590	-0.002253
10.595	-0.002246
10.600	-0.002281
10.605	-0.002267
10.610	-0.002273
10.615	-0.002287
10.620	-0.002280
10.625	-0.002260
10.630	-0.002281
10.635	-0.002267
10.640	-0.002301
10.645	-0.002260
10.650	-0.002287
10.655	-0.002280
10.660	-0.002281
10.665	-0.002322
10.670	-0.002274
10.675	-0.002315
10.680	-0.002315
10.685	-0.002281
10.690	-0.002287
10.695	-0.002274
10.700	-0.002281
10.705	-0.002322
10.710	-0.002308
10.715	-0.002288
10.720	-0.002336
10.725	-0.002281
10.730	-0.002315
10.735	-0.002336
10.740	-0.002336
10.745	-0.002315
10.750	-0.002322
10.755	-0.002329
10.760	-0.002315
10.765	-0.002336
10.770	-0.002336
10.775	-0.002308
10.780	-0.002322
10.785	-0.002329
10.790	-0.002329
10.795	-0.002336
10.800	-0.002343
10.805	-0.002363
10.810	-0.002357
10.815	-0.002370
10.820	-0.002315
10.825	-0.002295
10.830	-0.002343
10.835	-0.002343
10.840	-0.002322
10.845	-0.002370
10.850	-0.002364
10.855	-0.002357
10.860	-0.002323
10.865	-0.002357
10.870	-0.002391
10.875	-0.002357
10.880	-0.002371
10.885	-0.002378
10.890	-0.002378
10.895	-0.002336
10.900	-0.002357
10.905	-0.002378
10.910	-0.002385
10.915	-0.002385
10.920	-0.002364
10.925	-0.002385
10.930	-0.002371
10.935	-0.002385
10.940	-0.002378
10.945	-0.002392
10.950	-0.002385
10.955	-0.002433
10.960	-0.002399
10.965	-0.002371
10.970	-0.002419
10.975	-0.002392
10.980	-0.002371
10.985	-0.002419
10.990	-0.002406
10.995	-0.002433
11.000	-0.002392
11.005	-0.002392
11.010	-0.002406
11.015	-0.002419
11.020	-0.002413
11.025	-0.002399
11.030	-0.002426
11.035	-0.002440
11.040	-0.002399
11.045	-0.002427
11.050	-0.002413
11.055	-0.002413
11.060	-0.002434
11.065	-0.002427
11.070	-0.002427
11.075	-0.002434
11.080	-0.002420
11.085	-0.002440
11.090	-0.002447
11.095	-0.002427
11.100	-0.002441
11.105	-0.002434
11.110	-0.002393
11.115	-0.002441
11.120	-0.002455
11.125	-0.002476
11.130	-0.002434
11.135	-0.002455
11.140	-0.002448
11.145	-0.002469
11.150	-0.002441
11.155	-0.002448
11.160	-0.002469
11.165	-0.002469
11.170	-0.002441
11.175	-0.002455
11.180	-0.002448
11.185	-0.002428
11.190	-0.002448
11.195	-0.002462
11.200	-0.002449
11.205	-0.002483
11.210	-0.002455
11.215	-0.002476
11.220	-0.002442
11.225	-0.002483
11.230	-0.002455
11.235	-0.002483
11.240	-0.002476
11.245	-0.002476
11.250	-0.002462
11.255	-0.002449
11.260	-0.002463
11.265	-0.002490
11.270	-0.002476
11.275	-0.002490
11.280	-0.002456
11.285	-0.002463
11.290	-0.002490
11.295	-0.002483
11.300	-0.002463
11.305	-0.002456
11.310	-0.002483
11.315	-0.002497
11.320	-0.002463
11.325	-0.002483
11.330	-0.002511
11.335	-0.002511
11.340	-0.002504
11.345	-0.002511
11.350	-0.002525
11.355	-0.002483
11.360	-0.002504
11.365	-0.002532
11.370	-0.002511
11.375	-0.002518
11.380	-0.002504
11.385	-0.002504
11.390	-0.002511
11.395	-0.002532
11.400	-0.002518
11.405	-0.002532
11.410	-0.002539
11.415	-0.002552
11.420	-0.002525
11.425	-0.002539
11.430	-0.002532
11.435	-0.002525
11.440	-0.002539
11.445	-0.002539
11.450	-0.002504
11.455	-0.002532
11.460	-0.002532
11.465	-0.002553
11.470	-0.002511
11.475	-0.002559
11.480	-0.002539
11.485	-0.002539
11.490	-0.002594
11.495	-0.002546
11.500	-0.002498
11.505	-0.002546
11.510	-0.002518
11.515	-0.002553
11.520	-0.002560
11.525	-0.002539
11.530	-0.002539
11.535	-0.002574
11.540	-0.002580
11.545	-0.002560
11.550	-0.002546
11.555	-0.002587
11.560	-0.002573
11.565	-0.002560
11.570	-0.002580
11.575	-0.002546
11.580	-0.002580
11.585	-0.002560
11.590	-0.002546
11.595	-0.002560
11.600	-0.002574
11.605	-0.002587
11.610	-0.002574
11.615	-0.002560
11.620	-0.002587
11.625	-0.002560
11.630	-0.002587
11.635	-0.002594
11.640	-0.002567
11.645	-0.002594
11.650	-0.002567
11.655	-0.002594
11.660	-0.002615
11.665	-0.002616
11.670	-0.002595
11.675	-0.002608
11.680	-0.002595
11.685	-0.002629
11.690	-0.002602
11.695	-0.002608
11.700	-0.002636
11.705	-0.002608
11.710	-0.002636
11.715	-0.002629
11.720	-0.002608
11.725	-0.002622
11.730	-0.002650
11.735	-0.002622
11.740	-0.002629
11.745	-0.002609
11.750	-0.002609
11.755	-0.002629
11.760	-0.002643
11.765	-0.002616
11.770	-0.002629
11.775	-0.002643
11.780	-0.002671
11.785	-0.002629
11.790	-0.002643
11.795	-0.002644
11.800	-0.002644
11.805	-0.002650
11.810	-0.002643
11.815	-0.002643
11.820	-0.002623
11.825	-0.002657
11.830	-0.002657
11.835	-0.002637
11.840	-0.002671
11.845	-0.002664
11.850	-0.002650
11.855	-0.002664
11.860	-0.002678
11.865	-0.002665
11.870	-0.002671
11.875	-0.002657
11.880	-0.002650
11.885	-0.002678
11.890	-0.002657
11.895	-0.002657
11.900	-0.002630
11.905	-0.002699
11.910	-0.002685
11.915	-0.002665
11.920	-0.002664
11.925	-0.002685
11.930	-0.002665
11.935	-0.002692
11.940	-0.002699
11.945	-0.002685
11.950	-0.002706
11.955	-0.002692
11.960	-0.002692
11.965	-0.002706
11.970	-0.002727
11.975	-0.002699
11.980	-0.002679
11.985	-0.002699
11.990	-0.002720
11.995	-0.002699
12.000	-0.002707
12.005	-0.002692
12.010	-0.002720
12.015	-0.002692
12.020	-0.002720
12.025	-0.002692
12.030	-0.002713
12.035	-0.002734
12.040	-0.002699
12.045	-0.002699
12.050	-0.002713
12.055	-0.002720
12.060	-0.002721
12.065	-0.002748
12.070	-0.002741
12.075	-0.002720
12.080	-0.002720
12.085	-0.002727
12.090	-0.002748
12.095	-0.002713
12.100	-0.002720
12.105	-0.002741
12.110	-0.002741
12.115	-0.002734
12.120	-0.002775
12.125	-0.002734
12.130	-0.002789
12.135	-0.002762
12.140	-0.002748
12.145	-0.002768
12.150	-0.002789
12.155	-0.002775
12.160	-0.002762
12.165	-0.002782
12.170	-0.002748
12.175	-0.002741
12.180	-0.002789
12.185	-0.002762
12.190	-0.002762
12.195	-0.002762
12.200	-0.002776
12.205	-0.002803
12.210	-0.002782
12.215	-0.002789
12.220	-0.002824
12.225	-0.002789
12.230	-0.002776
12.235	-0.002796
12.240	-0.002762
12.245	-0.002782
12.250	-0.002796
12.255	-0.002768
12.260	-0.002803
12.265	-0.002817
12.270	-0.002789
12.275	-0.002803
12.280	-0.002823
12.285	-0.002803
12.290	-0.002796
12.295	-0.002823
12.300	-0.002803
12.305	-0.002830
12.310	-0.002816
12.315	-0.002830
12.320	-0.002844
12.325	-0.002810
12.330	-0.002824
12.335	-0.002830
12.340	-0.002810
12.345	-0.002796
12.350	-0.002851
12.355	-0.002837
12.360	-0.002837
12.365	-0.002830
12.370	-0.002851
12.375	-0.002858
12.380	-0.002844
12.385	-0.002864
12.390	-0.002858
12.395	-0.002851
12.400	-0.002858
12.405	-0.002851
12.410	-0.002858
12.415	-0.002844
12.420	-0.002857
12.425	-0.002864
12.430	-0.002864
12.435	-0.002885
12.440	-0.002857
12.445	-0.002864
12.450	-0.002857
12.455	-0.002905
12.460	-0.002878
12.465	-0.002892
12.470	-0.002899
12.475	-0.002898
12.480	-0.002878
12.485	-0.002891
12.490	-0.002878
12.495	-0.002885
12.500	-0.002912
12.505	-0.002871
12.510	-0.002864
12.515	-0.002912
12.520	-0.002891
12.525	-0.002905
12.530	-0.002899
12.535	-0.002898
12.540	-0.002912
12.545	-0.002905
12.550	-0.002932
12.555	-0.002919
12.560	-0.002926
12.565	-0.002933
12.570	-0.002932
12.575	-0.002905
12.580	-0.002925
12.585	-0.002932
12.590	-0.002946
12.595	-0.002953
12.600	-0.002912
12.605	-0.002919
12.610	-0.002919
12.615	-0.002953
12.620	-0.002981
12.625	-0.002967
12.630	-0.002953
12.635	-0.002946
12.640	-0.002932
12.645	-0.002953
12.650	-0.002967
12.655	-0.002973
12.660	-0.002953
12.665	-0.002940
12.670	-0.002994
12.675	-0.002966
12.680	-0.002994
12.685	-0.002959
12.690	-0.002987
12.695	-0.002987
12.700	-0.002960
12.705	-0.002967
12.710	-0.002960
12.715	-0.002994
12.720	-0.002973
12.725	-0.002994
12.730	-0.002981
12.735	-0.003008
12.740	-0.002994
12.745	-0.002980
12.750	-0.003008
12.755	-0.003001
12.760	-0.003015
12.765	-0.002980
12.770	-0.002973
12.775	-0.002987
12.780	-0.003021
12.785	-0.002994
12.790	-0.003042
12.795	-0.003029
12.800	-0.003035
12.805	-0.003021
12.810	-0.003014
12.815	-0.003028
12.820	-0.003007
12.825	-0.003021
12.830	-0.003014
12.835	-0.003035
12.840	-0.003056
12.845	-0.003049
12.850	-0.003049
12.855	-0.003042
12.860	-0.003029
12.865	-0.003049
12.870	-0.003056
12.875	-0.003049
12.880	-0.003056
12.885	-0.003056
12.890	-0.003042
12.895	-0.003063
12.900	-0.003063
12.905	-0.003028
12.910	-0.003056
12.915	-0.003063
12.920	-0.003028
12.925	-0.003076
12.930	-0.003063
12.935	-0.003083
12.940	-0.003110
12.945	-0.003062
12.950	-0.003083
12.955	-0.003097
12.960	-0.003097
12.965	-0.003076
12.970	-0.003083
12.975	-0.003097
12.980	-0.003138
12.985	-0.003117
12.990	-0.003097
12.995	-0.003111
13.000	-0.003077
13.005	-0.003117
13.010	-0.003104
13.015	-0.003097
13.020	-0.003083
13.025	-0.003097
13.030	-0.003097
13.035	-0.003138
13.040	-0.003104
13.045	-0.003090
13.050	-0.003111
13.055	-0.003111
13.060	-0.003111
13.065	-0.003138
13.070	-0.003124
13.075	-0.003118
13.080	-0.003124
13.085	-0.003131
13.090	-0.003138
13.095	-0.003131
13.100	-0.003118
13.105	-0.003145
13.110	-0.003145
13.115	-0.003145
13.120	-0.003152
13.125	-0.003132
13.130	-0.003201
13.135	-0.003166
13.140	-0.003152
13.145	-0.003145
13.150	-0.003159
13.155	-0.003173
13.160	-0.003132
13.165	-0.003146
13.170	-0.003187
13.175	-0.003159
13.180	-0.003146
13.185	-0.003159
13.190	-0.003187
13.195	-0.003194
13.200	-0.003167
13.205	-0.003166
13.210	-0.003201
13.215	-0.003187
13.220	-0.003173
13.225	-0.003187
13.230	-0.003187
13.235	-0.003187
13.240	-0.003194
13.245	-0.003188
13.250	-0.003188
13.255	-0.003188
13.260	-0.003209
13.265	-0.003209
13.270	-0.003229
13.275	-0.003195
13.280	-0.003215
13.285	-0.003222
13.290	-0.003236
13.295	-0.003209
13.300	-0.003236
13.305	-0.003223
13.310	-0.003236
13.315	-0.003236
13.320	-0.003243
13.325	-0.003209
13.330	-0.003216
13.335	-0.003264
13.340	-0.003237
13.345	-0.003230
13.350	-0.003223
13.355	-0.003223
13.360	-0.003244
13.365	-0.003237
13.370	-0.003203
13.375	-0.003237
13.380	-0.003244
13.385	-0.003265
13.390	-0.003258
13.395	-0.003299
13.400	-0.003251
13.405	-0.003258
13.410	-0.003292
13.415	-0.003292
13.420	-0.003265
13.425	-0.003251
13.430	-0.003265
13.435	-0.003265
13.440	-0.003293
13.445	-0.003286
13.450	-0.003286
13.455	-0.003272
13.460	-0.003266
13.465	-0.003273
13.470	-0.003300
13.475	-0.003320
13.480	-0.003300
13.485	-0.003299
13.490	-0.003299
13.495	-0.003327
13.500	-0.003293
13.505	-0.003265
13.510	-0.003293
13.515	-0.003314
13.520	-0.003320
13.525	-0.003293
13.530	-0.003328
13.535	-0.003307
13.540	-0.003300
13.545	-0.003320
13.550	-0.003300
13.555	-0.003307
13.560	-0.003327
13.565	-0.003334
13.570	-0.003307
13.575	-0.003334
13.580	-0.003341
13.585	-0.003341
13.590	-0.003362
13.595	-0.003362
13.600	-0.003369
13.605	-0.003341
13.610	-0.003369
13.615	-0.003334
13.620	-0.003362
13.625	-0.003355
13.630	-0.003341
13.635	-0.003389
13.640	-0.003355
13.645	-0.003362
13.650	-0.003341
13.655	-0.003390
13.660	-0.003363
13.665	-0.003383
13.670	-0.003362
13.675	-0.003403
13.680	-0.003376
13.685	-0.003382
13.690	-0.003382
13.695	-0.003396
13.700	-0.003389
13.705	-0.003369
13.710	-0.003362
13.715	-0.003396
13.720	-0.003403
13.725	-0.003424
13.730	-0.003424
13.735	-0.003410
13.740	-0.003396
13.745	-0.003409
13.750	-0.003410
13.755	-0.003416
13.760	-0.003437
13.765	-0.003423
13.770	-0.003396
13.775	-0.003403
13.780	-0.003423
13.785	-0.003416
13.790	-0.003424
13.795	-0.003431
13.800	-0.003417
13.805	-0.003416
13.810	-0.003458
13.815	-0.003444
13.820	-0.003437
13.825	-0.003451
13.830	-0.003457
13.835	-0.003457
13.840	-0.003444
13.845	-0.003458
13.850	-0.003471
13.855	-0.003464
13.860	-0.003451
13.865	-0.003458
13.870	-0.003450
13.875	-0.003478
13.880	-0.003491
13.885	-0.003471
13.890	-0.003471
13.895	-0.003471
13.900	-0.003478
13.905	-0.003471
13.910	-0.003464
13.915	-0.003464
13.920	-0.003505
13.925	-0.003492
13.930	-0.003478
13.935	-0.003505
13.940	-0.003485
13.945	-0.003526
13.950	-0.003505
13.955	-0.003526
13.960	-0.003485
13.965	-0.003512
13.970	-0.003519
13.975	-0.003519
13.980	-0.003498
13.985	-0.003526
13.990	-0.003506
13.995	-0.003526
14.000	-0.003506
14.005	-0.003512
14.010	-0.003519
14.015	-0.003499
14.020	-0.003547
14.025	-0.003526
14.030	-0.003540
14.035	-0.003526
14.040	-0.003533
14.045	-0.003533
14.050	-0.003560
14.055	-0.003554
14.060	-0.003547
14.065	-0.003534
14.070	-0.003567
14.075	-0.003540
14.080	-0.003547
14.085	-0.003547
14.090	-0.003560
14.095	-0.003574
14.100	-0.003560
14.105	-0.003560
14.110	-0.003581
14.115	-0.003567
14.120	-0.003581
14.125	-0.003561
14.130	-0.003561
14.135	-0.003575
14.140	-0.003561
14.145	-0.003561
14.150	-0.003574
14.155	-0.003608
14.160	-0.003588
14.165	-0.003567
14.170	-0.003602
14.175	-0.003622
14.180	-0.003588
14.185	-0.003595
14.190	-0.003596
14.195	-0.003575
14.200	-0.003596
14.205	-0.003602
14.210	-0.003602
14.215	-0.003602
14.220	-0.003595
14.225	-0.003595
14.230	-0.003602
14.235	-0.003609
14.240	-0.003595
14.245	-0.003609
14.250	-0.003609
14.255	-0.003623
14.260	-0.003630
14.265	-0.003644
14.270	-0.003678
14.275	-0.003643
14.280	-0.003602
14.285	-0.003623
14.290	-0.003643
14.295	-0.003650
14.300	-0.003643
14.305	-0.003650
14.310	-0.003650
14.315	-0.003671
14.320	-0.003658
14.325	-0.003672
14.330	-0.003686
14.335	-0.003671
14.340	-0.003671
14.345	-0.003705
14.350	-0.003678
14.355	-0.003671
14.360	-0.003665
14.365	-0.003712
14.370	-0.003699
14.375	-0.003678
14.380	-0.003692
14.385	-0.003671
14.390	-0.003699
14.395	-0.003665
14.400	-0.003713
14.405	-0.003699
14.410	-0.003678
14.415	-0.003699
14.420	-0.003726
14.425	-0.003747
14.430	-0.003747
14.435	-0.003726
14.440	-0.003720
14.445	-0.003734
14.450	-0.003720
14.455	-0.003699
14.460	-0.003727
14.465	-0.003748
14.470	-0.003747
14.475	-0.003761
14.480	-0.003747
14.485	-0.003747
14.490	-0.003768
14.495	-0.003747
14.500	-0.003748
14.505	-0.003755
14.510	-0.003748
14.515	-0.003734
14.520	-0.003768
14.525	-0.003789
14.530	-0.003782
14.535	-0.003789
14.540	-0.003795
14.545	-0.003782
14.550	-0.003782
14.555	-0.003782
14.560	-0.003796
14.565	-0.003796
14.570	-0.003775
14.575	-0.003768
14.580	-0.003775
14.585	-0.003796
14.590	-0.003803
14.595	-0.003817
14.600	-0.003810
14.605	-0.003844
14.610	-0.003824
14.615	-0.003803
14.620	-0.003838
14.625	-0.003810
14.630	-0.003803
14.635	-0.003803
14.640	-0.003817
14.645	-0.003824
14.650	-0.003844
14.655	-0.003810
14.660	-0.003824
14.665	-0.003832
14.670	-0.003858
14.675	-0.003844
14.680	-0.003831
14.685	-0.003838
14.690	-0.003879
14.695	-0.003845
14.700	-0.003852
14.705	-0.003818
14.710	-0.003859
14.715	-0.003873
14.720	-0.003852
14.725	-0.003853
14.730	-0.003901
14.735	-0.003880
14.740	-0.003866
14.745	-0.003859
14.750	-0.003867
14.755	-0.003874
14.760	-0.003887
14.765	-0.003908
14.770	-0.003881
14.775	-0.003908
14.780	-0.003894
14.785	-0.003901
14.790	-0.003908
14.795	-0.003902
14.800	-0.003902
14.805	-0.003942
14.810	-0.003922
14.815	-0.003936
14.820	-0.003916
14.825	-0.003888
14.830	-0.003923
14.835	-0.003909
14.840	-0.003909
14.845	-0.003916
14.850	-0.003930
14.855	-0.003937
14.860	-0.003938
14.865	-0.003972
14.870	-0.003972
14.875	-0.003971
14.880	-0.003951
14.885	-0.003951
14.890	-0.003958
14.895	-0.003972
14.900	-0.003951
14.905	-0.003944
14.910	-0.003958
14.915	-0.003951
14.920	-0.003965
14.925	-0.003979
14.930	-0.003966
14.935	-0.003979
14.940	-0.003979
14.945	-0.003958
14.950	-0.003957
14.955	-0.003958
14.960	-0.003985
14.965	-0.003965
14.970	-0.003999
14.975	-0.003978
14.980	-0.003978
14.985	-0.003999
14.990	-0.003986
14.995	-0.003965
15.000	-0.003993
15.005	-0.004012
15.010	-0.003978
15.015	-0.004012
15.020	-0.003992
15.025	-0.003999
15.030	-0.004026
15.035	-0.004026
15.040	-0.004019
15.045	-0.003992
15.050	-0.003992
15.055	-0.004046
15.060	-0.003999
15.065	-0.004026
15.070	-0.004019
15.075	-0.004046
15.080	-0.004060
15.085	-0.004026
15.090	-0.004033
15.095	-0.004053
15.100	-0.004026
15.105	-0.004047
15.110	-0.004088
15.115	-0.004060
15.120	-0.004040
15.125	-0.004054
15.130	-0.004082
15.135	-0.004095
15.140	-0.004074
15.145	-0.004068
15.150	-0.004088
15.155	-0.004088
15.160	-0.004089
15.165	-0.004082
15.170	-0.004109
15.175	-0.004109
15.180	-0.004081
15.185	-0.004109
15.190	-0.004110
15.195	-0.004096
15.200	-0.004124
15.205	-0.004116
15.210	-0.004123
15.215	-0.004157
15.220	-0.004110
15.225	-0.004130
15.230	-0.004110
15.235	-0.004116
15.240	-0.004130
15.245	-0.004123
15.250	-0.004144
15.255	-0.004131
15.260	-0.004145
15.265	-0.004159
15.270	-0.004152
15.275	-0.004152
15.280	-0.004138
15.285	-0.004152
15.290	-0.004152
15.295	-0.004159
15.300	-0.004186
15.305	-0.004166
15.310	-0.004159
15.315	-0.004173
15.320	-0.004166
15.325	-0.004208
15.330	-0.004208
15.335	-0.004187
15.340	-0.004194
15.345	-0.004201
15.350	-0.004221
15.355	-0.004214
15.360	-0.004215
15.365	-0.004222
15.370	-0.004194
15.375	-0.004215
15.380	-0.004243
15.385	-0.004229
15.390	-0.004230
15.395	-0.004264
15.400	-0.004237
15.405	-0.004257
15.410	-0.004243
15.415	-0.004243
15.420	-0.004222
15.425	-0.004236
15.430	-0.004223
15.435	-0.004223
15.440	-0.004230
15.445	-0.004285
15.450	-0.004236
15.455	-0.004278
15.460	-0.004285
15.465	-0.004292
15.470	-0.004285
15.475	-0.004291
15.480	-0.004264
15.485	-0.004264
15.490	-0.004292
15.495	-0.004271
15.500	-0.004278
15.505	-0.004319
15.510	-0.004278
15.515	-0.004319
15.520	-0.004292
15.525	-0.004327
15.530	-0.004320
15.535	-0.004312
15.540	-0.004333
15.545	-0.004326
15.550	-0.004333
15.555	-0.004312
15.560	-0.004333
15.565	-0.004354
15.570	-0.004326
15.575	-0.004360
15.580	-0.004346
15.585	-0.004326
15.590	-0.004340
15.595	-0.004320
15.600	-0.004333
15.605	-0.004374
15.610	-0.004361
15.615	-0.004200
15.620	-0.004336
15.625	-0.004444
15.630	-0.004426
15.635	-0.004368
15.640	-0.004381
15.645	-0.004401
15.650	-0.004381
15.655	-0.004360
15.660	-0.004423
15.665	-0.004395
15.670	-0.004387
15.675	-0.004435
15.680	-0.004387
15.685	-0.004435
15.690	-0.004415
15.695	-0.004401
15.700	-0.004408
15.705	-0.004380
15.710	-0.004421
15.715	-0.004414
15.720	-0.004414
15.725	-0.004415
15.730	-0.004408
15.735	-0.004428
15.740	-0.004455
15.745	-0.004455
15.750	-0.004435
15.755	-0.004435
15.760	-0.004455
15.765	-0.004434
15.770	-0.004442
15.775	-0.004455
15.780	-0.004476
15.785	-0.004441
15.790	-0.004456
15.795	-0.004449
15.800	-0.004469
15.805	-0.004482
15.810	-0.004469
15.815	-0.004503
15.820	-0.004469
15.825	-0.004496
15.830	-0.004476
15.835	-0.004490
15.840	-0.004504
15.845	-0.004510
15.850	-0.004482
15.855	-0.004483
15.860	-0.004504
15.865	-0.004517
15.870	-0.004495
15.875	-0.004475
15.880	-0.004530
15.885	-0.004536
15.890	-0.004523
15.895	-0.004516
15.900	-0.004551
15.905	-0.004537
15.910	-0.004524
15.915	-0.004551
15.920	-0.004545
15.925	-0.004559
15.930	-0.004559
15.935	-0.004545
15.940	-0.004565
15.945	-0.004578
15.950	-0.004572
15.955	-0.004586
15.960	-0.004551
15.965	-0.004572
15.970	-0.004565
15.975	-0.004572
15.980	-0.004572
15.985	-0.004564
15.990	-0.004599
15.995	-0.004621
16.000	-0.004607
16.005	-0.004586
16.010	-0.004627
16.015	-0.004634
16.020	-0.004613
16.025	-0.004599
16.030	-0.004599
16.035	-0.004627
16.040	-0.004599
16.045	-0.004620
16.050	-0.004621
16.055	-0.004628
16.060	-0.004622
16.065	-0.004670
16.070	-0.004648
16.075	-0.004627
16.080	-0.004669
16.085	-0.004655
16.090	-0.004621
16.095	-0.004696
16.100	-0.004683
16.105	-0.004689
16.110	-0.004697
16.115	-0.004669
16.120	-0.004690
16.125	-0.004704
16.130	-0.004705
16.135	-0.004703
16.140	-0.004690
16.145	-0.004669
16.150	-0.004690
16.155	-0.004717
16.160	-0.004738
16.165	-0.004696
16.170	-0.004703
16.175	-0.004724
16.180	-0.004703
16.185	-0.004724
16.190	-0.004752
16.195	-0.004732
16.200	-0.004725
16.205	-0.004731
16.210	-0.004752
16.215	-0.004745
16.220	-0.004766
16.225	-0.004766
16.230	-0.004738
16.235	-0.004766
16.240	-0.004759
16.245	-0.004725
16.250	-0.004773
16.255	-0.004766
16.260	-0.004781
16.265	-0.004795
16.270	-0.004807
16.275	-0.004807
16.280	-0.004793
16.285	-0.004801
16.290	-0.004801
16.295	-0.004787
16.300	-0.004801
16.305	-0.004780
16.310	-0.004815
16.315	-0.004815
16.320	-0.004808
16.325	-0.004823
16.330	-0.004865
16.335	-0.004822
16.340	-0.004836
16.345	-0.004849
16.350	-0.004829
16.355	-0.004850
16.360	-0.004850
16.365	-0.004829
16.370	-0.004843
16.375	-0.004857
16.380	-0.004864
16.385	-0.004870
16.390	-0.004892
16.395	-0.004879
16.400	-0.004885
16.405	-0.004891
16.410	-0.004919
16.415	-0.004905
16.420	-0.004892
16.425	-0.004899
16.430	-0.004892
16.435	-0.004892
16.440	-0.004885
16.445	-0.004912
16.450	-0.004913
16.455	-0.004920
16.460	-0.004921
16.465	-0.004934
16.470	-0.004920
16.475	-0.004940
16.480	-0.004934
16.485	-0.004940
16.490	-0.004940
16.495	-0.004933
16.500	-0.004953
16.505	-0.004953
16.510	-0.004946
16.515	-0.004988
16.520	-0.004953
16.525	-0.004967
16.530	-0.004989
16.535	-0.004974
16.540	-0.004974
16.545	-0.004966
16.550	-0.005001
16.555	-0.004966
16.560	-0.005008
16.565	-0.004980
16.570	-0.005022
16.575	-0.004980
16.580	-0.004973
16.585	-0.005008
16.590	-0.005016
16.595	-0.005043
16.600	-0.005009
16.605	-0.005035
16.610	-0.005035
16.615	-0.005022
16.620	-0.005023
16.625	-0.005029
16.630	-0.005077
16.635	-0.005042
16.640	-0.005050
16.645	-0.005022
16.650	-0.005036
16.655	-0.005064
16.660	-0.005045
16.665	-0.005099
16.670	-0.005058
16.675	-0.005064
16.680	-0.005098
16.685	-0.005064
16.690	-0.005092
16.695	-0.005092
16.700	-0.005127
16.705	-0.005085
16.710	-0.005085
16.715	-0.005134
16.720	-0.005121
16.725	-0.005129
16.730	-0.005108
16.735	-0.005148
16.740	-0.005141
16.745	-0.005114
16.750	-0.005150
16.755	-0.005143
16.760	-0.005164
16.765	-0.005163
16.770	-0.005171
16.775	-0.005164
16.780	-0.005157
16.785	-0.005164
16.790	-0.005193
16.795	-0.005187
16.800	-0.005200
16.805	-0.005179
16.810	-0.005220
16.815	-0.005193
16.820	-0.005201
16.825	-0.005215
16.830	-0.005208
16.835	-0.005208
16.840	-0.005256
16.845	-0.005249
16.850	-0.005222
16.855	-0.005237
16.860	-0.005239
16.865	-0.005280
16.870	-0.005245
16.875	-0.005266
16.880	-0.005252
16.885	-0.005308
16.890	-0.005254
16.895	-0.005268
16.900	-0.005275
16.905	-0.005268
16.910	-0.005315
16.915	-0.005329
16.920	-0.005295
16.925	-0.005310
16.930	-0.005296
16.935	-0.005316
16.940	-0.005329
16.945	-0.005309
16.950	-0.005337
16.955	-0.005344
16.960	-0.005316
16.965	-0.005350
16.970	-0.005329
16.975	-0.005349
16.980	-0.005328
16.985	-0.005343
16.990	-0.005371
16.995	-0.005364
17.000	-0.005357
17.005	-0.005350
17.010	-0.005371
17.015	-0.005404
17.020	-0.005398
17.025	-0.005390
17.030	-0.005363
17.035	-0.005404
17.040	-0.005417
17.045	-0.005403
17.050	-0.005410
17.055	-0.005417
17.060	-0.005431
17.065	-0.005438
17.070	-0.005416
17.075	-0.005402
17.080	-0.005484
17.085	-0.005443
17.090	-0.005423
17.095	-0.005430
17.100	-0.005465
17.105	-0.005437
17.110	-0.005437
17.115	-0.005464
17.120	-0.005438
17.125	-0.005479
17.130	-0.005472
17.135	-0.005456
17.140	-0.005449
17.145	-0.005491
17.150	-0.005471
17.155	-0.005492
17.160	-0.005485
17.165	-0.005512
17.170	-0.005478
17.175	-0.005505
17.180	-0.005511
17.185	-0.005511
17.190	-0.005485
17.195	-0.005519
17.200	-0.005526
17.205	-0.005559
17.210	-0.005531
17.215	-0.005552
17.220	-0.005580
17.225	-0.005546
17.230	-0.005540
17.235	-0.005539
17.240	-0.005546
17.245	-0.005573
17.250	-0.005567
17.255	-0.005561
17.260	-0.005603
17.265	-0.005603
17.270	-0.005601
17.275	-0.005615
17.280	-0.005609
17.285	-0.005622
17.290	-0.005615
17.295	-0.005629
17.300	-0.005616
17.305	-0.005629
17.310	-0.005601
17.315	-0.005615
17.320	-0.005616
17.325	-0.005645
17.330	-0.005686
17.335	-0.005684
17.340	-0.005644
17.345	-0.005650
17.350	-0.005658
17.355	-0.005692
17.360	-0.005671
17.365	-0.005671
17.370	-0.005664
17.375	-0.005692
17.380	-0.005672
17.385	-0.005713
17.390	-0.005707
17.395	-0.005701
17.400	-0.005721
17.405	-0.005706
17.410	-0.005741
17.415	-0.005734
17.420	-0.005740
17.425	-0.005761
17.430	-0.005740
17.435	-0.005753
17.440	-0.005767
17.445	-0.005760
17.450	-0.005733
17.455	-0.005768
17.460	-0.005776
17.465	-0.005761
17.470	-0.005774
17.475	-0.005780
17.480	-0.005808
17.485	-0.005773
17.490	-0.005801
17.495	-0.005801
17.500	-0.005787
17.505	-0.005808
17.510	-0.005794
17.515	-0.005807
17.520	-0.005843
17.525	-0.005837
17.530	-0.005844
17.535	-0.005815
17.540	-0.005863
17.545	-0.005856
17.550	-0.005864
17.555	-0.005864
17.560	-0.005878
17.565	-0.005857
17.570	-0.005878
17.575	-0.005843
17.580	-0.005891
17.585	-0.005891
17.590	-0.005913
17.595	-0.005914
17.600	-0.005926
17.605	-0.005918
17.610	-0.005945
17.615	-0.005932
17.620	-0.005932
17.625	-0.005932
17.630	-0.005925
17.635	-0.005939
17.640	-0.005959
17.645	-0.005925
17.650	-0.005960
17.655	-0.006003
17.660	-0.005962
17.665	-0.006002
17.670	-0.005987
17.675	-0.006008
17.680	-0.005993
17.685	-0.006021
17.690	-0.005994
17.695	-0.006027
17.700	-0.006048
17.705	-0.006041
17.710	-0.006042
17.715	-0.006054
17.720	-0.006068
17.725	-0.006055
17.730	-0.006055
17.735	-0.006095
17.740	-0.006081
17.745	-0.006088
17.750	-0.006101
17.755	-0.006108
17.760	-0.006121
17.765	-0.006095
17.770	-0.006087
17.775	-0.006107
17.780	-0.006121
17.785	-0.006127
17.790	-0.006122
17.795	-0.006199
17.800	-0.006141
17.805	-0.006161
17.810	-0.006133
17.815	-0.006154
17.820	-0.006147
17.825	-0.006174
17.830	-0.006160
17.835	-0.006193
17.840	-0.006207
17.845	-0.006180
17.850	-0.006207
17.855	-0.006214
17.860	-0.006194
17.865	-0.006228
17.870	-0.006227
17.875	-0.006253
17.880	-0.006240
17.885	-0.006239
17.890	-0.006273
17.895	-0.006232
17.900	-0.006252
17.905	-0.006245
17.910	-0.006253
17.915	-0.006280
17.920	-0.006280
17.925	-0.006309
17.930	-0.006309
17.935	-0.006314
17.940	-0.006294
17.945	-0.006321
17.950	-0.006321
17.955	-0.006281
17.960	-0.006343
17.965	-0.006343
17.970	-0.006363
17.975	-0.006335
17.980	-0.006343
17.985	-0.006385
17.990	-0.006379
17.995	-0.006393
18.000	-0.006384
18.005	-0.006397
18.010	-0.006425
18.015	-0.006418
18.020	-0.006406
18.025	-0.006426
18.030	-0.006433
18.035	-0.006440
18.040	-0.006428
18.045	-0.006455
18.050	-0.006448
18.055	-0.006463
18.060	-0.006456
18.065	-0.006442
18.070	-0.006442
18.075	-0.006483
18.080	-0.006496
18.085	-0.006496
18.090	-0.006470
18.095	-0.006498
18.100	-0.006491
18.105	-0.006483
18.110	-0.006483
18.115	-0.006510
18.120	-0.006538
18.125	-0.006533
18.130	-0.006513
18.135	-0.006517
18.140	-0.006578
18.145	-0.006543
18.150	-0.006550
18.155	-0.006551
18.160	-0.006573
18.165	-0.006552
18.170	-0.006593
18.175	-0.006579
18.180	-0.006599
18.185	-0.006594
18.190	-0.006596
18.195	-0.006597
18.200	-0.006622
18.205	-0.006635
18.210	-0.006614
18.215	-0.006635
18.220	-0.006657
18.225	-0.006650
18.230	-0.006691
18.235	-0.006691
18.240	-0.006671
18.245	-0.006691
18.250	-0.006678
18.255	-0.006728
18.260	-0.006722
18.265	-0.006734
18.270	-0.006746
18.275	-0.006712
18.280	-0.006754
18.285	-0.006733
18.290	-0.006747
18.295	-0.006775
18.300	-0.006775
18.305	-0.006740
18.310	-0.006781
18.315	-0.006788
18.320	-0.006776
18.325	-0.006804
18.330	-0.006777
18.335	-0.006803
18.340	-0.006817
18.345	-0.006823
18.350	-0.006858
18.355	-0.006823
18.360	-0.006844
18.365	-0.006850
18.370	-0.006837
18.375	-0.006863
18.380	-0.006858
18.385	-0.006878
18.390	-0.006880
18.395	-0.006915
18.400	-0.006927
18.405	-0.006933
18.410	-0.006940
18.415	-0.006913
18.420	-0.006927
18.425	-0.006941
18.430	-0.006956
18.435	-0.006955
18.440	-0.006949
18.445	-0.006983
18.450	-0.006969
18.455	-0.006992
18.460	-0.006987
18.465	-0.007013
18.470	-0.007005
18.475	-0.007020
18.480	-0.007040
18.485	-0.007047
18.490	-0.007028
18.495	-0.007008
18.500	-0.007070
18.505	-0.007084
18.510	-0.007056
18.515	-0.007091
18.520	-0.007078
18.525	-0.007059
18.530	-0.007108
18.535	-0.007099
18.540	-0.007099
18.545	-0.007126
18.550	-0.007121
18.555	-0.007128
18.560	-0.007122
18.565	-0.007169
18.570	-0.007141
18.575	-0.007156
18.580	-0.007156
18.585	-0.007192
18.590	-0.007193
18.595	-0.007172
18.600	-0.007198
18.605	-0.007204
18.610	-0.007220
18.615	-0.007198
18.620	-0.007233
18.625	-0.007239
18.630	-0.007246
18.635	-0.007225
18.640	-0.007275
18.645	-0.007267
18.650	-0.007282
18.655	-0.007277
18.660	-0.007312
18.665	-0.007304
18.670	-0.007323
18.675	-0.007343
18.680	-0.007323
18.685	-0.007351
18.690	-0.007366
18.695	-0.007366
18.700	-0.007360
18.705	-0.007374
18.710	-0.007394
18.715	-0.007387
18.720	-0.007374
18.725	-0.007444
18.730	-0.007389
18.735	-0.007429
18.740	-0.007409
18.745	-0.007442
18.750	-0.007462
18.755	-0.007463
18.760	-0.007463
18.765	-0.007477
18.770	-0.007485
18.775	-0.007491
18.780	-0.007490
18.785	-0.007512
18.790	-0.007512
18.795	-0.007520
18.800	-0.007533
18.805	-0.007553
18.810	-0.007540
18.815	-0.007575
18.820	-0.007576
18.825	-0.007603
18.830	-0.007583
18.835	-0.007589
18.840	-0.007596
18.845	-0.007632
18.850	-0.007645
18.855	-0.007640
18.860	-0.007641
18.865	-0.007641
18.870	-0.007662
18.875	-0.007691
18.880	-0.007672
18.885	-0.007706
18.890	-0.007685
18.895	-0.007714
18.900	-0.007703
18.905	-0.007724
18.910	-0.007731
18.915	-0.007750
18.920	-0.007732
18.925	-0.007762
18.930	-0.007791
18.935	-0.007779
18.940	-0.007797
18.945	-0.007796
18.950	-0.007763
18.955	-0.007819
18.960	-0.007840
18.965	-0.007805
18.970	-0.007861
18.975	-0.007813
18.980	-0.007875
18.985	-0.007833
18.990	-0.007895
18.995	-0.007872
19.000	-0.007888
19.005	-0.007935
19.010	-0.007914
19.015	-0.007914
19.020	-0.007922
19.025	-0.007922
19.030	-0.007943
19.035	-0.007970
19.040	-0.008004
19.045	-0.008010
19.050	-0.007995
19.055	-0.008003
19.060	-0.008032
19.065	-0.008044
19.070	-0.008044
19.075	-0.008029
19.080	-0.008091
19.085	-0.008070
19.090	-0.008112
19.095	-0.008098
19.100	-0.008078
19.105	-0.008138
19.110	-0.008132
19.115	-0.008118
19.120	-0.008148
19.125	-0.008170
19.130	-0.008198
19.135	-0.008188
19.140	-0.008209
19.145	-0.008237
19.150	-0.008211
19.155	-0.008238
19.160	-0.008265
19.165	-0.008271
19.170	-0.008243
19.175	-0.008291
19.180	-0.008293
19.185	-0.008280
19.190	-0.008289
19.195	-0.008359
19.200	-0.008344
19.205	-0.008372
19.210	-0.008380
19.215	-0.008388
19.220	-0.008432
19.225	-0.008433
19.230	-0.008450
19.235	-0.008450
19.240	-0.008457
19.245	-0.008466
19.250	-0.008481
19.255	-0.008463
19.260	-0.008492
19.265	-0.008537
19.270	-0.008530
19.275	-0.008536
19.280	-0.008564
19.285	-0.008571
19.290	-0.008583
19.295	-0.008570
19.300	-0.008543
19.305	-0.008584
19.310	-0.008619
19.315	-0.008596
19.320	-0.008617
19.325	-0.008659
19.330	-0.008657
19.335	-0.008654
19.340	-0.008641
19.345	-0.008689
19.350	-0.008688
19.355	-0.008687
19.360	-0.008692
19.365	-0.008739
19.370	-0.008725
19.375	-0.008710
19.380	-0.008759
19.385	-0.008787
19.390	-0.008796
19.395	-0.008809
19.400	-0.008812
19.405	-0.008798
19.410	-0.008813
19.415	-0.008855
19.420	-0.008863
19.425	-0.008890
19.430	-0.008896
19.435	-0.008888
19.440	-0.008929
19.445	-0.008956
19.450	-0.008934
19.455	-0.008957
19.460	-0.008952
19.465	-0.008998
19.470	-0.009025
19.475	-0.009038
19.480	-0.009038
19.485	-0.009038
19.490	-0.009033
19.495	-0.009088
19.500	-0.009087
19.505	-0.009088
19.510	-0.009125
19.515	-0.009111
19.520	-0.009135
19.525	-0.009158
19.530	-0.009137
19.535	-0.009191
19.540	-0.009213
19.545	-0.009192
19.550	-0.009241
19.555	-0.009234
19.560	-0.009255
19.565	-0.009261
19.570	-0.009296
19.575	-0.009283
19.580	-0.009304
19.585	-0.009319
19.590	-0.009372
19.595	-0.009379
19.600	-0.009370
19.605	-0.009376
19.610	-0.009382
19.615	-0.009424
19.620	-0.009412
19.625	-0.009426
19.630	-0.009448
19.635	-0.009454
19.640	-0.009452
19.645	-0.009494
19.650	-0.009522
19.655	-0.009530
19.660	-0.009567
19.665	-0.009567
19.670	-0.009596
19.675	-0.009582
19.680	-0.009571
19.685	-0.009606
19.690	-0.009647
19.695	-0.009661
19.700	-0.009636
19.705	-0.009658
19.710	-0.009699
19.715	-0.009719
19.720	-0.009743
19.725	-0.009746
19.730	-0.009760
19.735	-0.009814
19.740	-0.009773
19.745	-0.009833
19.750	-0.009888
19.755	-0.009874
19.760	-0.009890
19.765	-0.009891
19.770	-0.009897
19.775	-0.009915
19.780	-0.009930
19.785	-0.009954
19.790	-0.009973
19.795	-0.009989
19.800	-0.010014
19.805	-0.010062
19.810	-0.010084
19.815	-0.010077
19.820	-0.010125
19.825	-0.010134
19.830	-0.010150
19.835	-0.010185
19.840	-0.010191
19.845	-0.010191
19.850	-0.010226
19.855	-0.010249
19.860	-0.010265
19.865	-0.010326
19.870	-0.010330
19.875	-0.010314
19.880	-0.010340
19.885	-0.010365
19.890	-0.010372
19.895	-0.010383
19.900	-0.010431
19.905	-0.010449
19.910	-0.010427
19.915	-0.010466
19.920	-0.010502
19.925	-0.010516
19.930	-0.010539
19.935	-0.010555
19.940	-0.010583
19.945	-0.010624
19.950	-0.010631
19.955	-0.010659
19.960	-0.010672
19.965	-0.010699
19.970	-0.010698
19.975	-0.010711
19.980	-0.010779
19.985	-0.010779
19.990	-0.010829
19.995	-0.010829
20.000	-0.010860
20.005	-0.010872
20.010	-0.010894
20.015	-0.010948
20.020	-0.010929
20.025	-0.010990
20.030	-0.010985
20.035	-0.011040
20.040	-0.011042
20.045	-0.011062
20.050	-0.011069
20.055	-0.011128
20.060	-0.011137
20.065	-0.011182
20.070	-0.011211
20.075	-0.011205
20.080	-0.011228
20.085	-0.011242
20.090	-0.011298
20.095	-0.011318
20.100	-0.011313
20.105	-0.011401
20.110	-0.011387
20.115	-0.011414
20.120	-0.011437
20.125	-0.011467
20.130	-0.011483
20.135	-0.011522
20.140	-0.011564
20.145	-0.011576
20.150	-0.011590
20.155	-0.011591
20.160	-0.011635
20.165	-0.011651
20.170	-0.011687
20.175	-0.011714
20.180	-0.011764
20.185	-0.011802
20.190	-0.011820
20.195	-0.011834
20.200	-0.011862
20.205	-0.011891
20.210	-0.011921
20.215	-0.011948
20.220	-0.011952
20.225	-0.012011
20.230	-0.012037
20.235	-0.012066
20.240	-0.012052
20.245	-0.012114
20.250	-0.012158
20.255	-0.012164
20.260	-0.012200
20.265	-0.012222
20.270	-0.012220
20.275	-0.012315
20.280	-0.012328
20.285	-0.012342
20.290	-0.012376
20.295	-0.012369
20.300	-0.012441
20.305	-0.012459
20.310	-0.012481
20.315	-0.012554
20.320	-0.012586
20.325	-0.012602
20.330	-0.012637
20.335	-0.012636
20.340	-0.012708
20.345	-0.012727
20.350	-0.012797
20.355	-0.012821
20.360	-0.012834
20.365	-0.012861
20.370	-0.012890
20.375	-0.012957
20.380	-0.012980
20.385	-0.013012
20.390	-0.013081
20.395	-0.013091
20.400	-0.013113
20.405	-0.013183
20.410	-0.013197
20.415	-0.013222
20.420	-0.013285
20.425	-0.013312
20.430	-0.013333
20.435	-0.013387
20.440	-0.013420
20.445	-0.013508
20.450	-0.013507
20.455	-0.013590
20.460	-0.013595
20.465	-0.013642
20.470	-0.013732
20.475	-0.013761
20.480	-0.013806
20.485	-0.013877
20.490	-0.013920
20.495	-0.013942
20.500	-0.014053
20.505	-0.014063
20.510	-0.014059
20.515	-0.014105
20.520	-0.014109
20.525	-0.014173
20.530	-0.014181
20.535	-0.014280
20.540	-0.014303
20.545	-0.014377
20.550	-0.014405
20.555	-0.014443
20.560	-0.014485
20.565	-0.014537
20.570	-0.014572
20.575	-0.014618
20.580	-0.014654
20.585	-0.014665
20.590	-0.014750
20.595	-0.014782
20.600	-0.014810
20.605	-0.014905
20.610	-0.014937
20.615	-0.014979
20.620	-0.015037
20.625	-0.015137
20.630	-0.015198
20.635	-0.015229
20.640	-0.015317
20.645	-0.015376
20.650	-0.015418
20.655	-0.015494
20.660	-0.015550
20.665	-0.015646
20.670	-0.015659
20.675	-0.015716
20.680	-0.015810
20.685	-0.015833
20.690	-0.015931
20.695	-0.015978
20.700	-0.016015
20.705	-0.016106
20.710	-0.016189
20.715	-0.016252
20.720	-0.016332
20.725	-0.016391
20.730	-0.016420
20.735	-0.016498
20.740	-0.016574
20.745	-0.016615
20.750	-0.016671
20.755	-0.016792
20.760	-0.016892
20.765	-0.016962
20.770	-0.017057
20.775	-0.017144
20.780	-0.017264
20.785	-0.017328
20.790	-0.017418
20.795	-0.017505
20.800	-0.017609
20.805	-0.017690
20.810	-0.017749
20.815	-0.017843
20.820	-0.017962
20.825	-0.018044
20.830	-0.018152
20.835	-0.018237
20.840	-0.018370
20.845	-0.018440
20.850	-0.018533
20.855	-0.018614
20.860	-0.018703
20.865	-0.018814
20.870	-0.018917
20.875	-0.019076
20.880	-0.019189
20.885	-0.019315
20.890	-0.019391
20.895	-0.019492
20.900	-0.019587
20.905	-0.019716
20.910	-0.019746
20.915	-0.019804
20.920	-0.019957
20.925	-0.020025
20.930	-0.020145
20.935	-0.020264
20.940	-0.020389
20.945	-0.020549
20.950	-0.020679
20.955	-0.020781
20.960	-0.020916
20.965	-0.021045
20.970	-0.021180
20.975	-0.021276
20.980	-0.021391
20.985	-0.021500
20.990	-0.021656
20.995	-0.021822
21.000	-0.022047
21.005	-0.022158
21.010	-0.022292
21.015	-0.022453
21.020	-0.022661
21.025	-0.022897
21.030	-0.023065
21.035	-0.023248
21.040	-0.023452
21.045	-0.023648
21.050	-0.023901
21.055	-0.024081
21.060	-0.024266
21.065	-0.024465
21.070	-0.024749
21.075	-0.025022
21.080	-0.025222
21.085	-0.025410
21.090	-0.025636
21.095	-0.025926
21.100	-0.026247
21.105	-0.026512
21.110	-0.026822
21.115	-0.027072
21.120	-0.027347
21.125	-0.027755
21.130	-0.028113
21.135	-0.028518
21.140	-0.028918
21.145	-0.029044
21.150	-0.029168
21.155	-0.029554
21.160	-0.029791
21.165	-0.030239
21.170	-0.030861
21.175	-0.031334
21.180	-0.031832
21.185	-0.032432
21.190	-0.032924
21.195	-0.033487
21.200	-0.034178
21.205	-0.034674
21.210	-0.035146
21.215	-0.035860
21.220	-0.036964
21.225	-0.037680
21.230	-0.038734
21.235	-0.039436
21.240	-0.039579
21.245	-0.041158
21.250	-0.042676
21.255	-0.042930
21.260	-0.043817
21.265	-0.044972
21.270	-0.046225
21.275	-0.047182
21.280	-0.047744
21.285	-0.047834
21.290	-0.047766
21.295	-0.047304
21.300	-0.046474
21.305	-0.044970
21.310	-0.042762
21.315	-0.040038
21.320	-0.036733
21.325	-0.032877
21.330	-0.028975
21.335	-0.025074
21.340	-0.020919
21.345	-0.016355
21.350	-0.011745
21.355	-0.007748
21.360	-0.004723
21.365	-0.002679
21.370	-0.001458
21.375	-0.000767
21.380	-0.000437
21.385	-0.000288
21.390	-0.000187
21.395	-0.000113
21.400	-0.000073
21.405	-0.000046
21.410	-0.000039
21.415	-0.000060
21.420	-0.000026
21.425	-0.000046
21.430	-0.000019
21.435	-0.000019
21.440	-0.000026
21.445	0.000014
21.450	-0.000046
21.455	-0.000005
21.460	0.000008
21.465	0.000008
21.470	0.000028
21.475	0.000021
21.480	-0.000006
21.485	0.000014
21.490	0.000035
21.495	0.000021
21.500	0.000007
21.505	0.000028
21.510	0.000007
21.515	0.000034
21.520	-0.000005
21.525	0.000029
21.530	0.000041
21.535	0.000000
21.540	0.000021
21.545	0.000034
21.550	0.000028
21.555	0.000034
21.560	0.000048
21.565	0.000034
21.570	0.000048
21.575	0.000054
21.580	0.000000
21.585	0.000028
21.590	0.000035
21.595	0.000035
21.600	0.000000
21.605	0.000041
21.610	0.000034
21.615	0.000013
21.620	0.000047
21.625	0.000007
21.630	0.000041
21.635	0.000034
21.640	0.000034
21.645	0.000034
21.650	0.000061
21.655	0.000028
21.660	0.000001
21.665	-0.000000
21.670	0.000054
21.675	0.000054
21.680	0.000034
21.685	0.000040
21.690	0.000041
21.695	0.000041
21.700	0.000020
21.705	0.000054
21.710	0.000020
21.715	0.000033
21.720	0.000027
21.725	0.000048
21.730	0.000034
21.735	0.000040
21.740	0.000027
21.745	0.000013
21.750	0.000033
21.755	0.000067
21.760	0.000033
21.765	0.000053
21.770	0.000060
21.775	-0.000001
21.780	0.000047
21.785	0.000061
21.790	0.000020
21.795	0.000040
21.800	0.000047
21.805	0.000040
21.810	0.000047
21.815	0.000033
21.820	0.000060
21.825	0.000080
21.830	0.000020
21.835	0.000033
21.840	0.000047
21.845	0.000033
21.850	0.000060
21.855	0.000047
21.860	0.000047
21.865	0.000019
21.870	0.000026
21.875	0.000060
21.880	0.000039
21.885	0.000033
21.890	0.000019
21.895	0.000019
21.900	0.000046
21.905	0.000053
21.910	0.000066
21.915	0.000039
21.920	0.000033
21.925	0.000054
21.930	0.000040
21.935	0.000066
21.940	0.000026
21.945	0.000033
21.950	0.000012
21.955	0.000032
21.960	0.000067
21.965	0.000046
21.970	0.000046
21.975	0.000039
21.980	0.000046
21.985	0.000060
21.990	0.000006
21.995	0.000040
22.000	0.000032
22.005	0.000018
22.010	0.000039
22.015	0.000046
22.020	0.000032
22.025	0.000046
22.030	0.000032
22.035	0.000025
22.040	0.000093
22.045	0.000052
22.050	0.000039
22.055	0.000019
22.060	0.000033
22.065	0.000039
22.070	0.000032
22.075	0.000059
22.080	0.000019
22.085	0.000032
22.090	0.000046
22.095	0.000039
22.100	0.000052
22.105	0.000038
22.110	0.000032
22.115	0.000052
22.120	0.000019
22.125	0.000026
22.130	0.000032
22.135	0.000018
22.140	0.000011
22.145	0.000065
22.150	0.000032
22.155	0.000038
22.160	0.000052
22.165	0.000038
22.170	0.000025
22.175	0.000045
22.180	0.000038
22.185	0.000039
22.190	0.000053
22.195	0.000052
22.200	0.000045
22.205	0.000065
22.210	0.000018
22.215	0.000065
22.220	0.000032
22.225	0.000052
22.230	0.000005
22.235	0.000038
22.240	0.000058
22.245	0.000044
22.250	0.000031
22.255	0.000052
22.260	0.000045
22.265	0.000024
22.270	0.000031
22.275	0.000038
22.280	0.000031
22.285	0.000044
22.290	0.000038
22.295	0.000024
22.300	0.000045
22.305	0.000024
22.310	0.000065
22.315	0.000017
22.320	0.000025
22.325	0.000025
22.330	0.000024
22.335	0.000037
22.340	0.000024
22.345	0.000024
22.350	0.000085
22.355	0.000038
22.360	0.000004
22.365	0.000058
22.370	0.000051
22.375	0.000010
22.380	0.000037
22.385	0.000031
22.390	0.000038
22.395	0.000017
22.400	0.000024
22.405	0.000030
22.410	0.000030
22.415	0.000017
22.420	0.000044
22.425	0.000010
22.430	0.000044
22.435	0.000024
22.440	0.000037
22.445	0.000010
22.450	0.000065
22.455	0.000038
22.460	0.000045
22.465	0.000057
22.470	0.000030
22.475	0.000071
22.480	0.000024
22.485	0.000051
22.490	0.000057
22.495	0.000037
22.500	0.000030
22.505	0.000037
22.510	0.000057
22.515	0.000037
22.520	0.000024
22.525	0.000024
22.530	0.000030
22.535	0.000010
22.540	0.000037
22.545	0.000037
22.550	0.000050
22.555	0.000030
22.560	0.000016
22.565	0.000050
22.570	0.000023
22.575	0.000057
22.580	0.000030
22.585	0.000037
22.590	0.000031
22.595	0.000010
22.600	0.000023
22.605	-0.000011
22.610	0.000050
22.615	0.000036
22.620	0.000050
22.625	0.000064
22.630	0.000030
22.635	0.000043
22.640	0.000043
22.645	0.000036
22.650	0.000023
22.655	0.000044
22.660	0.000037
22.665	0.000050
22.670	0.000016
22.675	0.000043
22.680	0.000016
22.685	0.000023
22.690	0.000029
22.695	0.000023
22.700	0.000009
22.705	0.000029
22.710	0.000036
22.715	0.000016
22.720	0.000023
22.725	0.000023
22.730	0.000029
22.735	0.000029
22.740	0.000036
22.745	0.000022
22.750	0.000016
22.755	0.000022
22.760	0.000043
22.765	0.000036
22.770	0.000063
22.775	0.000009
22.780	0.000015
22.785	0.000036
22.790	0.000030
22.795	0.000029
22.800	0.000015
22.805	0.000042
22.810	0.000056
22.815	0.000035
22.820	0.000049
22.825	0.000029
22.830	0.000009
22.835	0.000009
22.840	0.000029
22.845	0.000002
22.850	0.000022
22.855	0.000016
22.860	0.000029
22.865	0.000022
22.870	0.000069
22.875	0.000036
22.880	0.000042
22.885	0.000036
22.890	0.000002
22.895	0.000022
22.900	0.000036
22.905	0.000056
22.910	0.000015
22.915	0.000022
22.920	0.000042
22.925	0.000056
22.930	0.000042
22.935	-0.000005
22.940	0.000015
22.945	0.000028
22.950	0.000021
22.955	0.000042
22.960	0.000049
22.965	0.000028
22.970	0.000042
22.975	0.000042
22.980	0.000035
22.985	0.000015
22.990	0.000016
22.995	0.000029
23.000	0.000028
23.005	0.000008
23.010	0.000035
23.015	0.000035
23.020	-0.000005
23.025	0.000028
23.030	0.000035
23.035	0.000008
23.040	0.000014
23.045	0.000021
23.050	0.000022
23.055	0.000029
23.060	0.000042
23.065	0.000028
23.070	0.000014
23.075	0.000001
23.080	0.000021
23.085	0.000028
23.090	0.000028
23.095	0.000042
23.100	0.000028
23.105	0.000028
23.110	0.000069
23.115	0.000008
23.120	0.000008
23.125	0.000056
23.130	0.000015
23.135	0.000021
23.140	0.000028
23.145	0.000034
23.150	0.000028
23.155	0.000028
23.160	0.000021
23.165	0.000041
23.170	0.000014
23.175	0.000021
23.180	0.000027
23.185	0.000014
23.190	0.000042
23.195	0.000001
23.200	0.000014
23.205	0.000000
23.210	0.000034
23.215	0.000007
23.220	0.000007
23.225	0.000014
23.230	0.000014
23.235	0.000034
23.240	0.000000
23.245	0.000007
23.250	0.000001
23.255	0.000035
23.260	0.000014
23.265	0.000014
23.270	0.000007
23.275	0.000000
23.280	0.000041
23.285	0.000048
23.290	0.000041
23.295	0.000041
23.300	0.000007
23.305	0.000027
23.310	0.000020
23.315	0.000014
23.320	0.000008
23.325	0.000014
23.330	0.000000
23.335	0.000020
23.340	0.000027
23.345	0.000054
23.350	0.000034
23.355	0.000034
23.360	0.000041
23.365	0.000013
23.370	0.000020
23.375	0.000034
23.380	0.000041
23.385	0.000007
23.390	0.000021
23.395	0.000027
23.400	0.000013
23.405	0.000007
23.410	0.000047
23.415	0.000013
23.420	0.000014
23.425	0.000027
23.430	-0.000000
23.435	0.000006
23.440	0.000027
23.445	0.000026
23.450	0.000027
23.455	0.000048
23.460	0.000041
23.465	-0.000000
23.470	0.000013
23.475	0.000026
23.480	-0.000007
23.485	0.000020
23.490	0.000026
23.495	0.000026
23.500	0.000033
23.505	0.000053
23.510	-0.000001
23.515	-0.000000
23.520	0.000007
23.525	0.000020
23.530	0.000033
23.535	0.000020
23.540	-0.000007
23.545	0.000020
23.550	0.000013
23.555	0.000047
23.560	0.000040
23.565	0.000040
23.570	0.000026
23.575	0.000013
23.580	-0.000001
23.585	0.000006
23.590	0.000027
23.595	0.000020
23.600	0.000026
23.605	-0.000015
23.610	0.000006
23.615	0.000012
23.620	0.000019
23.625	0.000033
23.630	0.000060
23.635	0.000019
23.640	0.000019
23.645	0.000019
23.650	0.000013
23.655	0.000033
23.660	-0.000007
23.665	0.000012
23.670	0.000033
23.675	-0.000008
23.680	0.000033
23.685	0.000019
23.690	0.000013
23.695	0.000026
23.700	0.000046
23.705	0.000039
23.710	-0.000022
23.715	0.000026
23.720	-0.000001
23.725	0.000020
23.730	0.000026
23.735	0.000005
23.740	0.000012
23.745	0.000012
23.750	0.000046
23.755	0.000032
23.760	0.000025
23.765	0.000032
23.770	0.000039
23.775	0.000019
23.780	0.000005
23.785	0.000033
23.790	0.000006
23.795	-0.000001
23.800	-0.000001
23.805	0.000018
23.810	-0.000015
23.815	-0.000002
23.820	0.000012
23.825	0.000039
23.830	0.000005
23.835	0.000005
23.840	0.000018
23.845	0.000005
23.850	-0.000002
23.855	0.000012
23.860	-0.000008
23.865	-0.000009
23.870	0.000032
23.875	0.000018
23.880	0.000018
23.885	0.000005
23.890	0.000018
23.895	0.000005
23.900	0.000025
23.905	0.000025
23.910	0.000038
23.915	0.000025
23.920	0.000012
23.925	-0.000015
23.930	0.000012
23.935	-0.000002
23.940	0.000018
23.945	0.000005
23.950	0.000005
23.955	0.000025
23.960	0.000005
23.965	0.000011
23.970	0.000011
23.975	-0.000009
23.980	0.000004
23.985	-0.000009
23.990	0.000032
23.995	0.000025
24.000	-0.000002
24.005	0.000004
24.010	0.000004
24.015	0.000004
24.020	0.000004
24.025	0.000011
24.030	0.000005
24.035	-0.000002
24.040	0.000018
24.045	0.000004
24.050	0.000018
24.055	0.000012
24.060	0.000025
24.065	-0.000016
24.070	0.000018
24.075	-0.000009
24.080	0.000038
24.085	0.000018
24.090	0.000031
24.095	0.000011
24.100	0.000004
24.105	0.000018
24.110	0.000018
24.115	0.000011
24.120	0.000011
24.125	-0.000009
24.130	0.000004
24.135	0.000011
24.140	0.000004
24.145	0.000017
24.150	0.000024
24.155	0.000024
24.160	0.000031
24.165	0.000011
24.170	0.000031
24.175	0.000017
24.180	-0.000003
24.185	0.000018
24.190	-0.000015
24.195	0.000011
24.200	0.000011
24.205	-0.000003
24.210	0.000011
24.215	-0.000003
24.220	0.000017
24.225	0.000024
24.230	0.000004
24.235	0.000058
24.240	0.000010
24.245	0.000017
24.250	0.000011
24.255	0.000025
24.260	-0.000016
24.265	-0.000003
24.270	-0.000003
24.275	-0.000004
24.280	0.000010
24.285	0.000024
24.290	0.000017
24.295	-0.000017
24.300	0.000003
24.305	0.000010
24.310	0.000010
24.315	0.000017
24.320	-0.000003
24.325	0.000004
24.330	0.000017
24.335	-0.000017
24.340	-0.000003
24.345	0.000003
24.350	0.000010
24.355	0.000024
24.360	0.000024
24.365	0.000003
24.370	0.000010
24.375	-0.000004
24.380	0.000017
24.385	0.000031
24.390	-0.000009
24.395	0.000037
24.400	0.000023
24.405	0.000003
24.410	0.000010
24.415	0.000030
24.420	0.000010
24.425	0.000017
24.430	0.000010
24.435	-0.000004
24.440	-0.000024
24.445	0.000003
24.450	-0.000010
24.455	-0.000017
24.460	0.000017
24.465	0.000003
24.470	0.000010
24.475	0.000016
24.480	-0.000010
24.485	0.000010
24.490	0.000016
24.495	0.000010
24.500	-0.000004
24.505	0.000010
24.510	0.000023
24.515	0.000010
24.520	0.000024
24.525	0.000003
24.530	-0.000011
24.535	0.000009
24.540	-0.000011
24.545	-0.000018
24.550	0.000030
24.555	0.000003
24.560	0.000030
24.565	0.000030
24.570	0.000016
24.575	-0.000004
24.580	-0.000004
24.585	-0.000010
24.590	-0.000010
24.595	0.000036
24.600	0.000009
24.605	-0.000018
24.610	-0.000018
24.615	0.000016
24.620	0.000002
24.625	-0.000011
24.630	0.000009
24.635	0.000002
24.640	0.000023
24.645	-0.000005
24.650	-0.000004
24.655	0.000010
24.660	0.000016
24.665	0.000002
24.670	-0.000018
24.675	0.000002
24.680	-0.000018
24.685	0.000009
24.690	-0.000011
24.695	-0.000005
24.700	-0.000005
24.705	0.000022
24.710	0.000009
24.715	0.000002
24.720	0.000016
24.725	-0.000004
24.730	0.000009
24.735	0.000036
24.740	0.000009
24.745	-0.000005
24.750	0.000016
24.755	0.000002
24.760	-0.000005
24.765	-0.000012
24.770	0.000015
24.775	0.000001
24.780	-0.000005
24.785	0.000009
24.790	-0.000004
24.795	0.000029
24.800	0.000008
24.805	0.000015
24.810	-0.000019
24.815	0.000049
24.820	-0.000012
24.825	-0.000012
24.830	-0.000005
24.835	0.000008
24.840	0.000001
24.845	-0.000019
24.850	0.000036
24.855	0.000002
24.860	0.000036
24.865	-0.000005
24.870	-0.000006
24.875	-0.000005
24.880	0.000008
24.885	0.000008
24.890	-0.000012
24.895	0.000028
24.900	0.000015
24.905	-0.000006
24.910	0.000008
24.915	0.000015
24.920	0.000009
24.925	0.000015
24.930	-0.000006
24.935	0.000001
24.940	0.000001
24.945	0.000001
24.950	0.000021
24.955	-0.000026
24.960	0.000014
24.965	0.000001
24.970	0.000014
24.975	0.000015
24.980	0.000001
24.985	-0.000005
24.990	0.000022
24.995	-0.000006
25.000	0.000008
25.005	-0.000019
25.010	0.000028
25.015	-0.000019
25.020	0.000001
25.025	-0.000013
25.030	0.000008
25.035	0.000001
25.040	0.000001
25.045	0.000000
25.050	-0.000006
25.055	-0.000005
25.060	-0.000026
25.065	-0.000027
25.070	0.000014
25.075	-0.000006
25.080	0.000000
25.085	-0.000020
25.090	-0.000013
25.095	-0.000006
25.100	0.000001
25.105	-0.000006
25.110	-0.000013
25.115	0.000021
25.120	0.000015
25.125	0.000008
25.130	-0.000013
25.135	-0.000007
25.140	0.000027
25.145	0.000027
25.150	-0.000047
25.155	0.000027
25.160	0.000007
25.165	0.000007
25.170	0.000000
25.175	0.000007
25.180	0.000014
25.185	0.000014
25.190	-0.000026
25.195	-0.000013
25.200	-0.000013
25.205	0.000020
25.210	0.000007
25.215	-0.000000
25.220	0.000007
25.225	0.000020
25.230	-0.000000
25.235	0.000020
25.240	0.000007
25.245	0.000014
25.250	0.000007
25.255	-0.000006
25.260	0.000014
25.265	-0.000014
25.270	-0.000014
25.275	-0.000041
25.280	-0.000014
25.285	0.000007
25.290	-0.000034
25.295	-0.000000
25.300	-0.000000
25.305	0.000027
25.310	-0.000007
25.315	0.000007
25.320	-0.000013
25.325	0.000034
25.330	-0.000007
25.335	-0.000007
25.340	-0.000001
25.345	-0.000008
25.350	-0.000007
25.355	-0.000001
25.360	-0.000007
25.365	-0.000001
25.370	0.000006
25.375	-0.000014
25.380	-0.000000
25.385	0.000000
25.390	-0.000013
25.395	-0.000034
25.400	-0.000001
25.405	-0.000008
25.410	-0.000007
25.415	0.000020
25.420	0.000013
25.425	0.000006
25.430	0.000020
25.435	-0.000001
25.440	-0.000028
25.445	0.000006
25.450	0.000013
25.455	0.000006
25.460	-0.000021
25.465	-0.000008
25.470	0.000026
25.475	-0.000001
25.480	0.000019
25.485	-0.000008
25.490	0.000006
25.495	-0.000028
25.500	-0.000021
25.505	-0.000001
25.510	-0.000008
25.515	0.000013
25.520	0.000007
25.525	-0.000014
25.530	0.000019
25.535	-0.000015
25.540	0.000006
25.545	-0.000022
25.550	-0.000015
25.555	-0.000008
25.560	-0.000008
25.565	0.000012
25.570	0.000019
25.575	0.000025
25.580	0.000012
25.585	0.000006
25.590	-0.000014
25.595	0.000012
25.600	0.000012
25.605	0.000025
25.610	0.000005
25.615	0.000005
25.620	0.000012
25.625	0.000005
25.630	0.000005
25.635	-0.000029
25.640	0.000005
25.645	-0.000015
25.650	0.000039
25.655	-0.000014
25.660	-0.000015
25.665	0.000012
25.670	-0.000009
25.675	-0.000008
25.680	-0.000002
25.685	0.000005
25.690	-0.000002
25.695	0.000019
25.700	-0.000002
25.705	-0.000015
25.710	0.000005
25.715	0.000025
25.720	-0.000008
25.725	-0.000015
25.730	0.000011
25.735	-0.000016
25.740	-0.000002
25.745	-0.000036
25.750	-0.000016
25.755	0.000025
25.760	-0.000023
25.765	-0.000009
25.770	0.000011
25.775	-0.000016
25.780	0.000005
25.785	-0.000022
25.790	0.000019
25.795	0.000011
25.800	0.000018
25.805	-0.000009
25.810	-0.000016
25.815	-0.000009
25.820	-0.000029
25.825	0.000011
25.830	-0.000002
25.835	-0.000016
25.840	0.000018
25.845	-0.000003
25.850	-0.000002
25.855	-0.000056
25.860	-0.000029
25.865	-0.000023
25.870	-0.000009
25.875	-0.000043
25.880	-0.000037
25.885	-0.000016
25.890	-0.000009
25.895	-0.000003
25.900	-0.000009
25.905	-0.000016
25.910	-0.000010
25.915	0.000011
25.920	-0.000009
25.925	-0.000016
25.930	0.000004
25.935	0.000011
25.940	-0.000023
25.945	-0.000009
25.950	0.000011
25.955	0.000011
25.960	0.000004
25.965	-0.000003
25.970	0.000011
25.975	0.000004
25.980	-0.000016
25.985	-0.000009
25.990	0.000011
25.995	0.000011
26.000	0.000017
26.005	-0.000010
26.010	-0.000017
26.015	-0.000003
26.020	0.000017
26.025	0.000011
26.030	0.000010
26.035	-0.000010
26.040	-0.000017
26.045	-0.000003
26.050	0.000011
26.055	-0.000009
26.060	0.000004
26.065	-0.000010
26.070	-0.000010
26.075	0.000017
26.080	-0.000003
26.085	0.000031
26.090	-0.000010
26.095	-0.000010
26.100	-0.000017
26.105	-0.000017
26.110	-0.000003
26.115	0.000017
26.120	0.000018
26.125	0.000024
26.130	-0.000024
26.135	-0.000044
26.140	0.000010
26.145	0.000023
26.150	-0.000010
26.155	0.000010
26.160	-0.000010
26.165	-0.000010
26.170	0.000010
26.175	0.000010
26.180	0.000003
26.185	0.000024
26.190	0.000024
26.195	-0.000010
26.200	-0.000004
26.205	0.000003
26.210	-0.000031
26.215	0.000003
26.220	-0.000024
26.225	0.000003
26.230	0.000010
26.235	-0.000004
26.240	0.000016
26.245	0.000016
26.250	-0.000003
26.255	0.000024
26.260	0.000003
26.265	-0.000011
26.270	0.000010
26.275	0.000023
26.280	0.000016
26.285	-0.000004
26.290	0.000016
26.295	-0.000004
26.300	0.000016
26.305	0.000003
26.310	0.000003
26.315	0.000030
26.320	-0.000037
26.325	0.000017
26.330	-0.000004
26.335	-0.000004
26.340	-0.000017
26.345	0.000003
26.350	-0.000011
26.355	0.000010
26.360	0.000023
26.365	0.000016
26.370	-0.000004
26.375	0.000016
26.380	-0.000004
26.385	0.000016
26.390	0.000003
26.395	0.000003
26.400	0.000030
26.405	-0.000037
26.410	0.000017
26.415	-0.000004
26.420	-0.000004
26.425	-0.000017
