PK2650 Deflection Data
Z Position (mm)	110.000	W Position (deg)	216.00
Preform ID	Diameter (mm)	Time Stamp	Start Time	Operator	Serial Number
Test 1	25	03-Nov-22 18:05:01	03-Nov-22 18:08:05	[no user]	266007708
Radius (mm)	Deflection
-26.220	0.000018
-26.215	0.000031
-26.210	0.000024
-26.205	-0.000016
-26.200	0.000018
-26.195	0.000011
-26.190	0.000038
-26.185	0.000024
-26.180	-0.000003
-26.175	0.000004
-26.170	0.000031
-26.165	0.000010
-26.160	-0.000003
-26.155	-0.000010
-26.150	0.000030
-26.145	-0.000003
-26.140	0.000003
-26.135	-0.000023
-26.130	0.000031
-26.125	-0.000017
-26.120	0.000003
-26.115	0.000037
-26.110	0.000024
-26.105	0.000024
-26.100	0.000010
-26.095	-0.000004
-26.090	0.000010
-26.085	0.000017
-26.080	-0.000011
-26.075	-0.000011
-26.070	-0.000004
-26.065	0.000017
-26.060	-0.000010
-26.055	0.000030
-26.050	0.000030
-26.045	0.000016
-26.040	0.000003
-26.035	0.000003
-26.030	0.000009
-26.025	0.000023
-26.020	0.000016
-26.015	0.000009
-26.010	0.000009
-26.005	0.000036
-26.000	0.000010
-25.995	0.000023
-25.990	0.000009
-25.985	0.000009
-25.980	0.000030
-25.975	0.000030
-25.970	0.000016
-25.965	0.000009
-25.960	0.000023
-25.955	0.000023
-25.950	0.000009
-25.945	-0.000005
-25.940	0.000009
-25.935	-0.000011
-25.930	-0.000004
-25.925	0.000002
-25.920	0.000002
-25.915	0.000002
-25.910	0.000056
-25.905	-0.000018
-25.900	0.000029
-25.895	0.000036
-25.890	0.000022
-25.885	0.000008
-25.880	0.000022
-25.875	-0.000012
-25.870	-0.000005
-25.865	0.000002
-25.860	0.000009
-25.855	0.000002
-25.850	0.000008
-25.845	0.000022
-25.840	0.000015
-25.835	0.000036
-25.830	-0.000005
-25.825	0.000022
-25.820	-0.000019
-25.815	-0.000019
-25.810	0.000035
-25.805	-0.000019
-25.800	0.000042
-25.795	-0.000005
-25.790	0.000008
-25.785	0.000035
-25.780	-0.000026
-25.775	0.000008
-25.770	0.000035
-25.765	0.000008
-25.760	0.000048
-25.755	0.000008
-25.750	-0.000006
-25.745	-0.000013
-25.740	0.000028
-25.735	0.000001
-25.730	-0.000006
-25.725	0.000001
-25.720	0.000028
-25.715	0.000028
-25.710	0.000008
-25.705	0.000021
-25.700	0.000028
-25.695	0.000014
-25.690	0.000014
-25.685	0.000007
-25.680	0.000014
-25.675	0.000000
-25.670	-0.000013
-25.665	0.000021
-25.660	-0.000006
-25.655	0.000021
-25.650	0.000021
-25.645	0.000055
-25.640	0.000021
-25.635	0.000041
-25.630	0.000021
-25.625	-0.000020
-25.620	0.000000
-25.615	0.000020
-25.610	0.000014
-25.605	0.000000
-25.600	0.000028
-25.595	0.000007
-25.590	0.000034
-25.585	0.000034
-25.580	0.000014
-25.575	0.000034
-25.570	0.000034
-25.565	0.000020
-25.560	0.000007
-25.555	0.000020
-25.550	0.000020
-25.545	0.000020
-25.540	0.000013
-25.535	0.000021
-25.530	0.000034
-25.525	0.000013
-25.520	0.000013
-25.515	0.000013
-25.510	0.000041
-25.505	0.000027
-25.500	0.000020
-25.495	0.000013
-25.490	0.000013
-25.485	0.000026
-25.480	0.000020
-25.475	-0.000007
-25.470	-0.000000
-25.465	0.000014
-25.460	0.000020
-25.455	0.000040
-25.450	0.000074
-25.445	0.000047
-25.440	0.000020
-25.435	0.000027
-25.430	0.000020
-25.425	0.000006
-25.420	-0.000001
-25.415	0.000026
-25.410	-0.000008
-25.405	0.000006
-25.400	0.000027
-25.395	0.000020
-25.390	0.000026
-25.385	0.000013
-25.380	0.000060
-25.375	-0.000001
-25.370	0.000019
-25.365	0.000019
-25.360	0.000019
-25.355	0.000046
-25.350	0.000006
-25.345	-0.000001
-25.340	0.000012
-25.335	-0.000001
-25.330	0.000006
-25.325	-0.000001
-25.320	0.000033
-25.315	0.000067
-25.310	0.000040
-25.305	0.000060
-25.300	0.000046
-25.295	0.000019
-25.290	-0.000008
-25.285	0.000039
-25.280	-0.000015
-25.275	0.000032
-25.270	-0.000001
-25.265	0.000026
-25.260	0.000033
-25.255	0.000026
-25.250	0.000046
-25.245	0.000046
-25.240	0.000032
-25.235	0.000025
-25.230	0.000039
-25.225	0.000012
-25.220	0.000012
-25.215	0.000005
-25.210	0.000005
-25.205	0.000005
-25.200	0.000033
-25.195	0.000005
-25.190	0.000052
-25.185	0.000045
-25.180	0.000039
-25.175	0.000032
-25.170	0.000039
-25.165	0.000045
-25.160	0.000012
-25.155	-0.000002
-25.150	0.000025
-25.145	0.000018
-25.140	0.000005
-25.135	0.000019
-25.130	0.000019
-25.125	0.000045
-25.120	0.000018
-25.115	0.000018
-25.110	0.000025
-25.105	0.000025
-25.100	0.000045
-25.095	0.000032
-25.090	0.000025
-25.085	0.000031
-25.080	0.000018
-25.075	0.000004
-25.070	0.000018
-25.065	0.000032
-25.060	0.000004
-25.055	0.000024
-25.050	0.000052
-25.045	0.000032
-25.040	0.000038
-25.035	0.000052
-25.030	0.000011
-25.025	0.000004
-25.020	0.000031
-25.015	0.000031
-25.010	0.000031
-25.005	0.000004
-25.000	0.000032
-24.995	0.000045
-24.990	0.000024
-24.985	0.000018
-24.980	0.000038
-24.975	0.000017
-24.970	0.000031
-24.965	0.000038
-24.960	-0.000010
-24.955	0.000038
-24.950	0.000024
-24.945	0.000004
-24.940	-0.000010
-24.935	0.000018
-24.930	0.000018
-24.925	0.000044
-24.920	0.000017
-24.915	0.000031
-24.910	0.000004
-24.905	0.000031
-24.900	0.000045
-24.895	0.000024
-24.890	0.000017
-24.885	0.000010
-24.880	0.000004
-24.875	-0.000017
-24.870	0.000018
-24.865	0.000011
-24.860	0.000031
-24.855	0.000024
-24.850	0.000010
-24.845	-0.000017
-24.840	0.000031
-24.835	0.000044
-24.830	0.000037
-24.825	0.000017
-24.820	0.000010
-24.815	0.000023
-24.810	0.000010
-24.805	0.000017
-24.800	0.000011
-24.795	0.000031
-24.790	0.000024
-24.785	0.000017
-24.780	0.000044
-24.775	0.000058
-24.770	0.000051
-24.765	0.000051
-24.760	0.000044
-24.755	0.000017
-24.750	0.000010
-24.745	0.000030
-24.740	0.000017
-24.735	-0.000003
-24.730	0.000017
-24.725	0.000030
-24.720	0.000051
-24.715	0.000057
-24.710	0.000010
-24.705	0.000044
-24.700	0.000037
-24.695	-0.000011
-24.690	0.000023
-24.685	0.000044
-24.680	0.000030
-24.675	0.000016
-24.670	0.000024
-24.665	0.000003
-24.660	0.000037
-24.655	0.000009
-24.650	0.000043
-24.645	0.000030
-24.640	0.000030
-24.635	0.000030
-24.630	0.000003
-24.625	0.000037
-24.620	0.000043
-24.615	0.000023
-24.610	0.000003
-24.605	0.000023
-24.600	0.000017
-24.595	0.000010
-24.590	0.000016
-24.585	0.000050
-24.580	0.000016
-24.575	0.000043
-24.570	0.000057
-24.565	0.000036
-24.560	0.000009
-24.555	0.000043
-24.550	0.000023
-24.545	0.000022
-24.540	0.000023
-24.535	0.000044
-24.530	0.000030
-24.525	0.000056
-24.520	0.000036
-24.515	0.000016
-24.510	0.000050
-24.505	0.000016
-24.500	0.000050
-24.495	0.000023
-24.490	0.000002
-24.485	0.000016
-24.480	0.000029
-24.475	0.000022
-24.470	0.000036
-24.465	0.000036
-24.460	0.000029
-24.455	0.000036
-24.450	0.000050
-24.445	0.000063
-24.440	0.000063
-24.435	0.000056
-24.430	0.000022
-24.425	0.000063
-24.420	0.000056
-24.415	0.000036
-24.410	0.000002
-24.405	0.000036
-24.400	0.000057
-24.395	0.000043
-24.390	0.000042
-24.385	0.000049
-24.380	0.000036
-24.375	0.000049
-24.370	0.000022
-24.365	0.000090
-24.360	0.000022
-24.355	0.000028
-24.350	0.000035
-24.345	0.000042
-24.340	0.000049
-24.335	0.000043
-24.330	0.000029
-24.325	0.000063
-24.320	0.000076
-24.315	0.000042
-24.310	0.000049
-24.305	0.000028
-24.300	0.000062
-24.295	0.000042
-24.290	0.000035
-24.285	0.000048
-24.280	0.000001
-24.275	0.000014
-24.270	0.000022
-24.265	0.000015
-24.260	0.000042
-24.255	0.000028
-24.250	0.000035
-24.245	0.000049
-24.240	0.000021
-24.235	0.000042
-24.230	0.000028
-24.225	0.000042
-24.220	0.000035
-24.215	0.000041
-24.210	0.000041
-24.205	0.000021
-24.200	0.000029
-24.195	0.000021
-24.190	0.000062
-24.185	0.000041
-24.180	0.000048
-24.175	0.000068
-24.170	0.000014
-24.165	0.000027
-24.160	0.000055
-24.155	0.000027
-24.150	0.000027
-24.145	0.000034
-24.140	0.000041
-24.135	0.000048
-24.130	0.000021
-24.125	0.000041
-24.120	0.000041
-24.115	0.000068
-24.110	0.000055
-24.105	0.000034
-24.100	0.000041
-24.095	0.000014
-24.090	0.000041
-24.085	0.000048
-24.080	0.000041
-24.075	0.000075
-24.070	0.000007
-24.065	0.000000
-24.060	0.000027
-24.055	0.000034
-24.050	0.000061
-24.045	0.000041
-24.040	0.000054
-24.035	0.000027
-24.030	0.000054
-24.025	0.000020
-24.020	0.000020
-24.015	0.000034
-24.010	0.000040
-24.005	0.000034
-24.000	0.000055
-23.995	0.000013
-23.990	0.000054
-23.985	0.000047
-23.980	0.000027
-23.975	0.000027
-23.970	0.000034
-23.965	0.000040
-23.960	0.000047
-23.955	0.000026
-23.950	0.000033
-23.945	0.000026
-23.940	0.000020
-23.935	0.000013
-23.930	0.000033
-23.925	0.000047
-23.920	0.000040
-23.915	0.000033
-23.910	0.000019
-23.905	0.000053
-23.900	0.000046
-23.895	0.000053
-23.890	0.000012
-23.885	-0.000008
-23.880	0.000012
-23.875	0.000019
-23.870	0.000006
-23.865	0.000033
-23.860	0.000019
-23.855	0.000026
-23.850	0.000039
-23.845	0.000039
-23.840	0.000019
-23.835	0.000026
-23.830	0.000019
-23.825	0.000005
-23.820	0.000005
-23.815	0.000012
-23.810	0.000019
-23.805	0.000033
-23.800	-0.000001
-23.795	0.000032
-23.790	0.000059
-23.785	0.000032
-23.780	0.000025
-23.775	0.000059
-23.770	0.000066
-23.765	0.000032
-23.760	0.000039
-23.755	0.000032
-23.750	0.000018
-23.745	0.000032
-23.740	0.000012
-23.735	0.000019
-23.730	0.000025
-23.725	0.000052
-23.720	0.000032
-23.715	0.000059
-23.710	0.000045
-23.705	0.000052
-23.700	0.000038
-23.695	0.000011
-23.690	0.000004
-23.685	-0.000009
-23.680	0.000011
-23.675	0.000018
-23.670	0.000025
-23.665	0.000005
-23.660	0.000018
-23.655	0.000038
-23.650	0.000045
-23.645	0.000038
-23.640	0.000045
-23.635	0.000018
-23.630	0.000004
-23.625	0.000024
-23.620	0.000011
-23.615	0.000038
-23.610	0.000024
-23.605	0.000024
-23.600	0.000031
-23.595	0.000011
-23.590	-0.000003
-23.585	0.000038
-23.580	0.000051
-23.575	0.000024
-23.570	0.000024
-23.565	-0.000003
-23.560	0.000010
-23.555	-0.000010
-23.550	0.000010
-23.545	-0.000017
-23.540	-0.000017
-23.535	-0.000010
-23.530	0.000010
-23.525	0.000010
-23.520	0.000010
-23.515	0.000010
-23.510	-0.000010
-23.505	0.000003
-23.500	-0.000017
-23.495	-0.000024
-23.490	-0.000024
-23.485	-0.000058
-23.480	-0.000024
-23.475	-0.000031
-23.470	-0.000031
-23.465	-0.000031
-23.460	0.000030
-23.455	0.000009
-23.450	0.000010
-23.445	0.000003
-23.440	0.000023
-23.435	-0.000018
-23.430	-0.000024
-23.425	-0.000004
-23.420	0.000023
-23.415	-0.000025
-23.410	0.000016
-23.405	0.000023
-23.400	0.000023
-23.395	0.000003
-23.390	0.000002
-23.385	-0.000004
-23.380	-0.000011
-23.375	-0.000005
-23.370	-0.000012
-23.365	-0.000012
-23.360	0.000050
-23.355	0.000002
-23.350	-0.000012
-23.345	-0.000025
-23.340	0.000016
-23.335	0.000002
-23.330	0.000016
-23.325	0.000022
-23.320	0.000029
-23.315	-0.000012
-23.310	0.000009
-23.305	0.000009
-23.300	-0.000005
-23.295	-0.000012
-23.290	0.000015
-23.285	0.000008
-23.280	-0.000019
-23.275	-0.000032
-23.270	-0.000039
-23.265	-0.000012
-23.260	-0.000012
-23.255	0.000015
-23.250	0.000015
-23.245	0.000001
-23.240	0.000022
-23.235	-0.000013
-23.230	-0.000019
-23.225	0.000008
-23.220	-0.000006
-23.215	0.000008
-23.210	-0.000019
-23.205	-0.000026
-23.200	-0.000026
-23.195	0.000008
-23.190	-0.000013
-23.185	0.000014
-23.180	0.000001
-23.175	-0.000006
-23.170	-0.000019
-23.165	0.000008
-23.160	0.000001
-23.155	0.000021
-23.150	-0.000006
-23.145	-0.000020
-23.140	0.000008
-23.135	0.000008
-23.130	-0.000026
-23.125	0.000007
-23.120	0.000007
-23.115	0.000028
-23.110	0.000041
-23.105	0.000001
-23.100	-0.000006
-23.095	0.000014
-23.090	0.000007
-23.085	-0.000007
-23.080	0.000014
-23.075	-0.000027
-23.070	0.000007
-23.065	-0.000020
-23.060	-0.000034
-23.055	0.000000
-23.050	0.000014
-23.045	-0.000013
-23.040	0.000007
-23.035	0.000007
-23.030	0.000007
-23.025	-0.000020
-23.020	0.000000
-23.015	-0.000014
-23.010	-0.000034
-23.005	0.000034
-23.000	0.000007
-22.995	-0.000013
-22.990	-0.000007
-22.985	-0.000000
-22.980	-0.000021
-22.975	0.000020
-22.970	0.000027
-22.965	0.000020
-22.960	-0.000021
-22.955	-0.000014
-22.950	-0.000028
-22.945	-0.000021
-22.940	-0.000021
-22.935	-0.000014
-22.930	-0.000014
-22.925	-0.000007
-22.920	-0.000007
-22.915	-0.000000
-22.910	0.000013
-22.905	0.000027
-22.900	0.000006
-22.895	-0.000021
-22.890	-0.000007
-22.885	-0.000021
-22.880	-0.000008
-22.875	-0.000001
-22.870	-0.000021
-22.865	-0.000014
-22.860	0.000020
-22.855	-0.000015
-22.850	0.000006
-22.845	-0.000008
-22.840	0.000019
-22.835	0.000006
-22.830	0.000012
-22.825	0.000012
-22.820	0.000012
-22.815	-0.000022
-22.810	-0.000008
-22.805	-0.000021
-22.800	-0.000014
-22.795	0.000006
-22.790	-0.000001
-22.785	0.000060
-22.780	0.000006
-22.775	0.000026
-22.770	-0.000008
-22.765	0.000006
-22.760	-0.000022
-22.755	0.000012
-22.750	-0.000008
-22.745	-0.000008
-22.740	-0.000008
-22.735	0.000006
-22.730	-0.000042
-22.725	0.000039
-22.720	-0.000008
-22.715	0.000012
-22.710	0.000026
-22.705	-0.000002
-22.700	0.000019
-22.695	-0.000015
-22.690	-0.000009
-22.685	0.000005
-22.680	-0.000022
-22.675	0.000012
-22.670	-0.000022
-22.665	-0.000002
-22.660	0.000032
-22.655	-0.000023
-22.650	0.000005
-22.645	0.000005
-22.640	0.000025
-22.635	0.000005
-22.630	-0.000009
-22.625	0.000011
-22.620	0.000011
-22.615	0.000004
-22.610	-0.000009
-22.605	-0.000022
-22.600	0.000012
-22.595	-0.000022
-22.590	-0.000002
-22.585	-0.000002
-22.580	-0.000016
-22.575	0.000025
-22.570	0.000011
-22.565	0.000004
-22.560	-0.000016
-22.555	-0.000003
-22.550	-0.000016
-22.545	-0.000016
-22.540	-0.000009
-22.535	-0.000023
-22.530	0.000025
-22.525	0.000011
-22.520	0.000018
-22.515	-0.000016
-22.510	-0.000009
-22.505	-0.000030
-22.500	-0.000030
-22.495	-0.000003
-22.490	0.000004
-22.485	0.000011
-22.480	-0.000016
-22.475	-0.000010
-22.470	-0.000023
-22.465	-0.000009
-22.460	-0.000017
-22.455	-0.000017
-22.450	-0.000010
-22.445	0.000031
-22.440	0.000024
-22.435	0.000017
-22.430	0.000010
-22.425	-0.000010
-22.420	-0.000037
-22.415	-0.000024
-22.410	-0.000031
-22.405	-0.000037
-22.400	0.000011
-22.395	0.000010
-22.390	0.000024
-22.385	0.000003
-22.380	0.000003
-22.375	0.000010
-22.370	-0.000024
-22.365	-0.000010
-22.360	-0.000017
-22.355	-0.000010
-22.350	-0.000024
-22.345	-0.000004
-22.340	-0.000010
-22.335	-0.000010
-22.330	-0.000010
-22.325	0.000003
-22.320	0.000010
-22.315	-0.000004
-22.310	-0.000011
-22.305	-0.000017
-22.300	-0.000031
-22.295	-0.000024
-22.290	-0.000031
-22.285	-0.000024
-22.280	-0.000018
-22.275	0.000023
-22.270	-0.000031
-22.265	-0.000017
-22.260	-0.000018
-22.255	-0.000004
-22.250	-0.000011
-22.245	0.000010
-22.240	-0.000011
-22.235	0.000003
-22.230	-0.000004
-22.225	0.000002
-22.220	-0.000018
-22.215	-0.000018
-22.210	-0.000018
-22.205	-0.000011
-22.200	-0.000011
-22.195	-0.000004
-22.190	-0.000004
-22.185	-0.000018
-22.180	-0.000004
-22.175	0.000016
-22.170	0.000016
-22.165	-0.000011
-22.160	-0.000025
-22.155	-0.000005
-22.150	-0.000011
-22.145	-0.000012
-22.140	-0.000018
-22.135	-0.000011
-22.130	-0.000025
-22.125	0.000002
-22.120	0.000016
-22.115	-0.000012
-22.110	-0.000005
-22.105	-0.000025
-22.100	-0.000011
-22.095	-0.000018
-22.090	-0.000032
-22.085	-0.000018
-22.080	-0.000019
-22.075	-0.000032
-22.070	-0.000011
-22.065	-0.000018
-22.060	-0.000005
-22.055	-0.000012
-22.050	-0.000019
-22.045	-0.000019
-22.040	0.000002
-22.035	0.000008
-22.030	-0.000026
-22.025	-0.000005
-22.020	-0.000012
-22.015	0.000008
-22.010	-0.000039
-22.005	-0.000012
-22.000	0.000016
-21.995	-0.000026
-21.990	-0.000026
-21.985	-0.000012
-21.980	-0.000012
-21.975	-0.000012
-21.970	-0.000005
-21.965	-0.000026
-21.960	-0.000012
-21.955	-0.000012
-21.950	-0.000026
-21.945	-0.000012
-21.940	-0.000046
-21.935	-0.000019
-21.930	-0.000026
-21.925	0.000001
-21.920	0.000022
-21.915	-0.000012
-21.910	-0.000012
-21.905	0.000008
-21.900	0.000021
-21.895	0.000001
-21.890	-0.000013
-21.885	0.000001
-21.880	-0.000020
-21.875	-0.000026
-21.870	-0.000012
-21.865	-0.000019
-21.860	0.000008
-21.855	0.000008
-21.850	0.000001
-21.845	0.000001
-21.840	-0.000013
-21.835	-0.000020
-21.830	-0.000026
-21.825	0.000008
-21.820	-0.000026
-21.815	-0.000020
-21.810	-0.000013
-21.805	-0.000012
-21.800	-0.000012
-21.795	-0.000013
-21.790	-0.000006
-21.785	0.000014
-21.780	-0.000033
-21.775	-0.000013
-21.770	-0.000013
-21.765	-0.000013
-21.760	0.000000
-21.755	-0.000027
-21.750	-0.000020
-21.745	-0.000020
-21.740	-0.000020
-21.735	0.000008
-21.730	0.000014
-21.725	0.000000
-21.720	0.000000
-21.715	0.000000
-21.710	-0.000006
-21.705	-0.000013
-21.700	0.000007
-21.695	-0.000007
-21.690	-0.000013
-21.685	-0.000007
-21.680	-0.000020
-21.675	-0.000020
-21.670	-0.000020
-21.665	-0.000034
-21.660	0.000048
-21.655	-0.000000
-21.650	0.000007
-21.645	-0.000000
-21.640	-0.000014
-21.635	-0.000007
-21.630	-0.000014
-21.625	-0.000021
-21.620	-0.000048
-21.615	-0.000007
-21.610	-0.000007
-21.605	-0.000020
-21.600	0.000000
-21.595	-0.000000
-21.590	0.000013
-21.585	0.000027
-21.580	0.000027
-21.575	-0.000014
-21.570	0.000020
-21.565	0.000033
-21.560	0.000054
-21.555	0.000006
-21.550	-0.000000
-21.545	-0.000000
-21.540	-0.000007
-21.535	0.000020
-21.530	-0.000007
-21.525	0.000047
-21.520	0.000033
-21.515	0.000027
-21.510	0.000013
-21.505	-0.000001
-21.500	0.000040
-21.495	0.000040
-21.490	0.000006
-21.485	-0.000021
-21.480	0.000033
-21.475	-0.000001
-21.470	0.000027
-21.465	0.000054
-21.460	0.000040
-21.455	0.000061
-21.450	0.000129
-21.445	0.000177
-21.440	0.000238
-21.435	0.000361
-21.430	0.000573
-21.425	0.000882
-21.420	0.001253
-21.415	0.001832
-21.410	0.002567
-21.405	0.003579
-21.400	0.004804
-21.395	0.006211
-21.390	0.007965
-21.385	0.009958
-21.380	0.012327
-21.375	0.015057
-21.370	0.018044
-21.365	0.021238
-21.360	0.024663
-21.355	0.028260
-21.350	0.031929
-21.345	0.035594
-21.340	0.039180
-21.335	0.042957
-21.330	0.046484
-21.325	0.049698
-21.320	0.050827
-21.315	0.049820
-21.310	0.049003
-21.305	0.047612
-21.300	0.045638
-21.295	0.044583
-21.290	0.043762
-21.285	0.042876
-21.280	0.042126
-21.275	0.041742
-21.270	0.040671
-21.265	0.039208
-21.260	0.038283
-21.255	0.037390
-21.250	0.036482
-21.245	0.036041
-21.240	0.035316
-21.235	0.034428
-21.230	0.034172
-21.225	0.033645
-21.220	0.033027
-21.215	0.032547
-21.210	0.032039
-21.205	0.031610
-21.200	0.031240
-21.195	0.030974
-21.190	0.030718
-21.185	0.030617
-21.180	0.030192
-21.175	0.029342
-21.170	0.028736
-21.165	0.028479
-21.160	0.028300
-21.155	0.027846
-21.150	0.027394
-21.145	0.027219
-21.140	0.027210
-21.135	0.027407
-21.130	0.027433
-21.125	0.026598
-21.120	0.025885
-21.115	0.025691
-21.110	0.025593
-21.105	0.025378
-21.100	0.025120
-21.095	0.025001
-21.090	0.024815
-21.085	0.024471
-21.080	0.024132
-21.075	0.023954
-21.070	0.023798
-21.065	0.023567
-21.060	0.023286
-21.055	0.023047
-21.050	0.022893
-21.045	0.022768
-21.040	0.022666
-21.035	0.022536
-21.030	0.022337
-21.025	0.022156
-21.020	0.022049
-21.015	0.021928
-21.010	0.021804
-21.005	0.021733
-21.000	0.021640
-20.995	0.021562
-20.990	0.021419
-20.985	0.021206
-20.980	0.020993
-20.975	0.020860
-20.970	0.020702
-20.965	0.020595
-20.960	0.020447
-20.955	0.020300
-20.950	0.020152
-20.945	0.020120
-20.940	0.019950
-20.935	0.019833
-20.930	0.019740
-20.925	0.019651
-20.920	0.019517
-20.915	0.019420
-20.910	0.019303
-20.905	0.019177
-20.900	0.019084
-20.895	0.018992
-20.890	0.018854
-20.885	0.018767
-20.880	0.018662
-20.875	0.018600
-20.870	0.018512
-20.865	0.018450
-20.860	0.018356
-20.855	0.018311
-20.850	0.018223
-20.845	0.018069
-20.840	0.017968
-20.835	0.017858
-20.830	0.017730
-20.825	0.017667
-20.820	0.017555
-20.815	0.017459
-20.810	0.017401
-20.805	0.017310
-20.800	0.017203
-20.795	0.017154
-20.790	0.017134
-20.785	0.017058
-20.780	0.016991
-20.775	0.016910
-20.770	0.016847
-20.765	0.016740
-20.760	0.016718
-20.755	0.016627
-20.750	0.016517
-20.745	0.016450
-20.740	0.016382
-20.735	0.016317
-20.730	0.016210
-20.725	0.016146
-20.720	0.016125
-20.715	0.016065
-20.710	0.015994
-20.705	0.015891
-20.700	0.015829
-20.695	0.015733
-20.690	0.015700
-20.685	0.015666
-20.680	0.015601
-20.675	0.015560
-20.670	0.015487
-20.665	0.015466
-20.660	0.015407
-20.655	0.015373
-20.650	0.015298
-20.645	0.015254
-20.640	0.015158
-20.635	0.015130
-20.630	0.015069
-20.625	0.015025
-20.620	0.014947
-20.615	0.014879
-20.610	0.014873
-20.605	0.014793
-20.600	0.014777
-20.595	0.014736
-20.590	0.014679
-20.585	0.014662
-20.580	0.014596
-20.575	0.014536
-20.570	0.014467
-20.565	0.014421
-20.560	0.014359
-20.555	0.014285
-20.550	0.014253
-20.545	0.014225
-20.540	0.014163
-20.535	0.014130
-20.530	0.014105
-20.525	0.014089
-20.520	0.014041
-20.515	0.013988
-20.510	0.013942
-20.505	0.013937
-20.500	0.013867
-20.495	0.013830
-20.490	0.013759
-20.485	0.013750
-20.480	0.013724
-20.475	0.013698
-20.470	0.013676
-20.465	0.013633
-20.460	0.013594
-20.455	0.013550
-20.450	0.013507
-20.445	0.013457
-20.440	0.013408
-20.435	0.013342
-20.430	0.013325
-20.425	0.013292
-20.420	0.013186
-20.415	0.013193
-20.410	0.013180
-20.405	0.013101
-20.400	0.013068
-20.395	0.013056
-20.390	0.013046
-20.385	0.012973
-20.380	0.012965
-20.375	0.012924
-20.370	0.012887
-20.365	0.012863
-20.360	0.012838
-20.355	0.012773
-20.350	0.012748
-20.345	0.012731
-20.340	0.012677
-20.335	0.012666
-20.330	0.012609
-20.325	0.012586
-20.320	0.012534
-20.315	0.012500
-20.310	0.012490
-20.305	0.012417
-20.300	0.012378
-20.295	0.012333
-20.290	0.012329
-20.285	0.012285
-20.280	0.012242
-20.275	0.012162
-20.270	0.012213
-20.265	0.012175
-20.260	0.012161
-20.255	0.012137
-20.250	0.012101
-20.245	0.012079
-20.240	0.012059
-20.235	0.012018
-20.230	0.012056
-20.225	0.011979
-20.220	0.011930
-20.215	0.011891
-20.210	0.011873
-20.205	0.011905
-20.200	0.011842
-20.195	0.011847
-20.190	0.011817
-20.185	0.011772
-20.180	0.011771
-20.175	0.011733
-20.170	0.011684
-20.165	0.011682
-20.160	0.011641
-20.155	0.011605
-20.150	0.011584
-20.145	0.011539
-20.140	0.011537
-20.135	0.011506
-20.130	0.011493
-20.125	0.011467
-20.120	0.011452
-20.115	0.011428
-20.110	0.011391
-20.105	0.011381
-20.100	0.011293
-20.095	0.011269
-20.090	0.011266
-20.085	0.011222
-20.080	0.011234
-20.075	0.011160
-20.070	0.011175
-20.065	0.011145
-20.060	0.011105
-20.055	0.011073
-20.050	0.011102
-20.045	0.011074
-20.040	0.011004
-20.035	0.011009
-20.030	0.011002
-20.025	0.010931
-20.020	0.010925
-20.015	0.010897
-20.010	0.010861
-20.005	0.010814
-20.000	0.010826
-19.995	0.010813
-19.990	0.010794
-19.985	0.010791
-19.980	0.010779
-19.975	0.010769
-19.970	0.010740
-19.965	0.010720
-19.960	0.010658
-19.955	0.010680
-19.950	0.010598
-19.945	0.010622
-19.940	0.010576
-19.935	0.010583
-19.930	0.010587
-19.925	0.010558
-19.920	0.010545
-19.915	0.010491
-19.910	0.010515
-19.905	0.010477
-19.900	0.010466
-19.895	0.010418
-19.890	0.010405
-19.885	0.010399
-19.880	0.010367
-19.875	0.010345
-19.870	0.010319
-19.865	0.010319
-19.860	0.010313
-19.855	0.010278
-19.850	0.010275
-19.845	0.010270
-19.840	0.010254
-19.835	0.010200
-19.830	0.010170
-19.825	0.010154
-19.820	0.010118
-19.815	0.010132
-19.810	0.010095
-19.805	0.010084
-19.800	0.010032
-19.795	0.010020
-19.790	0.010012
-19.785	0.009969
-19.780	0.009982
-19.775	0.009948
-19.770	0.009941
-19.765	0.009911
-19.760	0.009869
-19.755	0.009862
-19.750	0.009808
-19.745	0.009836
-19.740	0.009821
-19.735	0.009797
-19.730	0.009751
-19.725	0.009730
-19.720	0.009738
-19.715	0.009711
-19.710	0.009705
-19.705	0.009661
-19.700	0.009655
-19.695	0.009620
-19.690	0.009621
-19.685	0.009579
-19.680	0.009531
-19.675	0.009530
-19.670	0.009523
-19.665	0.009512
-19.660	0.009507
-19.655	0.009458
-19.650	0.009446
-19.645	0.009426
-19.640	0.009414
-19.635	0.009407
-19.630	0.009384
-19.625	0.009385
-19.620	0.009346
-19.615	0.009311
-19.610	0.009314
-19.605	0.009285
-19.600	0.009322
-19.595	0.009295
-19.590	0.009281
-19.585	0.009274
-19.580	0.009238
-19.575	0.009232
-19.570	0.009243
-19.565	0.009243
-19.560	0.009235
-19.555	0.009193
-19.550	0.009207
-19.545	0.009139
-19.540	0.009168
-19.535	0.009142
-19.530	0.009131
-19.525	0.009135
-19.520	0.009128
-19.515	0.009071
-19.510	0.009112
-19.505	0.009080
-19.500	0.009104
-19.495	0.009040
-19.490	0.009046
-19.485	0.009036
-19.480	0.009015
-19.475	0.008999
-19.470	0.008994
-19.465	0.009026
-19.460	0.008998
-19.455	0.008984
-19.450	0.008980
-19.445	0.008946
-19.440	0.008913
-19.435	0.008891
-19.430	0.008887
-19.425	0.008844
-19.420	0.008861
-19.415	0.008841
-19.410	0.008811
-19.405	0.008821
-19.400	0.008815
-19.395	0.008782
-19.390	0.008797
-19.385	0.008790
-19.380	0.008763
-19.375	0.008757
-19.370	0.008758
-19.365	0.008726
-19.360	0.008712
-19.355	0.008642
-19.350	0.008683
-19.345	0.008661
-19.340	0.008670
-19.335	0.008648
-19.330	0.008660
-19.325	0.008616
-19.320	0.008616
-19.315	0.008619
-19.310	0.008604
-19.305	0.008609
-19.300	0.008566
-19.295	0.008578
-19.290	0.008519
-19.285	0.008548
-19.280	0.008558
-19.275	0.008524
-19.270	0.008521
-19.265	0.008502
-19.260	0.008465
-19.255	0.008483
-19.250	0.008454
-19.245	0.008480
-19.240	0.008458
-19.235	0.008421
-19.230	0.008438
-19.225	0.008382
-19.220	0.008375
-19.215	0.008340
-19.210	0.008384
-19.205	0.008350
-19.200	0.008329
-19.195	0.008340
-19.190	0.008335
-19.185	0.008329
-19.180	0.008296
-19.175	0.008289
-19.170	0.008283
-19.165	0.008305
-19.160	0.008264
-19.155	0.008265
-19.150	0.008265
-19.145	0.008261
-19.140	0.008211
-19.135	0.008246
-19.130	0.008209
-19.125	0.008237
-19.120	0.008224
-19.115	0.008206
-19.110	0.008234
-19.105	0.008208
-19.100	0.008173
-19.095	0.008152
-19.090	0.008123
-19.085	0.008120
-19.080	0.008112
-19.075	0.008102
-19.070	0.008096
-19.065	0.008109
-19.060	0.008108
-19.055	0.008080
-19.050	0.008080
-19.045	0.008079
-19.040	0.008054
-19.035	0.008017
-19.030	0.008038
-19.025	0.008016
-19.020	0.007981
-19.015	0.007966
-19.010	0.007961
-19.005	0.007962
-19.000	0.007943
-18.995	0.007947
-18.990	0.007956
-18.985	0.007942
-18.980	0.007909
-18.975	0.007936
-18.970	0.007867
-18.965	0.007852
-18.960	0.007830
-18.955	0.007838
-18.950	0.007804
-18.945	0.007796
-18.940	0.007785
-18.935	0.007818
-18.930	0.007761
-18.925	0.007761
-18.920	0.007763
-18.915	0.007763
-18.910	0.007758
-18.905	0.007694
-18.900	0.007695
-18.895	0.007715
-18.890	0.007673
-18.885	0.007660
-18.880	0.007621
-18.875	0.007654
-18.870	0.007625
-18.865	0.007594
-18.860	0.007642
-18.855	0.007612
-18.850	0.007589
-18.845	0.007610
-18.840	0.007583
-18.835	0.007576
-18.830	0.007556
-18.825	0.007533
-18.820	0.007547
-18.815	0.007553
-18.810	0.007530
-18.805	0.007482
-18.800	0.007499
-18.795	0.007515
-18.790	0.007493
-18.785	0.007486
-18.780	0.007491
-18.775	0.007474
-18.770	0.007491
-18.765	0.007460
-18.760	0.007438
-18.755	0.007430
-18.750	0.007430
-18.745	0.007416
-18.740	0.007417
-18.735	0.007415
-18.730	0.007405
-18.725	0.007378
-18.720	0.007405
-18.715	0.007356
-18.710	0.007370
-18.705	0.007373
-18.700	0.007338
-18.695	0.007323
-18.690	0.007322
-18.685	0.007287
-18.680	0.007260
-18.675	0.007304
-18.670	0.007283
-18.665	0.007260
-18.660	0.007273
-18.655	0.007265
-18.650	0.007244
-18.645	0.007243
-18.640	0.007256
-18.635	0.007228
-18.630	0.007213
-18.625	0.007219
-18.620	0.007198
-18.615	0.007183
-18.610	0.007179
-18.605	0.007200
-18.600	0.007150
-18.595	0.007160
-18.590	0.007153
-18.585	0.007180
-18.580	0.007154
-18.575	0.007133
-18.570	0.007139
-18.565	0.007111
-18.560	0.007104
-18.555	0.007090
-18.550	0.007097
-18.545	0.007071
-18.540	0.007081
-18.535	0.007057
-18.530	0.007083
-18.525	0.007089
-18.520	0.007057
-18.515	0.007057
-18.510	0.007023
-18.505	0.007036
-18.500	0.007030
-18.495	0.007021
-18.490	0.007001
-18.485	0.006987
-18.480	0.006967
-18.475	0.006956
-18.470	0.006969
-18.465	0.006961
-18.460	0.006981
-18.455	0.006967
-18.450	0.006953
-18.445	0.006960
-18.440	0.006937
-18.435	0.006909
-18.430	0.006903
-18.425	0.006895
-18.420	0.006929
-18.415	0.006915
-18.410	0.006857
-18.405	0.006878
-18.400	0.006877
-18.395	0.006881
-18.390	0.006909
-18.385	0.006840
-18.380	0.006834
-18.375	0.006841
-18.370	0.006841
-18.365	0.006805
-18.360	0.006805
-18.355	0.006784
-18.350	0.006798
-18.345	0.006806
-18.340	0.006746
-18.335	0.006829
-18.330	0.006805
-18.325	0.006804
-18.320	0.006749
-18.315	0.006775
-18.310	0.006754
-18.305	0.006726
-18.300	0.006740
-18.295	0.006726
-18.290	0.006678
-18.285	0.006677
-18.280	0.006700
-18.275	0.006688
-18.270	0.006681
-18.265	0.006657
-18.260	0.006671
-18.255	0.006663
-18.250	0.006664
-18.245	0.006658
-18.240	0.006638
-18.235	0.006624
-18.230	0.006638
-18.225	0.006625
-18.220	0.006612
-18.215	0.006626
-18.210	0.006629
-18.205	0.006562
-18.200	0.006590
-18.195	0.006546
-18.190	0.006589
-18.185	0.006582
-18.180	0.006577
-18.175	0.006557
-18.170	0.006524
-18.165	0.006551
-18.160	0.006537
-18.155	0.006531
-18.150	0.006533
-18.145	0.006493
-18.140	0.006523
-18.135	0.006549
-18.130	0.006520
-18.125	0.006519
-18.120	0.006501
-18.115	0.006495
-18.110	0.006477
-18.105	0.006492
-18.100	0.006499
-18.095	0.006492
-18.090	0.006486
-18.085	0.006479
-18.080	0.006445
-18.075	0.006448
-18.070	0.006489
-18.065	0.006453
-18.060	0.006480
-18.055	0.006452
-18.050	0.006452
-18.045	0.006450
-18.040	0.006422
-18.035	0.006406
-18.030	0.006412
-18.025	0.006419
-18.020	0.006412
-18.015	0.006390
-18.010	0.006365
-18.005	0.006371
-18.000	0.006383
-17.995	0.006379
-17.990	0.006359
-17.985	0.006372
-17.980	0.006359
-17.975	0.006372
-17.970	0.006351
-17.965	0.006356
-17.960	0.006302
-17.955	0.006314
-17.950	0.006300
-17.945	0.006308
-17.940	0.006274
-17.935	0.006231
-17.930	0.006270
-17.925	0.006304
-17.920	0.006284
-17.915	0.006263
-17.910	0.006291
-17.905	0.006276
-17.900	0.006221
-17.895	0.006240
-17.890	0.006247
-17.885	0.006261
-17.880	0.006214
-17.875	0.006223
-17.870	0.006188
-17.865	0.006228
-17.860	0.006256
-17.855	0.006221
-17.850	0.006221
-17.845	0.006186
-17.840	0.006200
-17.835	0.006198
-17.830	0.006192
-17.825	0.006197
-17.820	0.006163
-17.815	0.006170
-17.810	0.006131
-17.805	0.006159
-17.800	0.006151
-17.795	0.006142
-17.790	0.006183
-17.785	0.006148
-17.780	0.006134
-17.775	0.006133
-17.770	0.006145
-17.765	0.006124
-17.760	0.006124
-17.755	0.006095
-17.750	0.006081
-17.745	0.006097
-17.740	0.006084
-17.735	0.006074
-17.730	0.006072
-17.725	0.006108
-17.720	0.006060
-17.715	0.006059
-17.710	0.006074
-17.705	0.006011
-17.700	0.006072
-17.695	0.005996
-17.690	0.005982
-17.685	0.006022
-17.680	0.005988
-17.675	0.005984
-17.670	0.005963
-17.665	0.005982
-17.660	0.005974
-17.655	0.005968
-17.650	0.005954
-17.645	0.005940
-17.640	0.005947
-17.635	0.005947
-17.630	0.005940
-17.625	0.005934
-17.620	0.005927
-17.615	0.005921
-17.610	0.005917
-17.605	0.005889
-17.600	0.005937
-17.595	0.005942
-17.590	0.005895
-17.585	0.005875
-17.580	0.005882
-17.575	0.005874
-17.570	0.005901
-17.565	0.005853
-17.560	0.005846
-17.555	0.005879
-17.550	0.005824
-17.545	0.005853
-17.540	0.005828
-17.535	0.005833
-17.530	0.005830
-17.525	0.005844
-17.520	0.005823
-17.515	0.005837
-17.510	0.005857
-17.505	0.005830
-17.500	0.005802
-17.495	0.005773
-17.490	0.005779
-17.485	0.005773
-17.480	0.005774
-17.475	0.005796
-17.470	0.005780
-17.465	0.005770
-17.460	0.005777
-17.455	0.005776
-17.450	0.005785
-17.445	0.005785
-17.440	0.005750
-17.435	0.005715
-17.430	0.005727
-17.425	0.005741
-17.420	0.005714
-17.415	0.005694
-17.410	0.005697
-17.405	0.005724
-17.400	0.005709
-17.395	0.005699
-17.390	0.005721
-17.385	0.005706
-17.380	0.005659
-17.375	0.005678
-17.370	0.005678
-17.365	0.005670
-17.360	0.005683
-17.355	0.005662
-17.350	0.005648
-17.345	0.005643
-17.340	0.005630
-17.335	0.005634
-17.330	0.005633
-17.325	0.005647
-17.320	0.005654
-17.315	0.005633
-17.310	0.005626
-17.305	0.005626
-17.300	0.005571
-17.295	0.005611
-17.290	0.005596
-17.285	0.005595
-17.280	0.005569
-17.275	0.005584
-17.270	0.005590
-17.265	0.005568
-17.260	0.005568
-17.255	0.005568
-17.250	0.005561
-17.245	0.005561
-17.240	0.005568
-17.235	0.005526
-17.230	0.005561
-17.225	0.005526
-17.220	0.005526
-17.215	0.005491
-17.210	0.005515
-17.205	0.005535
-17.200	0.005526
-17.195	0.005499
-17.190	0.005515
-17.185	0.005488
-17.180	0.005502
-17.175	0.005475
-17.170	0.005475
-17.165	0.005467
-17.160	0.005461
-17.155	0.005473
-17.150	0.005439
-17.145	0.005461
-17.140	0.005455
-17.135	0.005447
-17.130	0.005460
-17.125	0.005459
-17.120	0.005474
-17.115	0.005445
-17.110	0.005430
-17.105	0.005444
-17.100	0.005437
-17.095	0.005422
-17.090	0.005422
-17.085	0.005402
-17.080	0.005409
-17.075	0.005438
-17.070	0.005409
-17.065	0.005395
-17.060	0.005415
-17.055	0.005423
-17.050	0.005450
-17.045	0.005415
-17.040	0.005401
-17.035	0.005365
-17.030	0.005373
-17.025	0.005378
-17.020	0.005358
-17.015	0.005350
-17.010	0.005368
-17.005	0.005368
-17.000	0.005339
-16.995	0.005345
-16.990	0.005373
-16.985	0.005366
-16.980	0.005311
-16.975	0.005344
-16.970	0.005338
-16.965	0.005324
-16.960	0.005352
-16.955	0.005316
-16.950	0.005303
-16.945	0.005327
-16.940	0.005300
-16.935	0.005298
-16.930	0.005289
-16.925	0.005305
-16.920	0.005304
-16.915	0.005305
-16.910	0.005298
-16.905	0.005298
-16.900	0.005264
-16.895	0.005250
-16.890	0.005243
-16.885	0.005256
-16.880	0.005216
-16.875	0.005273
-16.870	0.005286
-16.865	0.005251
-16.860	0.005286
-16.855	0.005259
-16.850	0.005246
-16.845	0.005253
-16.840	0.005239
-16.835	0.005254
-16.830	0.005192
-16.825	0.005234
-16.820	0.005207
-16.815	0.005242
-16.810	0.005210
-16.805	0.005196
-16.800	0.005180
-16.795	0.005213
-16.790	0.005193
-16.785	0.005167
-16.780	0.005209
-16.775	0.005187
-16.770	0.005172
-16.765	0.005180
-16.760	0.005132
-16.755	0.005138
-16.750	0.005152
-16.745	0.005153
-16.740	0.005175
-16.735	0.005111
-16.730	0.005124
-16.725	0.005145
-16.720	0.005139
-16.715	0.005138
-16.710	0.005166
-16.705	0.005118
-16.700	0.005110
-16.695	0.005111
-16.690	0.005082
-16.685	0.005102
-16.680	0.005077
-16.675	0.005064
-16.670	0.005070
-16.665	0.005054
-16.660	0.005103
-16.655	0.005117
-16.650	0.005070
-16.645	0.005057
-16.640	0.005070
-16.635	0.005056
-16.630	0.005056
-16.625	0.005036
-16.620	0.005064
-16.615	0.005036
-16.610	0.004998
-16.605	0.005045
-16.600	0.005024
-16.595	0.005030
-16.590	0.005030
-16.585	0.005016
-16.580	0.005031
-16.575	0.004996
-16.570	0.004975
-16.565	0.004966
-16.560	0.004960
-16.555	0.004974
-16.550	0.004988
-16.545	0.004975
-16.540	0.004977
-16.535	0.004982
-16.530	0.004974
-16.525	0.004994
-16.520	0.004948
-16.515	0.004962
-16.510	0.004969
-16.505	0.004961
-16.500	0.004934
-16.495	0.004906
-16.490	0.004920
-16.485	0.004891
-16.480	0.004899
-16.475	0.004921
-16.470	0.004920
-16.465	0.004950
-16.460	0.004896
-16.455	0.004923
-16.450	0.004904
-16.445	0.004902
-16.440	0.004903
-16.435	0.004916
-16.430	0.004868
-16.425	0.004922
-16.420	0.004873
-16.415	0.004887
-16.410	0.004862
-16.405	0.004875
-16.400	0.004915
-16.395	0.004879
-16.390	0.004915
-16.385	0.004887
-16.380	0.004860
-16.375	0.004867
-16.370	0.004866
-16.365	0.004845
-16.360	0.004838
-16.355	0.004878
-16.350	0.004851
-16.345	0.004838
-16.340	0.004832
-16.335	0.004816
-16.330	0.004828
-16.325	0.004814
-16.320	0.004828
-16.315	0.004835
-16.310	0.004829
-16.305	0.004821
-16.300	0.004815
-16.295	0.004801
-16.290	0.004808
-16.285	0.004773
-16.280	0.004782
-16.275	0.004796
-16.270	0.004802
-16.265	0.004807
-16.260	0.004788
-16.255	0.004788
-16.250	0.004802
-16.245	0.004775
-16.240	0.004775
-16.235	0.004747
-16.230	0.004761
-16.225	0.004741
-16.220	0.004735
-16.215	0.004708
-16.210	0.004751
-16.205	0.004751
-16.200	0.004777
-16.195	0.004728
-16.190	0.004742
-16.185	0.004749
-16.180	0.004730
-16.175	0.004757
-16.170	0.004723
-16.165	0.004730
-16.160	0.004697
-16.155	0.004717
-16.150	0.004697
-16.145	0.004720
-16.140	0.004720
-16.135	0.004720
-16.130	0.004734
-16.125	0.004728
-16.120	0.004729
-16.115	0.004729
-16.110	0.004688
-16.105	0.004703
-16.100	0.004696
-16.095	0.004697
-16.090	0.004683
-16.085	0.004648
-16.080	0.004656
-16.075	0.004657
-16.070	0.004691
-16.065	0.004675
-16.060	0.004649
-16.055	0.004697
-16.050	0.004675
-16.045	0.004681
-16.040	0.004647
-16.035	0.004639
-16.030	0.004646
-16.025	0.004632
-16.020	0.004640
-16.015	0.004647
-16.010	0.004629
-16.005	0.004627
-16.000	0.004625
-15.995	0.004618
-15.990	0.004626
-15.985	0.004606
-15.980	0.004605
-15.975	0.004597
-15.970	0.004604
-15.965	0.004603
-15.960	0.004597
-15.955	0.004582
-15.950	0.004589
-15.945	0.004569
-15.940	0.004570
-15.935	0.004575
-15.930	0.004594
-15.925	0.004594
-15.920	0.004558
-15.915	0.004572
-15.910	0.004572
-15.905	0.004570
-15.900	0.004564
-15.895	0.004555
-15.890	0.004583
-15.885	0.004555
-15.880	0.004556
-15.875	0.004536
-15.870	0.004534
-15.865	0.004545
-15.860	0.004572
-15.855	0.004553
-15.850	0.004559
-15.845	0.004531
-15.840	0.004530
-15.835	0.004516
-15.830	0.004487
-15.825	0.004487
-15.820	0.004480
-15.815	0.004507
-15.810	0.004509
-15.805	0.004502
-15.800	0.004472
-15.795	0.004512
-15.790	0.004499
-15.785	0.004512
-15.780	0.004465
-15.775	0.004471
-15.770	0.004484
-15.765	0.004463
-15.760	0.004443
-15.755	0.004449
-15.750	0.004471
-15.745	0.004473
-15.740	0.004438
-15.735	0.004478
-15.730	0.004449
-15.725	0.004422
-15.720	0.004464
-15.715	0.004444
-15.710	0.004451
-15.705	0.004458
-15.700	0.004403
-15.695	0.004410
-15.690	0.004423
-15.685	0.004416
-15.680	0.004398
-15.675	0.004412
-15.670	0.004385
-15.665	0.004431
-15.660	0.004403
-15.655	0.004403
-15.650	0.004411
-15.645	0.004410
-15.640	0.004403
-15.635	0.004390
-15.630	0.004348
-15.625	0.004383
-15.620	0.004383
-15.615	0.004363
-15.610	0.004379
-15.605	0.004372
-15.600	0.004350
-15.595	0.004371
-15.590	0.004357
-15.585	0.004350
-15.580	0.004364
-15.575	0.004385
-15.570	0.004338
-15.565	0.004350
-15.560	0.004364
-15.555	0.004329
-15.550	0.004329
-15.545	0.004318
-15.540	0.004332
-15.535	0.004337
-15.530	0.004336
-15.525	0.004329
-15.520	0.004323
-15.515	0.004356
-15.510	0.004337
-15.505	0.004315
-15.500	0.004336
-15.495	0.004280
-15.490	0.004280
-15.485	0.004302
-15.480	0.004277
-15.475	0.004311
-15.470	0.004276
-15.465	0.004288
-15.460	0.004316
-15.455	0.004302
-15.450	0.004295
-15.445	0.004288
-15.440	0.004254
-15.435	0.004273
-15.430	0.004232
-15.425	0.004239
-15.420	0.004267
-15.415	0.004239
-15.410	0.004255
-15.405	0.004247
-15.400	0.004280
-15.395	0.004300
-15.390	0.004259
-15.385	0.004246
-15.380	0.004246
-15.375	0.004251
-15.370	0.004238
-15.365	0.004229
-15.360	0.004181
-15.355	0.004229
-15.350	0.004223
-15.345	0.004225
-15.340	0.004197
-15.335	0.004217
-15.330	0.004209
-15.325	0.004196
-15.320	0.004203
-15.315	0.004216
-15.310	0.004183
-15.305	0.004203
-15.300	0.004175
-15.295	0.004182
-15.290	0.004175
-15.285	0.004174
-15.280	0.004150
-15.275	0.004144
-15.270	0.004192
-15.265	0.004190
-15.260	0.004149
-15.255	0.004170
-15.250	0.004178
-15.245	0.004171
-15.240	0.004138
-15.235	0.004124
-15.230	0.004110
-15.225	0.004136
-15.220	0.004117
-15.215	0.004117
-15.210	0.004113
-15.205	0.004113
-15.200	0.004126
-15.195	0.004120
-15.190	0.004128
-15.185	0.004137
-15.180	0.004130
-15.175	0.004152
-15.170	0.004111
-15.165	0.004098
-15.160	0.004126
-15.155	0.004066
-15.150	0.004080
-15.145	0.004111
-15.140	0.004106
-15.135	0.004092
-15.130	0.004084
-15.125	0.004119
-15.120	0.004078
-15.115	0.004093
-15.110	0.004107
-15.105	0.004086
-15.100	0.004106
-15.095	0.004057
-15.090	0.004071
-15.085	0.004064
-15.080	0.004060
-15.075	0.004052
-15.070	0.004072
-15.065	0.004112
-15.060	0.004085
-15.055	0.004099
-15.050	0.004086
-15.045	0.004086
-15.040	0.004079
-15.035	0.004072
-15.030	0.004071
-15.025	0.004084
-15.020	0.004063
-15.015	0.004030
-15.010	0.004087
-15.005	0.004079
-15.000	0.004070
-14.995	0.004055
-14.990	0.004054
-14.985	0.004046
-14.980	0.004046
-14.975	0.004044
-14.970	0.004057
-14.965	0.004036
-14.960	0.004029
-14.955	0.004047
-14.950	0.004048
-14.945	0.004028
-14.940	0.004034
-14.935	0.004039
-14.930	0.004052
-14.925	0.004045
-14.920	0.004017
-14.915	0.004023
-14.910	0.004009
-14.905	0.004050
-14.900	0.004015
-14.895	0.003980
-14.890	0.003999
-14.885	0.003978
-14.880	0.004000
-14.875	0.003986
-14.870	0.003986
-14.865	0.004046
-14.860	0.003963
-14.855	0.003976
-14.850	0.004010
-14.845	0.003954
-14.840	0.003947
-14.835	0.003980
-14.830	0.003932
-14.825	0.003973
-14.820	0.003939
-14.815	0.003953
-14.810	0.003914
-14.805	0.003926
-14.800	0.003932
-14.795	0.003932
-14.790	0.003946
-14.785	0.003939
-14.780	0.003974
-14.775	0.003932
-14.770	0.003932
-14.765	0.003904
-14.760	0.003911
-14.755	0.003890
-14.750	0.003911
-14.745	0.003886
-14.740	0.003906
-14.735	0.003899
-14.730	0.003906
-14.725	0.003933
-14.720	0.003899
-14.715	0.003919
-14.710	0.003905
-14.705	0.003878
-14.700	0.003878
-14.695	0.003884
-14.690	0.003905
-14.685	0.003870
-14.680	0.003900
-14.675	0.003893
-14.670	0.003865
-14.665	0.003899
-14.660	0.003885
-14.655	0.003899
-14.650	0.003872
-14.645	0.003885
-14.640	0.003845
-14.635	0.003845
-14.630	0.003879
-14.625	0.003851
-14.620	0.003844
-14.615	0.003830
-14.610	0.003845
-14.605	0.003838
-14.600	0.003849
-14.595	0.003829
-14.590	0.003850
-14.585	0.003856
-14.580	0.003836
-14.575	0.003848
-14.570	0.003820
-14.565	0.003813
-14.560	0.003834
-14.555	0.003799
-14.550	0.003827
-14.545	0.003821
-14.540	0.003787
-14.535	0.003826
-14.530	0.003812
-14.525	0.003791
-14.520	0.003820
-14.515	0.003799
-14.510	0.003812
-14.505	0.003785
-14.500	0.003805
-14.495	0.003777
-14.490	0.003790
-14.485	0.003776
-14.480	0.003805
-14.475	0.003778
-14.470	0.003784
-14.465	0.003762
-14.460	0.003803
-14.455	0.003775
-14.450	0.003761
-14.445	0.003782
-14.440	0.003774
-14.435	0.003774
-14.430	0.003753
-14.425	0.003738
-14.420	0.003752
-14.415	0.003732
-14.410	0.003754
-14.405	0.003752
-14.400	0.003765
-14.395	0.003758
-14.390	0.003738
-14.385	0.003745
-14.380	0.003765
-14.375	0.003730
-14.370	0.003723
-14.365	0.003716
-14.360	0.003723
-14.355	0.003744
-14.350	0.003716
-14.345	0.003698
-14.340	0.003697
-14.335	0.003696
-14.330	0.003703
-14.325	0.003703
-14.320	0.003736
-14.315	0.003709
-14.310	0.003716
-14.305	0.003715
-14.300	0.003694
-14.295	0.003715
-14.290	0.003674
-14.285	0.003680
-14.280	0.003662
-14.275	0.003703
-14.270	0.003682
-14.265	0.003653
-14.260	0.003681
-14.255	0.003660
-14.250	0.003681
-14.245	0.003674
-14.240	0.003694
-14.235	0.003646
-14.230	0.003660
-14.225	0.003661
-14.220	0.003660
-14.215	0.003647
-14.210	0.003663
-14.205	0.003662
-14.200	0.003633
-14.195	0.003653
-14.190	0.003667
-14.185	0.003653
-14.180	0.003646
-14.175	0.003625
-14.170	0.003618
-14.165	0.003604
-14.160	0.003624
-14.155	0.003604
-14.150	0.003659
-14.145	0.003606
-14.140	0.003626
-14.135	0.003597
-14.130	0.003597
-14.125	0.003604
-14.120	0.003619
-14.115	0.003618
-14.110	0.003598
-14.105	0.003645
-14.100	0.003617
-14.095	0.003611
-14.090	0.003555
-14.085	0.003575
-14.080	0.003577
-14.075	0.003591
-14.070	0.003591
-14.065	0.003576
-14.060	0.003583
-14.055	0.003576
-14.050	0.003590
-14.045	0.003542
-14.040	0.003575
-14.035	0.003554
-14.030	0.003568
-14.025	0.003568
-14.020	0.003554
-14.015	0.003527
-14.010	0.003529
-14.005	0.003534
-14.000	0.003574
-13.995	0.003547
-13.990	0.003555
-13.985	0.003547
-13.980	0.003548
-13.975	0.003561
-13.970	0.003548
-13.965	0.003513
-13.960	0.003526
-13.955	0.003526
-13.950	0.003520
-13.945	0.003521
-13.940	0.003514
-13.935	0.003526
-13.930	0.003526
-13.925	0.003513
-13.920	0.003554
-13.915	0.003498
-13.910	0.003519
-13.905	0.003505
-13.900	0.003484
-13.895	0.003470
-13.890	0.003498
-13.885	0.003492
-13.880	0.003459
-13.875	0.003521
-13.870	0.003527
-13.865	0.003492
-13.860	0.003499
-13.855	0.003492
-13.850	0.003478
-13.845	0.003492
-13.840	0.003478
-13.835	0.003470
-13.830	0.003443
-13.825	0.003449
-13.820	0.003435
-13.815	0.003471
-13.810	0.003479
-13.805	0.003437
-13.800	0.003484
-13.795	0.003490
-13.790	0.003489
-13.785	0.003482
-13.780	0.003469
-13.775	0.003455
-13.770	0.003461
-13.765	0.003468
-13.760	0.003434
-13.755	0.003440
-13.750	0.003441
-13.745	0.003463
-13.740	0.003449
-13.735	0.003481
-13.730	0.003460
-13.725	0.003440
-13.720	0.003475
-13.715	0.003426
-13.710	0.003460
-13.705	0.003468
-13.700	0.003406
-13.695	0.003433
-13.690	0.003419
-13.685	0.003391
-13.680	0.003455
-13.675	0.003379
-13.670	0.003419
-13.665	0.003417
-13.660	0.003404
-13.655	0.003425
-13.650	0.003418
-13.645	0.003397
-13.640	0.003404
-13.635	0.003404
-13.630	0.003403
-13.625	0.003383
-13.620	0.003390
-13.615	0.003384
-13.610	0.003365
-13.605	0.003412
-13.600	0.003384
-13.595	0.003398
-13.590	0.003406
-13.585	0.003385
-13.580	0.003351
-13.575	0.003358
-13.570	0.003357
-13.565	0.003344
-13.560	0.003379
-13.555	0.003357
-13.550	0.003351
-13.545	0.003325
-13.540	0.003381
-13.535	0.003372
-13.530	0.003387
-13.525	0.003359
-13.520	0.003352
-13.515	0.003346
-13.510	0.003318
-13.505	0.003318
-13.500	0.003305
-13.495	0.003325
-13.490	0.003333
-13.485	0.003325
-13.480	0.003308
-13.475	0.003321
-13.470	0.003328
-13.465	0.003321
-13.460	0.003322
-13.455	0.003294
-13.450	0.003337
-13.445	0.003323
-13.440	0.003309
-13.435	0.003317
-13.430	0.003296
-13.425	0.003296
-13.420	0.003283
-13.415	0.003312
-13.410	0.003306
-13.405	0.003305
-13.400	0.003325
-13.395	0.003297
-13.390	0.003339
-13.385	0.003311
-13.380	0.003290
-13.375	0.003296
-13.370	0.003289
-13.365	0.003255
-13.360	0.003275
-13.355	0.003303
-13.350	0.003276
-13.345	0.003305
-13.340	0.003290
-13.335	0.003255
-13.330	0.003268
-13.325	0.003283
-13.320	0.003242
-13.315	0.003276
-13.310	0.003303
-13.305	0.003220
-13.300	0.003275
-13.295	0.003240
-13.290	0.003261
-13.285	0.003253
-13.280	0.003255
-13.275	0.003255
-13.270	0.003288
-13.265	0.003273
-13.260	0.003253
-13.255	0.003280
-13.250	0.003273
-13.245	0.003266
-13.240	0.003259
-13.235	0.003238
-13.230	0.003231
-13.225	0.003244
-13.220	0.003251
-13.215	0.003252
-13.210	0.003232
-13.205	0.003244
-13.200	0.003244
-13.195	0.003223
-13.190	0.003230
-13.185	0.003237
-13.180	0.003209
-13.175	0.003216
-13.170	0.003202
-13.165	0.003215
-13.160	0.003202
-13.155	0.003208
-13.150	0.003174
-13.145	0.003203
-13.140	0.003216
-13.135	0.003228
-13.130	0.003234
-13.125	0.003207
-13.120	0.003214
-13.115	0.003208
-13.110	0.003214
-13.105	0.003186
-13.100	0.003172
-13.095	0.003165
-13.090	0.003186
-13.085	0.003172
-13.080	0.003168
-13.075	0.003167
-13.070	0.003201
-13.065	0.003194
-13.060	0.003166
-13.055	0.003159
-13.050	0.003166
-13.045	0.003105
-13.040	0.003111
-13.035	0.003166
-13.030	0.003159
-13.025	0.003132
-13.020	0.003132
-13.015	0.003133
-13.010	0.003169
-13.005	0.003133
-13.000	0.003139
-12.995	0.003160
-12.990	0.003140
-12.985	0.003118
-12.980	0.003125
-12.975	0.003160
-12.970	0.003111
-12.965	0.003132
-12.960	0.003098
-12.955	0.003125
-12.950	0.003071
-12.945	0.003086
-12.940	0.003099
-12.935	0.003118
-12.930	0.003091
-12.925	0.003091
-12.920	0.003119
-12.915	0.003097
-12.910	0.003084
-12.905	0.003112
-12.900	0.003105
-12.895	0.003091
-12.890	0.003077
-12.885	0.003070
-12.880	0.003065
-12.875	0.003079
-12.870	0.003071
-12.865	0.003098
-12.860	0.003098
-12.855	0.003077
-12.850	0.003090
-12.845	0.003083
-12.840	0.003069
-12.835	0.003082
-12.830	0.003076
-12.825	0.003069
-12.820	0.003041
-12.815	0.003049
-12.810	0.003043
-12.805	0.003055
-12.800	0.003047
-12.795	0.003082
-12.790	0.003082
-12.785	0.003068
-12.780	0.003075
-12.775	0.003033
-12.770	0.003054
-12.765	0.003047
-12.760	0.003067
-12.755	0.003060
-12.750	0.003019
-12.745	0.003034
-12.740	0.003040
-12.735	0.003053
-12.730	0.003019
-12.725	0.003053
-12.720	0.003053
-12.715	0.003046
-12.710	0.003053
-12.705	0.003025
-12.700	0.003004
-12.695	0.003004
-12.690	0.003032
-12.685	0.003011
-12.680	0.002999
-12.675	0.002999
-12.670	0.003031
-12.665	0.003010
-12.660	0.003018
-12.655	0.003024
-12.650	0.003011
-12.645	0.003017
-12.640	0.002996
-12.635	0.002982
-12.630	0.003003
-12.625	0.002989
-12.620	0.002968
-12.615	0.003004
-12.610	0.002998
-12.605	0.002983
-12.600	0.002989
-12.595	0.003010
-12.590	0.002996
-12.585	0.002989
-12.580	0.002982
-12.575	0.002994
-12.570	0.002981
-12.565	0.002988
-12.560	0.002981
-12.555	0.002974
-12.550	0.002969
-12.545	0.002963
-12.540	0.002969
-12.535	0.002960
-12.530	0.002967
-12.525	0.002960
-12.520	0.003002
-12.515	0.002953
-12.510	0.002967
-12.505	0.002926
-12.500	0.002967
-12.495	0.002994
-12.490	0.002974
-12.485	0.002946
-12.480	0.002942
-12.475	0.002927
-12.470	0.002954
-12.465	0.002940
-12.460	0.002947
-12.455	0.002939
-12.450	0.002946
-12.445	0.002967
-12.440	0.002946
-12.435	0.002911
-12.430	0.002925
-12.425	0.002904
-12.420	0.002918
-12.415	0.002926
-12.410	0.002892
-12.405	0.002946
-12.400	0.002945
-12.395	0.002924
-12.390	0.002932
-12.385	0.002939
-12.380	0.002925
-12.375	0.002918
-12.370	0.002897
-12.365	0.002918
-12.360	0.002931
-12.355	0.002876
-12.350	0.002918
-12.345	0.002891
-12.340	0.002904
-12.335	0.002896
-12.330	0.002910
-12.325	0.002889
-12.320	0.002910
-12.315	0.002861
-12.310	0.002889
-12.305	0.002895
-12.300	0.002888
-12.295	0.002874
-12.290	0.002874
-12.285	0.002881
-12.280	0.002869
-12.275	0.002862
-12.270	0.002874
-12.265	0.002901
-12.260	0.002867
-12.255	0.002867
-12.250	0.002826
-12.245	0.002860
-12.240	0.002895
-12.235	0.002846
-12.230	0.002860
-12.225	0.002853
-12.220	0.002853
-12.215	0.002840
-12.210	0.002834
-12.205	0.002860
-12.200	0.002846
-12.195	0.002852
-12.190	0.002831
-12.185	0.002838
-12.180	0.002831
-12.175	0.002831
-12.170	0.002858
-12.165	0.002851
-12.160	0.002824
-12.155	0.002824
-12.150	0.002831
-12.145	0.002825
-12.140	0.002803
-12.135	0.002857
-12.130	0.002851
-12.125	0.002830
-12.120	0.002830
-12.115	0.002789
-12.110	0.002810
-12.105	0.002809
-12.100	0.002809
-12.095	0.002809
-12.090	0.002809
-12.085	0.002795
-12.080	0.002804
-12.075	0.002796
-12.070	0.002802
-12.065	0.002788
-12.060	0.002815
-12.055	0.002802
-12.050	0.002801
-12.045	0.002801
-12.040	0.002808
-12.035	0.002794
-12.030	0.002801
-12.025	0.002766
-12.020	0.002753
-12.015	0.002789
-12.010	0.002803
-12.005	0.002795
-12.000	0.002795
-11.995	0.002815
-11.990	0.002788
-11.985	0.002816
-11.980	0.002795
-11.975	0.002781
-11.970	0.002761
-11.965	0.002794
-11.960	0.002788
-11.955	0.002767
-11.950	0.002768
-11.945	0.002762
-11.940	0.002748
-11.935	0.002781
-11.930	0.002740
-11.925	0.002801
-11.920	0.002768
-11.915	0.002768
-11.910	0.002761
-11.905	0.002733
-11.900	0.002747
-11.895	0.002747
-11.890	0.002712
-11.885	0.002733
-11.880	0.002762
-11.875	0.002768
-11.870	0.002726
-11.865	0.002726
-11.860	0.002760
-11.855	0.002747
-11.850	0.002754
-11.845	0.002748
-11.840	0.002700
-11.835	0.002727
-11.830	0.002720
-11.825	0.002754
-11.820	0.002678
-11.815	0.002714
-11.810	0.002715
-11.805	0.002715
-11.800	0.002734
-11.795	0.002706
-11.790	0.002748
-11.785	0.002714
-11.780	0.002686
-11.775	0.002707
-11.770	0.002700
-11.765	0.002692
-11.760	0.002685
-11.755	0.002692
-11.750	0.002714
-11.745	0.002681
-11.740	0.002700
-11.735	0.002686
-11.730	0.002700
-11.725	0.002707
-11.720	0.002693
-11.715	0.002652
-11.710	0.002693
-11.705	0.002631
-11.700	0.002666
-11.695	0.002624
-11.690	0.002672
-11.685	0.002637
-11.680	0.002652
-11.675	0.002630
-11.670	0.002650
-11.665	0.002636
-11.660	0.002671
-11.655	0.002657
-11.650	0.002684
-11.645	0.002650
-11.640	0.002643
-11.635	0.002629
-11.630	0.002629
-11.625	0.002615
-11.620	0.002650
-11.615	0.002644
-11.610	0.002643
-11.605	0.002628
-11.600	0.002649
-11.595	0.002641
-11.590	0.002634
-11.585	0.002620
-11.580	0.002593
-11.575	0.002655
-11.570	0.002607
-11.565	0.002585
-11.560	0.002620
-11.555	0.002599
-11.550	0.002621
-11.545	0.002601
-11.540	0.002628
-11.535	0.002627
-11.530	0.002607
-11.525	0.002627
-11.520	0.002620
-11.515	0.002585
-11.510	0.002620
-11.505	0.002593
-11.500	0.002613
-11.495	0.002613
-11.490	0.002600
-11.485	0.002600
-11.480	0.002588
-11.475	0.002607
-11.470	0.002565
-11.465	0.002627
-11.460	0.002586
-11.455	0.002621
-11.450	0.002607
-11.445	0.002614
-11.440	0.002594
-11.435	0.002586
-11.430	0.002593
-11.425	0.002551
-11.420	0.002607
-11.415	0.002580
-11.410	0.002581
-11.405	0.002579
-11.400	0.002579
-11.395	0.002572
-11.390	0.002572
-11.385	0.002585
-11.380	0.002578
-11.375	0.002578
-11.370	0.002558
-11.365	0.002571
-11.360	0.002544
-11.355	0.002558
-11.350	0.002545
-11.345	0.002539
-11.340	0.002538
-11.335	0.002531
-11.330	0.002580
-11.325	0.002546
-11.320	0.002567
-11.315	0.002519
-11.310	0.002554
-11.305	0.002533
-11.300	0.002526
-11.295	0.002512
-11.290	0.002505
-11.285	0.002512
-11.280	0.002542
-11.275	0.002548
-11.270	0.002540
-11.265	0.002513
-11.260	0.002527
-11.255	0.002554
-11.250	0.002527
-11.245	0.002534
-11.240	0.002487
-11.235	0.002479
-11.230	0.002500
-11.225	0.002500
-11.220	0.002493
-11.215	0.002522
-11.210	0.002509
-11.205	0.002508
-11.200	0.002487
-11.195	0.002515
-11.190	0.002516
-11.185	0.002488
-11.180	0.002529
-11.175	0.002481
-11.170	0.002509
-11.165	0.002474
-11.160	0.002475
-11.155	0.002503
-11.150	0.002497
-11.145	0.002469
-11.140	0.002503
-11.135	0.002488
-11.130	0.002468
-11.125	0.002482
-11.120	0.002490
-11.115	0.002489
-11.110	0.002516
-11.105	0.002474
-11.100	0.002501
-11.095	0.002473
-11.090	0.002480
-11.085	0.002480
-11.080	0.002454
-11.075	0.002453
-11.070	0.002479
-11.065	0.002486
-11.060	0.002452
-11.055	0.002492
-11.050	0.002458
-11.045	0.002450
-11.040	0.002498
-11.035	0.002463
-11.030	0.002449
-11.025	0.002449
-11.020	0.002456
-11.015	0.002443
-11.010	0.002464
-11.005	0.002462
-11.000	0.002489
-10.995	0.002455
-10.990	0.002455
-10.985	0.002441
-10.980	0.002489
-10.975	0.002447
-10.970	0.002454
-10.965	0.002419
-10.960	0.002412
-10.955	0.002432
-10.950	0.002420
-10.945	0.002427
-10.940	0.002419
-10.935	0.002438
-10.930	0.002425
-10.925	0.002451
-10.920	0.002417
-10.915	0.002417
-10.910	0.002431
-10.905	0.002375
-10.900	0.002410
-10.895	0.002389
-10.890	0.002403
-10.885	0.002355
-10.880	0.002404
-10.875	0.002403
-10.870	0.002395
-10.865	0.002374
-10.860	0.002436
-10.855	0.002429
-10.850	0.002415
-10.845	0.002394
-10.840	0.002394
-10.835	0.002373
-10.830	0.002387
-10.825	0.002407
-10.820	0.002394
-10.815	0.002333
-10.810	0.002381
-10.805	0.002380
-10.800	0.002394
-10.795	0.002387
-10.790	0.002387
-10.785	0.002401
-10.780	0.002394
-10.775	0.002366
-10.770	0.002379
-10.765	0.002352
-10.760	0.002345
-10.755	0.002379
-10.750	0.002360
-10.745	0.002353
-10.740	0.002353
-10.735	0.002344
-10.730	0.002359
-10.725	0.002352
-10.720	0.002359
-10.715	0.002379
-10.710	0.002372
-10.705	0.002351
-10.700	0.002365
-10.695	0.002351
-10.690	0.002344
-10.685	0.002365
-10.680	0.002332
-10.675	0.002345
-10.670	0.002317
-10.665	0.002345
-10.660	0.002345
-10.655	0.002359
-10.650	0.002338
-10.645	0.002345
-10.640	0.002324
-10.635	0.002317
-10.630	0.002310
-10.625	0.002323
-10.620	0.002317
-10.615	0.002312
-10.610	0.002291
-10.605	0.002304
-10.600	0.002366
-10.595	0.002303
-10.590	0.002345
-10.585	0.002310
-10.580	0.002324
-10.575	0.002317
-10.570	0.002304
-10.565	0.002310
-10.560	0.002304
-10.555	0.002290
-10.550	0.002285
-10.545	0.002285
-10.540	0.002305
-10.535	0.002312
-10.530	0.002311
-10.525	0.002325
-10.520	0.002325
-10.515	0.002305
-10.510	0.002305
-10.505	0.002319
-10.500	0.002292
-10.495	0.002257
-10.490	0.002278
-10.485	0.002313
-10.480	0.002306
-10.475	0.002292
-10.470	0.002256
-10.465	0.002305
-10.460	0.002284
-10.455	0.002318
-10.450	0.002277
-10.445	0.002263
-10.440	0.002311
-10.435	0.002297
-10.430	0.002235
-10.425	0.002297
-10.420	0.002291
-10.415	0.002216
-10.410	0.002243
-10.405	0.002263
-10.400	0.002262
-10.395	0.002262
-10.390	0.002270
-10.385	0.002297
-10.380	0.002283
-10.375	0.002270
-10.370	0.002276
-10.365	0.002262
-10.360	0.002249
-10.355	0.002283
-10.350	0.002243
-10.345	0.002257
-10.340	0.002263
-10.335	0.002255
-10.330	0.002249
-10.325	0.002255
-10.320	0.002256
-10.315	0.002248
-10.310	0.002235
-10.305	0.002220
-10.300	0.002241
-10.295	0.002233
-10.290	0.002206
-10.285	0.002227
-10.280	0.002228
-10.275	0.002228
-10.270	0.002233
-10.265	0.002254
-10.260	0.002220
-10.255	0.002206
-10.250	0.002248
-10.245	0.002227
-10.240	0.002227
-10.235	0.002233
-10.230	0.002192
-10.225	0.002178
-10.220	0.002206
-10.215	0.002221
-10.210	0.002186
-10.205	0.002234
-10.200	0.002178
-10.195	0.002199
-10.190	0.002227
-10.185	0.002206
-10.180	0.002206
-10.175	0.002185
-10.170	0.002205
-10.165	0.002205
-10.160	0.002191
-10.155	0.002171
-10.150	0.002207
-10.145	0.002138
-10.140	0.002192
-10.135	0.002178
-10.130	0.002178
-10.125	0.002171
-10.120	0.002171
-10.115	0.002212
-10.110	0.002171
-10.105	0.002164
-10.100	0.002177
-10.095	0.002150
-10.090	0.002157
-10.085	0.002199
-10.080	0.002172
-10.075	0.002171
-10.070	0.002184
-10.065	0.002157
-10.060	0.002178
-10.055	0.002198
-10.050	0.002185
-10.045	0.002177
-10.040	0.002163
-10.035	0.002156
-10.030	0.002177
-10.025	0.002135
-10.020	0.002184
-10.015	0.002171
-10.010	0.002164
-10.005	0.002149
-10.000	0.002149
-9.995	0.002163
-9.990	0.002129
-9.985	0.002177
-9.980	0.002191
-9.975	0.002136
-9.970	0.002156
-9.965	0.002150
-9.960	0.002156
-9.955	0.002149
-9.950	0.002150
-9.945	0.002151
-9.940	0.002137
-9.935	0.002143
-9.930	0.002170
-9.925	0.002128
-9.920	0.002108
-9.915	0.002129
-9.910	0.002184
-9.905	0.002142
-9.900	0.002163
-9.895	0.002135
-9.890	0.002135
-9.885	0.002123
-9.880	0.002137
-9.875	0.002115
-9.870	0.002115
-9.865	0.002129
-9.860	0.002129
-9.855	0.002108
-9.850	0.002122
-9.845	0.002150
-9.840	0.002115
-9.835	0.002081
-9.830	0.002122
-9.825	0.002108
-9.820	0.002088
-9.815	0.002089
-9.810	0.002116
-9.805	0.002115
-9.800	0.002108
-9.795	0.002080
-9.790	0.002087
-9.785	0.002108
-9.780	0.002101
-9.775	0.002128
-9.770	0.002093
-9.765	0.002100
-9.760	0.002100
-9.755	0.002107
-9.750	0.002074
-9.745	0.002088
-9.740	0.002102
-9.735	0.002102
-9.730	0.002082
-9.725	0.002096
-9.720	0.002123
-9.715	0.002089
-9.710	0.002054
-9.705	0.002095
-9.700	0.002082
-9.695	0.002062
-9.690	0.002062
-9.685	0.002090
-9.680	0.002089
-9.675	0.002082
-9.670	0.002054
-9.665	0.002061
-9.660	0.002082
-9.655	0.002074
-9.650	0.002101
-9.645	0.002067
-9.640	0.002074
-9.635	0.002074
-9.630	0.002081
-9.625	0.002048
-9.620	0.002089
-9.615	0.002040
-9.610	0.002067
-9.605	0.002074
-9.600	0.002074
-9.595	0.002061
-9.590	0.002054
-9.585	0.002047
-9.580	0.002040
-9.575	0.002026
-9.570	0.002039
-9.565	0.002032
-9.560	0.002026
-9.555	0.002020
-9.550	0.002006
-9.545	0.002039
-9.540	0.002019
-9.535	0.002026
-9.530	0.002039
-9.525	0.001984
-9.520	0.001984
-9.515	0.001998
-9.510	0.001962
-9.505	0.001936
-9.500	0.001888
-9.495	0.001881
-9.490	0.001779
-9.485	0.001613
-9.480	0.001303
-9.475	0.000773
-9.470	-0.000018
-9.465	-0.001113
-9.460	-0.002587
-9.455	-0.004482
-9.450	-0.006861
-9.445	-0.009533
-9.440	-0.012655
-9.435	-0.015982
-9.430	-0.019648
-9.425	-0.023686
-9.420	-0.028027
-9.415	-0.032373
-9.410	-0.036757
-9.405	-0.040955
-9.400	-0.044955
-9.395	-0.048674
-9.390	-0.051803
-9.385	-0.053528
-9.380	-0.052964
-9.375	-0.050298
-9.370	-0.046314
-9.365	-0.042152
-9.360	-0.038335
-9.355	-0.035263
-9.350	-0.032710
-9.345	-0.030744
-9.340	-0.029209
-9.335	-0.027902
-9.330	-0.026806
-9.325	-0.025829
-9.320	-0.025000
-9.315	-0.024289
-9.310	-0.023591
-9.305	-0.023015
-9.300	-0.022450
-9.295	-0.021880
-9.290	-0.021395
-9.285	-0.020903
-9.280	-0.020436
-9.275	-0.020056
-9.270	-0.019691
-9.265	-0.019336
-9.260	-0.018988
-9.255	-0.018649
-9.250	-0.018245
-9.245	-0.017942
-9.240	-0.017734
-9.235	-0.017465
-9.230	-0.017084
-9.225	-0.016744
-9.220	-0.016487
-9.215	-0.016299
-9.210	-0.016101
-9.205	-0.015881
-9.200	-0.015588
-9.195	-0.015261
-9.190	-0.014937
-9.185	-0.014587
-9.180	-0.014273
-9.175	-0.014010
-9.170	-0.013713
-9.165	-0.013540
-9.160	-0.013410
-9.155	-0.013203
-9.150	-0.013042
-9.145	-0.012863
-9.140	-0.012734
-9.135	-0.012564
-9.130	-0.012386
-9.125	-0.012321
-9.120	-0.012196
-9.115	-0.012068
-9.110	-0.011919
-9.105	-0.011799
-9.100	-0.011687
-9.095	-0.011509
-9.090	-0.011390
-9.085	-0.011304
-9.080	-0.011148
-9.075	-0.011067
-9.070	-0.010901
-9.065	-0.010861
-9.060	-0.010756
-9.055	-0.010645
-9.050	-0.010526
-9.045	-0.010451
-9.040	-0.010355
-9.035	-0.010244
-9.030	-0.010146
-9.025	-0.010067
-9.020	-0.009984
-9.015	-0.009884
-9.010	-0.009786
-9.005	-0.009696
-9.000	-0.009620
-8.995	-0.009522
-8.990	-0.009481
-8.985	-0.009365
-8.980	-0.009309
-8.975	-0.009220
-8.970	-0.009159
-8.965	-0.009111
-8.960	-0.009028
-8.955	-0.008917
-8.950	-0.008875
-8.945	-0.008785
-8.940	-0.008708
-8.935	-0.008639
-8.930	-0.008618
-8.925	-0.008531
-8.920	-0.008461
-8.915	-0.008419
-8.910	-0.008349
-8.905	-0.008307
-8.900	-0.008191
-8.895	-0.008165
-8.890	-0.008118
-8.885	-0.008028
-8.880	-0.007984
-8.875	-0.007950
-8.870	-0.007860
-8.865	-0.007825
-8.860	-0.007763
-8.855	-0.007695
-8.850	-0.007639
-8.845	-0.007597
-8.840	-0.007563
-8.835	-0.007528
-8.830	-0.007513
-8.825	-0.007399
-8.820	-0.007364
-8.815	-0.007343
-8.810	-0.007288
-8.805	-0.007254
-8.800	-0.007218
-8.795	-0.007176
-8.790	-0.007169
-8.785	-0.007101
-8.780	-0.007053
-8.775	-0.007012
-8.770	-0.007006
-8.765	-0.006965
-8.760	-0.006918
-8.755	-0.006862
-8.750	-0.006833
-8.745	-0.006783
-8.740	-0.006749
-8.735	-0.006736
-8.730	-0.006661
-8.725	-0.006640
-8.720	-0.006593
-8.715	-0.006620
-8.710	-0.006570
-8.705	-0.006521
-8.700	-0.006507
-8.695	-0.006426
-8.690	-0.006393
-8.685	-0.006344
-8.680	-0.006307
-8.675	-0.006308
-8.670	-0.006226
-8.665	-0.006232
-8.660	-0.006191
-8.655	-0.006150
-8.650	-0.006143
-8.645	-0.006135
-8.640	-0.006080
-8.635	-0.006032
-8.630	-0.006032
-8.625	-0.005979
-8.620	-0.005965
-8.615	-0.005922
-8.610	-0.005880
-8.605	-0.005840
-8.600	-0.005791
-8.595	-0.005777
-8.590	-0.005750
-8.585	-0.005736
-8.580	-0.005743
-8.575	-0.005708
-8.570	-0.005639
-8.565	-0.005648
-8.560	-0.005615
-8.555	-0.005587
-8.550	-0.005567
-8.545	-0.005526
-8.540	-0.005486
-8.535	-0.005442
-8.530	-0.005446
-8.525	-0.005424
-8.520	-0.005430
-8.515	-0.005429
-8.510	-0.005345
-8.505	-0.005234
-8.500	-0.005184
-8.495	-0.005133
-8.490	-0.005108
-8.485	-0.005065
-8.480	-0.004949
-8.475	-0.004880
-8.470	-0.004845
-8.465	-0.004933
-8.460	-0.005052
-8.455	-0.005131
-8.450	-0.005102
-8.445	-0.005047
-8.440	-0.005031
-8.435	-0.005002
-8.430	-0.005029
-8.425	-0.004996
-8.420	-0.004988
-8.415	-0.004933
-8.410	-0.004960
-8.405	-0.004939
-8.400	-0.004925
-8.395	-0.004925
-8.390	-0.004910
-8.385	-0.004875
-8.380	-0.004819
-8.375	-0.004846
-8.370	-0.004831
-8.365	-0.004782
-8.360	-0.004809
-8.355	-0.004741
-8.350	-0.004691
-8.345	-0.004670
-8.340	-0.004669
-8.335	-0.004628
-8.330	-0.004621
-8.325	-0.004593
-8.320	-0.004592
-8.315	-0.004606
-8.310	-0.004565
-8.305	-0.004551
-8.300	-0.004509
-8.295	-0.004510
-8.290	-0.004504
-8.285	-0.004462
-8.280	-0.004427
-8.275	-0.004434
-8.270	-0.004420
-8.265	-0.004372
-8.260	-0.004413
-8.255	-0.004379
-8.250	-0.004324
-8.245	-0.004351
-8.240	-0.004344
-8.235	-0.004310
-8.230	-0.004304
-8.225	-0.004264
-8.220	-0.004242
-8.215	-0.004242
-8.210	-0.004214
-8.205	-0.004180
-8.200	-0.004194
-8.195	-0.004166
-8.190	-0.004166
-8.185	-0.004124
-8.180	-0.004118
-8.175	-0.004132
-8.170	-0.004084
-8.165	-0.004070
-8.160	-0.004050
-8.155	-0.004058
-8.150	-0.004009
-8.145	-0.004008
-8.140	-0.004008
-8.135	-0.003967
-8.130	-0.003933
-8.125	-0.003954
-8.120	-0.003967
-8.115	-0.003919
-8.110	-0.003940
-8.105	-0.003892
-8.100	-0.003926
-8.095	-0.003893
-8.090	-0.003872
-8.085	-0.003845
-8.080	-0.003850
-8.075	-0.003809
-8.070	-0.003803
-8.065	-0.003810
-8.060	-0.003768
-8.055	-0.003768
-8.050	-0.003761
-8.045	-0.003741
-8.040	-0.003755
-8.035	-0.003755
-8.030	-0.003721
-8.025	-0.003702
-8.020	-0.003661
-8.015	-0.003667
-8.010	-0.003660
-8.005	-0.003627
-8.000	-0.003654
-7.995	-0.003613
-7.990	-0.003600
-7.985	-0.003641
-7.980	-0.003627
-7.975	-0.003613
-7.970	-0.003578
-7.965	-0.003585
-7.960	-0.003579
-7.955	-0.003579
-7.950	-0.003550
-7.945	-0.003536
-7.940	-0.003488
-7.935	-0.003522
-7.930	-0.003522
-7.925	-0.003481
-7.920	-0.003439
-7.915	-0.003488
-7.910	-0.003487
-7.905	-0.003460
-7.900	-0.003481
-7.895	-0.003440
-7.890	-0.003426
-7.885	-0.003420
-7.880	-0.003405
-7.875	-0.003371
-7.870	-0.003364
-7.865	-0.003413
-7.860	-0.003378
-7.855	-0.003330
-7.850	-0.003357
-7.845	-0.003323
-7.840	-0.003289
-7.835	-0.003289
-7.830	-0.003303
-7.825	-0.003296
-7.820	-0.003289
-7.815	-0.003289
-7.810	-0.003261
-7.805	-0.003254
-7.800	-0.003233
-7.795	-0.003206
-7.790	-0.003227
-7.785	-0.003254
-7.780	-0.003220
-7.775	-0.003206
-7.770	-0.003199
-7.765	-0.003193
-7.760	-0.003186
-7.755	-0.003200
-7.750	-0.003193
-7.745	-0.003151
-7.740	-0.003138
-7.735	-0.003124
-7.730	-0.003131
-7.725	-0.003138
-7.720	-0.003103
-7.715	-0.003124
-7.710	-0.003083
-7.705	-0.003104
-7.700	-0.003090
-7.695	-0.003104
-7.690	-0.003091
-7.685	-0.003077
-7.680	-0.003069
-7.675	-0.003062
-7.670	-0.003049
-7.665	-0.003028
-7.660	-0.003042
-7.655	-0.003022
-7.650	-0.003036
-7.645	-0.003015
-7.640	-0.003015
-7.635	-0.002995
-7.630	-0.002996
-7.625	-0.002948
-7.620	-0.002983
-7.615	-0.002941
-7.610	-0.002934
-7.605	-0.002913
-7.600	-0.002899
-7.595	-0.002906
-7.590	-0.002920
-7.585	-0.002892
-7.580	-0.002885
-7.575	-0.002878
-7.570	-0.002878
-7.565	-0.002892
-7.560	-0.002858
-7.555	-0.002852
-7.550	-0.002837
-7.545	-0.002810
-7.540	-0.002823
-7.535	-0.002830
-7.530	-0.002823
-7.525	-0.002850
-7.520	-0.002802
-7.515	-0.002823
-7.510	-0.002809
-7.505	-0.002850
-7.500	-0.002809
-7.495	-0.002803
-7.490	-0.002782
-7.485	-0.002768
-7.480	-0.002768
-7.475	-0.002740
-7.470	-0.002775
-7.465	-0.002761
-7.460	-0.002720
-7.455	-0.002727
-7.450	-0.002720
-7.445	-0.002699
-7.440	-0.002671
-7.435	-0.002692
-7.430	-0.002651
-7.425	-0.002659
-7.420	-0.002651
-7.415	-0.002637
-7.410	-0.002617
-7.405	-0.002610
-7.400	-0.002603
-7.395	-0.002589
-7.390	-0.002582
-7.385	-0.002617
-7.380	-0.002596
-7.375	-0.002569
-7.370	-0.002589
-7.365	-0.002562
-7.360	-0.002576
-7.355	-0.002556
-7.350	-0.002569
-7.345	-0.002548
-7.340	-0.002535
-7.335	-0.002521
-7.330	-0.002542
-7.325	-0.002556
-7.320	-0.002528
-7.315	-0.002535
-7.310	-0.002514
-7.305	-0.002514
-7.300	-0.002452
-7.295	-0.002501
-7.290	-0.002487
-7.285	-0.002453
-7.280	-0.002452
-7.275	-0.002446
-7.270	-0.002432
-7.265	-0.002453
-7.260	-0.002453
-7.255	-0.002425
-7.250	-0.002432
-7.245	-0.002411
-7.240	-0.002425
-7.235	-0.002432
-7.230	-0.002384
-7.225	-0.002411
-7.220	-0.002404
-7.215	-0.002370
-7.210	-0.002356
-7.205	-0.002377
-7.200	-0.002404
-7.195	-0.002363
-7.190	-0.002390
-7.185	-0.002377
-7.180	-0.002370
-7.175	-0.002349
-7.170	-0.002363
-7.165	-0.002356
-7.160	-0.002329
-7.155	-0.002322
-7.150	-0.002322
-7.145	-0.002315
-7.140	-0.002267
-7.135	-0.002295
-7.130	-0.002302
-7.125	-0.002240
-7.120	-0.002247
-7.115	-0.002254
-7.110	-0.002268
-7.105	-0.002247
-7.100	-0.002254
-7.095	-0.002261
-7.090	-0.002213
-7.085	-0.002220
-7.080	-0.002233
-7.075	-0.002247
-7.070	-0.002206
-7.065	-0.002199
-7.060	-0.002212
-7.055	-0.002219
-7.050	-0.002219
-7.045	-0.002212
-7.040	-0.002205
-7.035	-0.002205
-7.030	-0.002219
-7.025	-0.002212
-7.020	-0.002192
-7.015	-0.002178
-7.010	-0.002164
-7.005	-0.002171
-7.000	-0.002164
-6.995	-0.002144
-6.990	-0.002164
-6.985	-0.002130
-6.980	-0.002157
-6.975	-0.002109
-6.970	-0.002103
-6.965	-0.002144
-6.960	-0.002144
-6.955	-0.002117
-6.950	-0.002110
-6.945	-0.002089
-6.940	-0.002076
-6.935	-0.002082
-6.930	-0.002110
-6.925	-0.002083
-6.920	-0.002076
-6.915	-0.002103
-6.910	-0.002090
-6.905	-0.002014
-6.900	-0.002076
-6.895	-0.002090
-6.890	-0.002035
-6.885	-0.002076
-6.880	-0.002056
-6.875	-0.002056
-6.870	-0.002056
-6.865	-0.002077
-6.860	-0.002077
-6.855	-0.002035
-6.850	-0.002070
-6.845	-0.002063
-6.840	-0.002063
-6.835	-0.002070
-6.830	-0.002098
-6.825	-0.002071
-6.820	-0.002098
-6.815	-0.002098
-6.810	-0.002105
-6.805	-0.002105
-6.800	-0.002071
-6.795	-0.002119
-6.790	-0.002126
-6.785	-0.002078
-6.780	-0.002092
-6.775	-0.002057
-6.770	-0.002078
-6.765	-0.002071
-6.760	-0.002078
-6.755	-0.002037
-6.750	-0.002030
-6.745	-0.002037
-6.740	-0.002016
-6.735	-0.002030
-6.730	-0.001995
-6.725	-0.001995
-6.720	-0.002016
-6.715	-0.001995
-6.710	-0.002009
-6.705	-0.002023
-6.700	-0.002009
-6.695	-0.001996
-6.690	-0.001982
-6.685	-0.001975
-6.680	-0.001995
-6.675	-0.001988
-6.670	-0.001982
-6.665	-0.001947
-6.660	-0.001968
-6.655	-0.001988
-6.650	-0.001988
-6.645	-0.001988
-6.640	-0.002002
-6.635	-0.002009
-6.630	-0.001981
-6.625	-0.001974
-6.620	-0.002002
-6.615	-0.001961
-6.610	-0.001974
-6.605	-0.001947
-6.600	-0.001912
-6.595	-0.001919
-6.590	-0.001933
-6.585	-0.001899
-6.580	-0.001912
-6.575	-0.001878
-6.570	-0.001892
-6.565	-0.001906
-6.560	-0.001892
-6.555	-0.001837
-6.550	-0.001844
-6.545	-0.001851
-6.540	-0.001830
-6.535	-0.001851
-6.530	-0.001830
-6.525	-0.001830
-6.520	-0.001844
-6.515	-0.001837
-6.510	-0.001817
-6.505	-0.001837
-6.500	-0.001817
-6.495	-0.001803
-6.490	-0.001824
-6.485	-0.001824
-6.480	-0.001782
-6.475	-0.001803
-6.470	-0.001769
-6.465	-0.001796
-6.460	-0.001803
-6.455	-0.001769
-6.450	-0.001817
-6.445	-0.001803
-6.440	-0.001783
-6.435	-0.001769
-6.430	-0.001783
-6.425	-0.001783
-6.420	-0.001783
-6.415	-0.001762
-6.410	-0.001783
-6.405	-0.001769
-6.400	-0.001721
-6.395	-0.001742
-6.390	-0.001721
-6.385	-0.001728
-6.380	-0.001756
-6.375	-0.001728
-6.370	-0.001749
-6.365	-0.001742
-6.360	-0.001735
-6.355	-0.001742
-6.350	-0.001728
-6.345	-0.001714
-6.340	-0.001728
-6.335	-0.001735
-6.330	-0.001749
-6.325	-0.001701
-6.320	-0.001749
-6.315	-0.001694
-6.310	-0.001701
-6.305	-0.001694
-6.300	-0.001722
-6.295	-0.001701
-6.290	-0.001674
-6.285	-0.001701
-6.280	-0.001694
-6.275	-0.001701
-6.270	-0.001646
-6.265	-0.001667
-6.260	-0.001674
-6.255	-0.001681
-6.250	-0.001646
-6.245	-0.001667
-6.240	-0.001701
-6.235	-0.001646
-6.230	-0.001660
-6.225	-0.001660
-6.220	-0.001660
-6.215	-0.001667
-6.210	-0.001660
-6.205	-0.001653
-6.200	-0.001660
-6.195	-0.001674
-6.190	-0.001667
-6.185	-0.001646
-6.180	-0.001647
-6.175	-0.001660
-6.170	-0.001633
-6.165	-0.001619
-6.160	-0.001647
-6.155	-0.001612
-6.150	-0.001640
-6.145	-0.001626
-6.140	-0.001633
-6.135	-0.001585
-6.130	-0.001633
-6.125	-0.001626
-6.120	-0.001626
-6.115	-0.001640
-6.110	-0.001606
-6.105	-0.001633
-6.100	-0.001599
-6.095	-0.001578
-6.090	-0.001599
-6.085	-0.001578
-6.080	-0.001571
-6.075	-0.001613
-6.070	-0.001585
-6.065	-0.001565
-6.060	-0.001578
-6.055	-0.001606
-6.050	-0.001565
-6.045	-0.001565
-6.040	-0.001585
-6.035	-0.001551
-6.030	-0.001579
-6.025	-0.001586
-6.020	-0.001531
-6.015	-0.001537
-6.010	-0.001551
-6.005	-0.001531
-6.000	-0.001510
-5.995	-0.001524
-5.990	-0.001531
-5.985	-0.001483
-5.980	-0.001531
-5.975	-0.001517
-5.970	-0.001503
-5.965	-0.001503
-5.960	-0.001496
-5.955	-0.001469
-5.950	-0.001462
-5.945	-0.001476
-5.940	-0.001462
-5.935	-0.001414
-5.930	-0.001448
-5.925	-0.001455
-5.920	-0.001407
-5.915	-0.001442
-5.910	-0.001407
-5.905	-0.001407
-5.900	-0.001400
-5.895	-0.001366
-5.890	-0.001366
-5.885	-0.001318
-5.880	-0.001352
-5.875	-0.001346
-5.870	-0.001373
-5.865	-0.001346
-5.860	-0.001325
-5.855	-0.001332
-5.850	-0.001339
-5.845	-0.001318
-5.840	-0.001325
-5.835	-0.001311
-5.830	-0.001353
-5.825	-0.001360
-5.820	-0.001346
-5.815	-0.001325
-5.810	-0.001367
-5.805	-0.001380
-5.800	-0.001373
-5.795	-0.001429
-5.790	-0.001449
-5.785	-0.001490
-5.780	-0.001552
-5.775	-0.001580
-5.770	-0.001642
-5.765	-0.001697
-5.760	-0.001800
-5.755	-0.001910
-5.750	-0.002014
-5.745	-0.002055
-5.740	-0.002165
-5.735	-0.002261
-5.730	-0.002365
-5.725	-0.002440
-5.720	-0.002543
-5.715	-0.002633
-5.710	-0.002667
-5.705	-0.002695
-5.700	-0.002660
-5.695	-0.002626
-5.690	-0.002599
-5.685	-0.002502
-5.680	-0.002358
-5.675	-0.002254
-5.670	-0.002131
-5.665	-0.001979
-5.660	-0.001849
-5.655	-0.001739
-5.650	-0.001574
-5.645	-0.001471
-5.640	-0.001395
-5.635	-0.001326
-5.630	-0.001244
-5.625	-0.001209
-5.620	-0.001175
-5.615	-0.001161
-5.610	-0.001134
-5.605	-0.001106
-5.600	-0.001141
-5.595	-0.001148
-5.590	-0.001168
-5.585	-0.001141
-5.580	-0.001182
-5.575	-0.001168
-5.570	-0.001203
-5.565	-0.001182
-5.560	-0.001189
-5.555	-0.001161
-5.550	-0.001168
-5.545	-0.001155
-5.540	-0.001175
-5.535	-0.001134
-5.530	-0.001175
-5.525	-0.001182
-5.520	-0.001196
-5.515	-0.001182
-5.510	-0.001169
-5.505	-0.001182
-5.500	-0.001169
-5.495	-0.001175
-5.490	-0.001155
-5.485	-0.001189
-5.480	-0.001148
-5.475	-0.001175
-5.470	-0.001182
-5.465	-0.001169
-5.460	-0.001120
-5.455	-0.001058
-5.450	-0.000900
-5.445	-0.000492
-5.440	0.000232
-5.435	0.001192
-5.430	0.002639
-5.425	0.004738
-5.420	0.007280
-5.415	0.010611
-5.410	0.014203
-5.405	0.018159
-5.400	0.022994
-5.395	0.028046
-5.390	0.033202
-5.385	0.039316
-5.380	0.045665
-5.375	0.051225
-5.370	0.056384
-5.365	0.062017
-5.360	0.067792
-5.355	0.071620
-5.350	0.072339
-5.345	0.070420
-5.340	0.066825
-5.335	0.062761
-5.330	0.058784
-5.325	0.055142
-5.320	0.052018
-5.315	0.049401
-5.310	0.047204
-5.305	0.045292
-5.300	0.043552
-5.295	0.042012
-5.290	0.040616
-5.285	0.039316
-5.280	0.038206
-5.275	0.037121
-5.270	0.036210
-5.265	0.035379
-5.260	0.034640
-5.255	0.033878
-5.250	0.033138
-5.245	0.032512
-5.240	0.031894
-5.235	0.031295
-5.230	0.030718
-5.225	0.030150
-5.220	0.029563
-5.215	0.029080
-5.210	0.028536
-5.205	0.028131
-5.200	0.027731
-5.195	0.027304
-5.190	0.026847
-5.185	0.026307
-5.180	0.025862
-5.175	0.025503
-5.170	0.025121
-5.165	0.024801
-5.160	0.024461
-5.155	0.024152
-5.150	0.023812
-5.145	0.023529
-5.140	0.023238
-5.135	0.022988
-5.130	0.022754
-5.125	0.022467
-5.120	0.022263
-5.115	0.022030
-5.110	0.021839
-5.105	0.021701
-5.100	0.021507
-5.095	0.021291
-5.090	0.021050
-5.085	0.020811
-5.080	0.020606
-5.075	0.020490
-5.070	0.020398
-5.065	0.020331
-5.060	0.020155
-5.055	0.019988
-5.050	0.019759
-5.045	0.019592
-5.040	0.019376
-5.035	0.019168
-5.030	0.018967
-5.025	0.018747
-5.020	0.018576
-5.015	0.018469
-5.010	0.018307
-5.005	0.018174
-5.000	0.018063
-4.995	0.017931
-4.990	0.017707
-4.985	0.017557
-4.980	0.017417
-4.975	0.017319
-4.970	0.017169
-4.965	0.016999
-4.960	0.016804
-4.955	0.016642
-4.950	0.016442
-4.945	0.016319
-4.940	0.016188
-4.935	0.016131
-4.930	0.016022
-4.925	0.015924
-4.920	0.015845
-4.915	0.015793
-4.910	0.015743
-4.905	0.015732
-4.900	0.015732
-4.895	0.015589
-4.890	0.015511
-4.885	0.015474
-4.880	0.015340
-4.875	0.015254
-4.870	0.015150
-4.865	0.015122
-4.860	0.015056
-4.855	0.015012
-4.850	0.014950
-4.845	0.014899
-4.840	0.014831
-4.835	0.014784
-4.830	0.014730
-4.825	0.014621
-4.820	0.014423
-4.815	0.014263
-4.810	0.014126
-4.805	0.014017
-4.800	0.013874
-4.795	0.013768
-4.790	0.013780
-4.785	0.013758
-4.780	0.013669
-4.775	0.013581
-4.770	0.013516
-4.765	0.013452
-4.760	0.013380
-4.755	0.013322
-4.750	0.013228
-4.745	0.013166
-4.740	0.013143
-4.735	0.013061
-4.730	0.013027
-4.725	0.013006
-4.720	0.012958
-4.715	0.012924
-4.710	0.012889
-4.705	0.012813
-4.700	0.012724
-4.695	0.012737
-4.690	0.012714
-4.685	0.012706
-4.680	0.012619
-4.675	0.012504
-4.670	0.012398
-4.665	0.012279
-4.660	0.012164
-4.655	0.012110
-4.650	0.011985
-4.645	0.011882
-4.640	0.011730
-4.635	0.011586
-4.630	0.011506
-4.625	0.011508
-4.620	0.011545
-4.615	0.011598
-4.610	0.011563
-4.605	0.011613
-4.600	0.011631
-4.595	0.011623
-4.590	0.011555
-4.585	0.011492
-4.580	0.011458
-4.575	0.011341
-4.570	0.011313
-4.565	0.011241
-4.560	0.011202
-4.555	0.011149
-4.550	0.011105
-4.545	0.011099
-4.540	0.011100
-4.535	0.011088
-4.530	0.011027
-4.525	0.010890
-4.520	0.010840
-4.515	0.010744
-4.510	0.010707
-4.505	0.010652
-4.500	0.010541
-4.495	0.010504
-4.490	0.010502
-4.485	0.010430
-4.480	0.010429
-4.475	0.010423
-4.470	0.010386
-4.465	0.010345
-4.460	0.010316
-4.455	0.010269
-4.450	0.010206
-4.445	0.010200
-4.440	0.010180
-4.435	0.010132
-4.430	0.010086
-4.425	0.010039
-4.420	0.009982
-4.415	0.009876
-4.410	0.009779
-4.405	0.009740
-4.400	0.009725
-4.395	0.009746
-4.390	0.009731
-4.385	0.009747
-4.380	0.009697
-4.375	0.009705
-4.370	0.009716
-4.365	0.009711
-4.360	0.009664
-4.355	0.009629
-4.350	0.009583
-4.345	0.009516
-4.340	0.009434
-4.335	0.009414
-4.330	0.009384
-4.325	0.009310
-4.320	0.009301
-4.315	0.009288
-4.310	0.009197
-4.305	0.009129
-4.300	0.009103
-4.295	0.009024
-4.290	0.009036
-4.285	0.009082
-4.280	0.009107
-4.275	0.009066
-4.270	0.009040
-4.265	0.008929
-4.260	0.008909
-4.255	0.008916
-4.250	0.008917
-4.245	0.008891
-4.240	0.008854
-4.235	0.008868
-4.230	0.008863
-4.225	0.008877
-4.220	0.008883
-4.215	0.008895
-4.210	0.008875
-4.205	0.008856
-4.200	0.008800
-4.195	0.008754
-4.190	0.008651
-4.185	0.008499
-4.180	0.008340
-4.175	0.008198
-4.170	0.008006
-4.165	0.007734
-4.160	0.007344
-4.155	0.006787
-4.150	0.005921
-4.145	0.004720
-4.140	0.003071
-4.135	0.000955
-4.130	-0.001740
-4.125	-0.004910
-4.120	-0.008666
-4.115	-0.012916
-4.110	-0.017747
-4.105	-0.022988
-4.100	-0.028756
-4.095	-0.034767
-4.090	-0.040971
-4.085	-0.047085
-4.080	-0.053260
-4.075	-0.059077
-4.070	-0.064206
-4.065	-0.068074
-4.060	-0.070381
-4.055	-0.070853
-4.050	-0.069440
-4.045	-0.066396
-4.040	-0.062270
-4.035	-0.057900
-4.030	-0.053792
-4.025	-0.050178
-4.020	-0.047111
-4.015	-0.044559
-4.010	-0.042352
-4.005	-0.040502
-4.000	-0.038808
-3.995	-0.037287
-3.990	-0.035935
-3.985	-0.034693
-3.980	-0.033607
-3.975	-0.032620
-3.970	-0.031696
-3.965	-0.030849
-3.960	-0.030034
-3.955	-0.029327
-3.950	-0.028655
-3.945	-0.027976
-3.940	-0.027353
-3.935	-0.026801
-3.930	-0.026347
-3.925	-0.025722
-3.920	-0.024330
-3.915	-0.022596
-3.910	-0.022806
-3.905	-0.024605
-3.900	-0.025091
-3.895	-0.023421
-3.890	-0.021785
-3.885	-0.022392
-3.880	-0.023474
-3.875	-0.023072
-3.870	-0.021867
-3.865	-0.021197
-3.860	-0.021061
-3.855	-0.021189
-3.850	-0.020754
-3.845	-0.019675
-3.840	-0.019118
-3.835	-0.019290
-3.830	-0.019296
-3.825	-0.019099
-3.820	-0.018719
-3.815	-0.018225
-3.810	-0.017952
-3.805	-0.017692
-3.800	-0.017278
-3.795	-0.016815
-3.790	-0.016645
-3.785	-0.016846
-3.780	-0.016930
-3.775	-0.016858
-3.770	-0.016638
-3.765	-0.016319
-3.760	-0.015863
-3.755	-0.015420
-3.750	-0.015254
-3.745	-0.015299
-3.740	-0.015360
-3.735	-0.015174
-3.730	-0.014914
-3.725	-0.014705
-3.720	-0.014549
-3.715	-0.014403
-3.710	-0.014232
-3.705	-0.014040
-3.700	-0.013805
-3.695	-0.013663
-3.690	-0.013568
-3.685	-0.013500
-3.680	-0.013379
-3.675	-0.013276
-3.670	-0.013145
-3.665	-0.013041
-3.660	-0.012926
-3.655	-0.012763
-3.650	-0.012464
-3.645	-0.012147
-3.640	-0.012056
-3.635	-0.012193
-3.630	-0.012332
-3.625	-0.012242
-3.620	-0.011983
-3.615	-0.011674
-3.610	-0.011402
-3.605	-0.011229
-3.600	-0.011020
-3.595	-0.010729
-3.590	-0.010472
-3.585	-0.010126
-3.580	-0.009741
-3.575	-0.009282
-3.570	-0.008893
-3.565	-0.008572
-3.560	-0.008033
-3.555	-0.007270
-3.550	-0.006717
-3.545	-0.006410
-3.540	-0.005801
-3.535	-0.005018
-3.530	-0.004293
-3.525	-0.003721
-3.520	-0.003170
-3.515	-0.002584
-3.510	-0.001916
-3.505	-0.001303
-3.500	-0.000677
-3.495	-0.000168
-3.490	0.000153
-3.485	0.000316
-3.480	0.000516
-3.475	0.000750
-3.470	0.000763
-3.465	0.000714
-3.460	0.000735
-3.455	0.000757
-3.450	0.000770
-3.445	0.000764
-3.440	0.000811
-3.435	0.000922
-3.430	0.001232
-3.425	0.001598
-3.420	0.001958
-3.415	0.002448
-3.410	0.003045
-3.405	0.003763
-3.400	0.004603
-3.395	0.005511
-3.390	0.006501
-3.385	0.007537
-3.380	0.008624
-3.375	0.009625
-3.370	0.010587
-3.365	0.011509
-3.360	0.012095
-3.355	0.012387
-3.350	0.012183
-3.345	0.011700
-3.340	0.011157
-3.335	0.010625
-3.330	0.010177
-3.325	0.009805
-3.320	0.009603
-3.315	0.009409
-3.310	0.009265
-3.305	0.009146
-3.300	0.009069
-3.295	0.009018
-3.290	0.008952
-3.285	0.008968
-3.280	0.008937
-3.275	0.008922
-3.270	0.008916
-3.265	0.008951
-3.260	0.009046
-3.255	0.009184
-3.250	0.009247
-3.245	0.009269
-3.240	0.009215
-3.235	0.009304
-3.230	0.009322
-3.225	0.009403
-3.220	0.009530
-3.215	0.009592
-3.210	0.009671
-3.205	0.009824
-3.200	0.010064
-3.195	0.010284
-3.190	0.010333
-3.185	0.010432
-3.180	0.010532
-3.175	0.010621
-3.170	0.010732
-3.165	0.010802
-3.160	0.010818
-3.155	0.010908
-3.150	0.010974
-3.145	0.010999
-3.140	0.011077
-3.135	0.011169
-3.130	0.011228
-3.125	0.011220
-3.120	0.011262
-3.115	0.011354
-3.110	0.011426
-3.105	0.011499
-3.100	0.011598
-3.095	0.011643
-3.090	0.011654
-3.085	0.011658
-3.080	0.011344
-3.075	0.009926
-3.070	0.008517
-3.065	0.009659
-3.060	0.012207
-3.055	0.012923
-3.050	0.012278
-3.045	0.012513
-3.040	0.013740
-3.035	0.014413
-3.030	0.014284
-3.025	0.013826
-3.020	0.013596
-3.015	0.013623
-3.010	0.013561
-3.005	0.013354
-3.000	0.013304
-2.995	0.013472
-2.990	0.013443
-2.985	0.013291
-2.980	0.013432
-2.975	0.013710
-2.970	0.013731
-2.965	0.013536
-2.960	0.013654
-2.955	0.014075
-2.950	0.014361
-2.945	0.014309
-2.940	0.014486
-2.935	0.014684
-2.930	0.014613
-2.925	0.014622
-2.920	0.014685
-2.915	0.014707
-2.910	0.014715
-2.905	0.014860
-2.900	0.014899
-2.895	0.014912
-2.890	0.015064
-2.885	0.015166
-2.880	0.015169
-2.875	0.015151
-2.870	0.015393
-2.865	0.015849
-2.860	0.015980
-2.855	0.015896
-2.850	0.015581
-2.845	0.015478
-2.840	0.015808
-2.835	0.016036
-2.830	0.015890
-2.825	0.015727
-2.820	0.015716
-2.815	0.015797
-2.810	0.015722
-2.805	0.015663
-2.800	0.015603
-2.795	0.015581
-2.790	0.015766
-2.785	0.016078
-2.780	0.016148
-2.775	0.016045
-2.770	0.016135
-2.765	0.016420
-2.760	0.016554
-2.755	0.016600
-2.750	0.016665
-2.745	0.016728
-2.740	0.016805
-2.735	0.016977
-2.730	0.017229
-2.725	0.017251
-2.720	0.017193
-2.715	0.017105
-2.710	0.016994
-2.705	0.017087
-2.700	0.017608
-2.695	0.017845
-2.690	0.017595
-2.685	0.017393
-2.680	0.017460
-2.675	0.017757
-2.670	0.018118
-2.665	0.018423
-2.660	0.018494
-2.655	0.018344
-2.650	0.018192
-2.645	0.018061
-2.640	0.018066
-2.635	0.018285
-2.630	0.018431
-2.625	0.018451
-2.620	0.018353
-2.615	0.018194
-2.610	0.018114
-2.605	0.017986
-2.600	0.017994
-2.595	0.018181
-2.590	0.018401
-2.585	0.018403
-2.580	0.018353
-2.575	0.018564
-2.570	0.018786
-2.565	0.018900
-2.560	0.018970
-2.555	0.018977
-2.550	0.018777
-2.545	0.018449
-2.540	0.018330
-2.535	0.018445
-2.530	0.018703
-2.525	0.019047
-2.520	0.019191
-2.515	0.019093
-2.510	0.018982
-2.505	0.018878
-2.500	0.018800
-2.495	0.018779
-2.490	0.018869
-2.485	0.018977
-2.480	0.018962
-2.475	0.018897
-2.470	0.018999
-2.465	0.019129
-2.460	0.019254
-2.455	0.019346
-2.450	0.019343
-2.445	0.019299
-2.440	0.019329
-2.435	0.019434
-2.430	0.019459
-2.425	0.019434
-2.420	0.019411
-2.415	0.019435
-2.410	0.019522
-2.405	0.019626
-2.400	0.019706
-2.395	0.019751
-2.390	0.019725
-2.385	0.019766
-2.380	0.019764
-2.375	0.019807
-2.370	0.019760
-2.365	0.019737
-2.360	0.019836
-2.355	0.019897
-2.350	0.020010
-2.345	0.020074
-2.340	0.020071
-2.335	0.020090
-2.330	0.020148
-2.325	0.020210
-2.320	0.020186
-2.315	0.020094
-2.310	0.020017
-2.305	0.019869
-2.300	0.019808
-2.295	0.019763
-2.290	0.019788
-2.285	0.019764
-2.280	0.019803
-2.275	0.019830
-2.270	0.019815
-2.265	0.019739
-2.260	0.019630
-2.255	0.019648
-2.250	0.019631
-2.245	0.019621
-2.240	0.019618
-2.235	0.019586
-2.230	0.019573
-2.225	0.019601
-2.220	0.019674
-2.215	0.019717
-2.210	0.019715
-2.205	0.019746
-2.200	0.019788
-2.195	0.019878
-2.190	0.019901
-2.185	0.019924
-2.180	0.019864
-2.175	0.019825
-2.170	0.019831
-2.165	0.019882
-2.160	0.019850
-2.155	0.019889
-2.150	0.019963
-2.145	0.020116
-2.140	0.020205
-2.135	0.020222
-2.130	0.020294
-2.125	0.020328
-2.120	0.020397
-2.115	0.020395
-2.110	0.020304
-2.105	0.020221
-2.100	0.020132
-2.095	0.020035
-2.090	0.019988
-2.085	0.019923
-2.080	0.019874
-2.075	0.019753
-2.070	0.019656
-2.065	0.019643
-2.060	0.019708
-2.055	0.019817
-2.050	0.019964
-2.045	0.020031
-2.040	0.020071
-2.035	0.020165
-2.030	0.020232
-2.025	0.020273
-2.020	0.020270
-2.015	0.020277
-2.010	0.020312
-2.005	0.020304
-2.000	0.020253
-1.995	0.020199
-1.990	0.020224
-1.985	0.020228
-1.980	0.020218
-1.975	0.020107
-1.970	0.020059
-1.965	0.019978
-1.960	0.019854
-1.955	0.019773
-1.950	0.019673
-1.945	0.019558
-1.940	0.019468
-1.935	0.019345
-1.930	0.019240
-1.925	0.019235
-1.920	0.019213
-1.915	0.019162
-1.910	0.019063
-1.905	0.019036
-1.900	0.019128
-1.895	0.019216
-1.890	0.019264
-1.885	0.019370
-1.880	0.019383
-1.875	0.019409
-1.870	0.019382
-1.865	0.019331
-1.860	0.019307
-1.855	0.019219
-1.850	0.019229
-1.845	0.019212
-1.840	0.019307
-1.835	0.019425
-1.830	0.019583
-1.825	0.019715
-1.820	0.019785
-1.815	0.019840
-1.810	0.019886
-1.805	0.019778
-1.800	0.019658
-1.795	0.019540
-1.790	0.019401
-1.785	0.019226
-1.780	0.019052
-1.775	0.018895
-1.770	0.018668
-1.765	0.018516
-1.760	0.018387
-1.755	0.018246
-1.750	0.018136
-1.745	0.017953
-1.740	0.017837
-1.735	0.017925
-1.730	0.018092
-1.725	0.018210
-1.720	0.018226
-1.715	0.018244
-1.710	0.018374
-1.705	0.018516
-1.700	0.018584
-1.695	0.018687
-1.690	0.018722
-1.685	0.018711
-1.680	0.018733
-1.675	0.018701
-1.670	0.018639
-1.665	0.018562
-1.660	0.018456
-1.655	0.018455
-1.650	0.018477
-1.645	0.018573
-1.640	0.018629
-1.635	0.018649
-1.630	0.018652
-1.625	0.018682
-1.620	0.018659
-1.615	0.018629
-1.610	0.018597
-1.605	0.018555
-1.600	0.018401
-1.595	0.018316
-1.590	0.018202
-1.585	0.018079
-1.580	0.017881
-1.575	0.017734
-1.570	0.017550
-1.565	0.017394
-1.560	0.017260
-1.555	0.017153
-1.550	0.017061
-1.545	0.016994
-1.540	0.016939
-1.535	0.016923
-1.530	0.016918
-1.525	0.016912
-1.520	0.016879
-1.515	0.016851
-1.510	0.016795
-1.505	0.016766
-1.500	0.016739
-1.495	0.016659
-1.490	0.016618
-1.485	0.016577
-1.480	0.016535
-1.475	0.016496
-1.470	0.016427
-1.465	0.016387
-1.460	0.016318
-1.455	0.016289
-1.450	0.016266
-1.445	0.016319
-1.440	0.016303
-1.435	0.016272
-1.430	0.016268
-1.425	0.016348
-1.420	0.016397
-1.415	0.016410
-1.410	0.016444
-1.405	0.016419
-1.400	0.016398
-1.395	0.016337
-1.390	0.016313
-1.385	0.016244
-1.380	0.016194
-1.375	0.016065
-1.370	0.015988
-1.365	0.015837
-1.360	0.015726
-1.355	0.015638
-1.350	0.015504
-1.345	0.015409
-1.340	0.015332
-1.335	0.015233
-1.330	0.015125
-1.325	0.015079
-1.320	0.015026
-1.315	0.014968
-1.310	0.014924
-1.305	0.014901
-1.300	0.014874
-1.295	0.014890
-1.290	0.014921
-1.285	0.014974
-1.280	0.015035
-1.275	0.015035
-1.270	0.015055
-1.265	0.014966
-1.260	0.014930
-1.255	0.014870
-1.250	0.014834
-1.245	0.014800
-1.240	0.014738
-1.235	0.014674
-1.230	0.014574
-1.225	0.014479
-1.220	0.014408
-1.215	0.014295
-1.210	0.014234
-1.205	0.014161
-1.200	0.014121
-1.195	0.014146
-1.190	0.014132
-1.185	0.014153
-1.180	0.014176
-1.175	0.014232
-1.170	0.014274
-1.165	0.014333
-1.160	0.014335
-1.155	0.014378
-1.150	0.014318
-1.145	0.014278
-1.140	0.014224
-1.135	0.014136
-1.130	0.014008
-1.125	0.013904
-1.120	0.013731
-1.115	0.013581
-1.110	0.013427
-1.105	0.013311
-1.100	0.013191
-1.095	0.013075
-1.090	0.012959
-1.085	0.012833
-1.080	0.012811
-1.075	0.012745
-1.070	0.012694
-1.065	0.012662
-1.060	0.012623
-1.055	0.012575
-1.050	0.012614
-1.045	0.012561
-1.040	0.012494
-1.035	0.012532
-1.030	0.012479
-1.025	0.012418
-1.020	0.012408
-1.015	0.012386
-1.010	0.012359
-1.005	0.012353
-1.000	0.012269
-0.995	0.012230
-0.990	0.012220
-0.985	0.012132
-0.980	0.012098
-0.975	0.012100
-0.970	0.012024
-0.965	0.011963
-0.960	0.011906
-0.955	0.011807
-0.950	0.011777
-0.945	0.011703
-0.940	0.011642
-0.935	0.011540
-0.930	0.011505
-0.925	0.011470
-0.920	0.011431
-0.915	0.011322
-0.910	0.011280
-0.905	0.011226
-0.900	0.011106
-0.895	0.011040
-0.890	0.010976
-0.885	0.010927
-0.880	0.010922
-0.875	0.010881
-0.870	0.010821
-0.865	0.010712
-0.860	0.010742
-0.855	0.010682
-0.850	0.010649
-0.845	0.010612
-0.840	0.010545
-0.835	0.010504
-0.830	0.010445
-0.825	0.010369
-0.820	0.010277
-0.815	0.010210
-0.810	0.010155
-0.805	0.010079
-0.800	0.010016
-0.795	0.009967
-0.790	0.009855
-0.785	0.009758
-0.780	0.009647
-0.775	0.009557
-0.770	0.009480
-0.765	0.009435
-0.760	0.009337
-0.755	0.009287
-0.750	0.009228
-0.745	0.009180
-0.740	0.009078
-0.735	0.008991
-0.730	0.008956
-0.725	0.008872
-0.720	0.008802
-0.715	0.008775
-0.710	0.008776
-0.705	0.008679
-0.700	0.008613
-0.695	0.008546
-0.690	0.008502
-0.685	0.008418
-0.680	0.008393
-0.675	0.008319
-0.670	0.008277
-0.665	0.008201
-0.660	0.008118
-0.655	0.008034
-0.650	0.007999
-0.645	0.007875
-0.640	0.007835
-0.635	0.007740
-0.630	0.007657
-0.625	0.007615
-0.620	0.007548
-0.615	0.007518
-0.610	0.007482
-0.605	0.007384
-0.600	0.007322
-0.595	0.007274
-0.590	0.007180
-0.585	0.007121
-0.580	0.007082
-0.575	0.007021
-0.570	0.006920
-0.565	0.006878
-0.560	0.006869
-0.555	0.006791
-0.550	0.006754
-0.545	0.006698
-0.540	0.006683
-0.535	0.006641
-0.530	0.006611
-0.525	0.006554
-0.520	0.006524
-0.515	0.006481
-0.510	0.006452
-0.505	0.006424
-0.500	0.006391
-0.495	0.006329
-0.490	0.006298
-0.485	0.006254
-0.480	0.006219
-0.475	0.006143
-0.470	0.006075
-0.465	0.005987
-0.460	0.005919
-0.455	0.005844
-0.450	0.005721
-0.445	0.005646
-0.440	0.005584
-0.435	0.005476
-0.430	0.005389
-0.425	0.005320
-0.420	0.005229
-0.415	0.005126
-0.410	0.005022
-0.405	0.004926
-0.400	0.004814
-0.395	0.004761
-0.390	0.004697
-0.385	0.004621
-0.380	0.004558
-0.375	0.004476
-0.370	0.004386
-0.365	0.004313
-0.360	0.004236
-0.355	0.004152
-0.350	0.004043
-0.345	0.003996
-0.340	0.003892
-0.335	0.003796
-0.330	0.003727
-0.325	0.003706
-0.320	0.003677
-0.315	0.003602
-0.310	0.003527
-0.305	0.003493
-0.300	0.003427
-0.295	0.003386
-0.290	0.003418
-0.285	0.003437
-0.280	0.003477
-0.275	0.003450
-0.270	0.003421
-0.265	0.003380
-0.260	0.003311
-0.255	0.003195
-0.250	0.003093
-0.245	0.003046
-0.240	0.003003
-0.235	0.002989
-0.230	0.002996
-0.225	0.003016
-0.220	0.002959
-0.215	0.002836
-0.210	0.002726
-0.205	0.002698
-0.200	0.002697
-0.195	0.002676
-0.190	0.002640
-0.185	0.002627
-0.180	0.002619
-0.175	0.002720
-0.170	0.002926
-0.165	0.003080
-0.160	0.003102
-0.155	0.003227
-0.150	0.003351
-0.145	0.003379
-0.140	0.003392
-0.135	0.003357
-0.130	0.003184
-0.125	0.002944
-0.120	0.002628
-0.115	0.002174
-0.110	0.001561
-0.105	0.000673
-0.100	-0.000372
-0.095	-0.001418
-0.090	-0.002457
-0.085	-0.003504
-0.080	-0.004505
-0.075	-0.005169
-0.070	-0.005439
-0.065	-0.005346
-0.060	-0.004833
-0.055	-0.003972
-0.050	-0.002540
-0.045	-0.000861
-0.040	0.000928
-0.035	0.002858
-0.030	0.004692
-0.025	0.006098
-0.020	0.006987
-0.015	0.007239
-0.010	0.006786
-0.005	0.005798
0.000	0.004406
0.005	0.002841
0.010	0.001282
0.015	-0.000214
0.020	-0.001556
0.025	-0.002616
0.030	-0.003262
0.035	-0.003601
0.040	-0.003574
0.045	-0.003292
0.050	-0.002968
0.055	-0.002513
0.060	-0.002162
0.065	-0.001845
0.070	-0.001549
0.075	-0.001398
0.080	-0.001384
0.085	-0.001460
0.090	-0.001481
0.095	-0.001453
0.100	-0.001446
0.105	-0.001495
0.110	-0.001584
0.115	-0.001784
0.120	-0.001942
0.125	-0.002045
0.130	-0.002059
0.135	-0.002128
0.140	-0.002252
0.145	-0.002404
0.150	-0.002568
0.155	-0.002699
0.160	-0.002754
0.165	-0.002906
0.170	-0.003037
0.175	-0.003112
0.180	-0.003174
0.185	-0.003222
0.190	-0.003326
0.195	-0.003394
0.200	-0.003518
0.205	-0.003580
0.210	-0.003573
0.215	-0.003608
0.220	-0.003670
0.225	-0.003697
0.230	-0.003725
0.235	-0.003733
0.240	-0.003814
0.245	-0.003862
0.250	-0.003882
0.255	-0.003904
0.260	-0.003904
0.265	-0.003938
0.270	-0.003993
0.275	-0.004014
0.280	-0.004014
0.285	-0.004014
0.290	-0.004056
0.295	-0.004076
0.300	-0.004085
0.305	-0.004140
0.310	-0.004180
0.315	-0.004200
0.320	-0.004241
0.325	-0.004276
0.330	-0.004303
0.335	-0.004372
0.340	-0.004440
0.345	-0.004495
0.350	-0.004509
0.355	-0.004572
0.360	-0.004640
0.365	-0.004696
0.370	-0.004779
0.375	-0.004846
0.380	-0.004920
0.385	-0.004989
0.390	-0.005065
0.395	-0.005128
0.400	-0.005156
0.405	-0.005239
0.410	-0.005287
0.415	-0.005349
0.420	-0.005458
0.425	-0.005527
0.430	-0.005569
0.435	-0.005626
0.440	-0.005689
0.445	-0.005757
0.450	-0.005839
0.455	-0.005934
0.460	-0.006058
0.465	-0.006086
0.470	-0.006177
0.475	-0.006301
0.480	-0.006411
0.485	-0.006555
0.490	-0.006610
0.495	-0.006713
0.500	-0.006826
0.505	-0.006930
0.510	-0.006997
0.515	-0.007119
0.520	-0.007216
0.525	-0.007312
0.530	-0.007367
0.535	-0.007484
0.540	-0.007546
0.545	-0.007594
0.550	-0.007656
0.555	-0.007704
0.560	-0.007780
0.565	-0.007823
0.570	-0.007907
0.575	-0.007899
0.580	-0.007973
0.585	-0.007946
0.590	-0.008035
0.595	-0.008090
0.600	-0.008171
0.605	-0.008204
0.610	-0.008257
0.615	-0.008304
0.620	-0.008343
0.625	-0.008399
0.630	-0.008476
0.635	-0.008576
0.640	-0.008582
0.645	-0.008635
0.650	-0.008692
0.655	-0.008707
0.660	-0.008701
0.665	-0.008773
0.670	-0.008786
0.675	-0.008800
0.680	-0.008804
0.685	-0.008805
0.690	-0.008887
0.695	-0.008915
0.700	-0.008917
0.705	-0.008916
0.710	-0.008948
0.715	-0.008954
0.720	-0.009015
0.725	-0.009083
0.730	-0.009144
0.735	-0.009198
0.740	-0.009251
0.745	-0.009312
0.750	-0.009374
0.755	-0.009471
0.760	-0.009574
0.765	-0.009710
0.770	-0.009780
0.775	-0.009875
0.780	-0.009942
0.785	-0.009978
0.790	-0.010089
0.795	-0.010215
0.800	-0.010292
0.805	-0.010397
0.810	-0.010446
0.815	-0.010558
0.820	-0.010655
0.825	-0.010731
0.830	-0.010814
0.835	-0.010913
0.840	-0.010986
0.845	-0.011052
0.850	-0.011127
0.855	-0.011201
0.860	-0.011283
0.865	-0.011330
0.870	-0.011452
0.875	-0.011576
0.880	-0.011658
0.885	-0.011749
0.890	-0.011915
0.895	-0.011970
0.900	-0.012066
0.905	-0.012130
0.910	-0.012203
0.915	-0.012293
0.920	-0.012370
0.925	-0.012391
0.930	-0.012445
0.935	-0.012467
0.940	-0.012522
0.945	-0.012515
0.950	-0.012506
0.955	-0.012498
0.960	-0.012478
0.965	-0.012399
0.970	-0.012385
0.975	-0.012377
0.980	-0.012339
0.985	-0.012304
0.990	-0.012291
0.995	-0.012306
1.000	-0.012305
1.005	-0.012339
1.010	-0.012394
1.015	-0.012450
1.020	-0.012524
1.025	-0.012601
1.030	-0.012719
1.035	-0.012785
1.040	-0.012900
1.045	-0.013000
1.050	-0.013089
1.055	-0.013152
1.060	-0.013240
1.065	-0.013316
1.070	-0.013376
1.075	-0.013437
1.080	-0.013463
1.085	-0.013547
1.090	-0.013579
1.095	-0.013622
1.100	-0.013604
1.105	-0.013634
1.110	-0.013657
1.115	-0.013626
1.120	-0.013632
1.125	-0.013708
1.130	-0.013744
1.135	-0.013799
1.140	-0.013833
1.145	-0.013888
1.150	-0.013922
1.155	-0.013998
1.160	-0.014114
1.165	-0.014194
1.170	-0.014270
1.175	-0.014379
1.180	-0.014512
1.185	-0.014617
1.190	-0.014699
1.195	-0.014777
1.200	-0.014865
1.205	-0.014996
1.210	-0.015044
1.215	-0.015099
1.220	-0.015134
1.225	-0.015147
1.230	-0.015145
1.235	-0.015150
1.240	-0.015161
1.245	-0.015101
1.250	-0.015061
1.255	-0.015075
1.260	-0.015049
1.265	-0.015079
1.270	-0.015114
1.275	-0.015163
1.280	-0.015230
1.285	-0.015263
1.290	-0.015322
1.295	-0.015389
1.300	-0.015472
1.305	-0.015527
1.310	-0.015633
1.315	-0.015687
1.320	-0.015748
1.325	-0.015791
1.330	-0.015819
1.335	-0.015810
1.340	-0.015759
1.345	-0.015689
1.350	-0.015687
1.355	-0.015638
1.360	-0.015595
1.365	-0.015508
1.370	-0.015466
1.375	-0.015446
1.380	-0.015497
1.385	-0.015538
1.390	-0.015567
1.395	-0.015621
1.400	-0.015751
1.405	-0.015837
1.410	-0.015999
1.415	-0.016131
1.420	-0.016261
1.425	-0.016403
1.430	-0.016566
1.435	-0.016669
1.440	-0.016783
1.445	-0.016892
1.450	-0.016992
1.455	-0.016994
1.460	-0.017096
1.465	-0.017173
1.470	-0.017255
1.475	-0.017303
1.480	-0.017352
1.485	-0.017367
1.490	-0.017398
1.495	-0.017413
1.500	-0.017424
1.505	-0.017465
1.510	-0.017438
1.515	-0.017495
1.520	-0.017532
1.525	-0.017564
1.530	-0.017561
1.535	-0.017621
1.540	-0.017689
1.545	-0.017704
1.550	-0.017807
1.555	-0.017844
1.560	-0.017833
1.565	-0.017834
1.570	-0.017824
1.575	-0.017763
1.580	-0.017703
1.585	-0.017649
1.590	-0.017602
1.595	-0.017568
1.600	-0.017602
1.605	-0.017607
1.610	-0.017633
1.615	-0.017673
1.620	-0.017734
1.625	-0.017845
1.630	-0.017949
1.635	-0.018105
1.640	-0.018263
1.645	-0.018359
1.650	-0.018406
1.655	-0.018466
1.660	-0.018511
1.665	-0.018545
1.670	-0.018524
1.675	-0.018535
1.680	-0.018512
1.685	-0.018531
1.690	-0.018515
1.695	-0.018480
1.700	-0.018463
1.705	-0.018492
1.710	-0.018543
1.715	-0.018588
1.720	-0.018641
1.725	-0.018684
1.730	-0.018734
1.735	-0.018743
1.740	-0.018769
1.745	-0.018760
1.750	-0.018846
1.755	-0.018834
1.760	-0.018883
1.765	-0.018773
1.770	-0.018665
1.775	-0.018602
1.780	-0.018583
1.785	-0.018474
1.790	-0.018423
1.795	-0.018361
1.800	-0.018373
1.805	-0.018398
1.810	-0.018465
1.815	-0.018544
1.820	-0.018658
1.825	-0.018760
1.830	-0.018925
1.835	-0.019020
1.840	-0.019149
1.845	-0.019306
1.850	-0.019407
1.855	-0.019507
1.860	-0.019545
1.865	-0.019537
1.870	-0.019557
1.875	-0.019543
1.880	-0.019560
1.885	-0.019527
1.890	-0.019530
1.895	-0.019497
1.900	-0.019465
1.905	-0.019387
1.910	-0.019387
1.915	-0.019423
1.920	-0.019391
1.925	-0.019405
1.930	-0.019406
1.935	-0.019410
1.940	-0.019381
1.945	-0.019329
1.950	-0.019280
1.955	-0.019206
1.960	-0.019196
1.965	-0.019186
1.970	-0.019242
1.975	-0.019274
1.980	-0.019306
1.985	-0.019379
1.990	-0.019515
1.995	-0.019647
2.000	-0.019775
2.005	-0.019874
2.010	-0.019955
2.015	-0.019987
2.020	-0.019998
2.025	-0.020040
2.030	-0.020060
2.035	-0.020089
2.040	-0.020167
2.045	-0.020197
2.050	-0.020177
2.055	-0.020185
2.060	-0.020157
2.065	-0.020103
2.070	-0.020022
2.075	-0.019911
2.080	-0.019827
2.085	-0.019719
2.090	-0.019611
2.095	-0.019540
2.100	-0.019429
2.105	-0.019299
2.110	-0.019139
2.115	-0.019006
2.120	-0.018899
2.125	-0.018841
2.130	-0.018818
2.135	-0.018839
2.140	-0.018970
2.145	-0.019053
2.150	-0.019206
2.155	-0.019408
2.160	-0.019558
2.165	-0.019660
2.170	-0.019786
2.175	-0.019789
2.180	-0.019833
2.185	-0.019916
2.190	-0.019991
2.195	-0.019988
2.200	-0.019919
2.205	-0.019838
2.210	-0.019696
2.215	-0.019663
2.220	-0.019573
2.225	-0.019523
2.230	-0.019390
2.235	-0.019342
2.240	-0.019284
2.245	-0.019292
2.250	-0.019219
2.255	-0.019213
2.260	-0.019143
2.265	-0.019093
2.270	-0.019070
2.275	-0.019090
2.280	-0.019151
2.285	-0.019222
2.290	-0.019359
2.295	-0.019472
2.300	-0.019549
2.305	-0.019697
2.310	-0.019808
2.315	-0.019855
2.320	-0.019942
2.325	-0.019911
2.330	-0.019945
2.335	-0.019972
2.340	-0.019978
2.345	-0.019882
2.350	-0.019773
2.355	-0.019678
2.360	-0.019603
2.365	-0.019507
2.370	-0.019473
2.375	-0.019410
2.380	-0.019374
2.385	-0.019298
2.390	-0.019194
2.395	-0.019064
2.400	-0.018921
2.405	-0.018751
2.410	-0.018613
2.415	-0.018518
2.420	-0.018543
2.425	-0.018609
2.430	-0.018653
2.435	-0.018725
2.440	-0.018759
2.445	-0.018777
2.450	-0.018770
2.455	-0.018724
2.460	-0.018684
2.465	-0.018669
2.470	-0.018738
2.475	-0.018767
2.480	-0.018758
2.485	-0.018756
2.490	-0.018746
2.495	-0.018747
2.500	-0.018726
2.505	-0.018659
2.510	-0.018611
2.515	-0.018616
2.520	-0.018548
2.525	-0.018405
2.530	-0.018289
2.535	-0.018162
2.540	-0.018039
2.545	-0.017958
2.550	-0.017949
2.555	-0.017946
2.560	-0.017934
2.565	-0.017970
2.570	-0.017947
2.575	-0.017880
2.580	-0.017830
2.585	-0.017830
2.590	-0.017808
2.595	-0.017841
2.600	-0.017886
2.605	-0.017928
2.610	-0.018036
2.615	-0.018131
2.620	-0.018204
2.625	-0.018194
2.630	-0.018099
2.635	-0.017980
2.640	-0.017880
2.645	-0.017789
2.650	-0.017570
2.655	-0.017421
2.660	-0.017315
2.665	-0.017206
2.670	-0.017111
2.675	-0.017048
2.680	-0.016904
2.685	-0.016796
2.690	-0.016701
2.695	-0.016649
2.700	-0.016636
2.705	-0.016570
2.710	-0.016516
2.715	-0.016535
2.720	-0.016544
2.725	-0.016533
2.730	-0.016448
2.735	-0.016332
2.740	-0.016253
2.745	-0.016153
2.750	-0.016066
2.755	-0.015879
2.760	-0.015773
2.765	-0.015691
2.770	-0.015636
2.775	-0.015576
2.780	-0.015481
2.785	-0.015437
2.790	-0.015376
2.795	-0.015301
2.800	-0.015292
2.805	-0.015307
2.810	-0.015308
2.815	-0.015306
2.820	-0.015318
2.825	-0.015341
2.830	-0.015407
2.835	-0.015465
2.840	-0.015503
2.845	-0.015367
2.850	-0.015372
2.855	-0.015325
2.860	-0.015272
2.865	-0.015174
2.870	-0.015081
2.875	-0.014896
2.880	-0.014792
2.885	-0.014632
2.890	-0.014430
2.895	-0.014241
2.900	-0.014128
2.905	-0.013990
2.910	-0.013902
2.915	-0.013798
2.920	-0.013756
2.925	-0.013717
2.930	-0.013576
2.935	-0.013542
2.940	-0.013568
2.945	-0.013526
2.950	-0.013406
2.955	-0.013294
2.960	-0.013184
2.965	-0.013123
2.970	-0.013029
2.975	-0.012986
2.980	-0.012942
2.985	-0.012868
2.990	-0.012877
2.995	-0.012871
3.000	-0.012780
3.005	-0.012627
3.010	-0.012454
3.015	-0.012348
3.020	-0.012297
3.025	-0.012228
3.030	-0.012147
3.035	-0.012018
3.040	-0.011863
3.045	-0.011799
3.050	-0.011722
3.055	-0.011733
3.060	-0.011590
3.065	-0.011579
3.070	-0.011550
3.075	-0.011564
3.080	-0.011540
3.085	-0.011447
3.090	-0.011330
3.095	-0.011277
3.100	-0.011150
3.105	-0.011027
3.110	-0.010866
3.115	-0.010764
3.120	-0.010741
3.125	-0.010706
3.130	-0.010621
3.135	-0.010595
3.140	-0.010504
3.145	-0.010366
3.150	-0.010208
3.155	-0.010163
3.160	-0.010155
3.165	-0.010050
3.170	-0.009959
3.175	-0.009839
3.180	-0.009810
3.185	-0.009728
3.190	-0.009618
3.195	-0.009536
3.200	-0.009363
3.205	-0.009273
3.210	-0.009101
3.215	-0.009033
3.220	-0.008964
3.225	-0.008893
3.230	-0.008723
3.235	-0.008690
3.240	-0.008675
3.245	-0.008701
3.250	-0.008696
3.255	-0.008724
3.260	-0.008757
3.265	-0.008839
3.270	-0.008881
3.275	-0.008907
3.280	-0.008962
3.285	-0.008956
3.290	-0.009086
3.295	-0.009235
3.300	-0.009457
3.305	-0.009697
3.310	-0.009963
3.315	-0.010272
3.320	-0.010558
3.325	-0.010781
3.330	-0.010889
3.335	-0.010935
3.340	-0.010825
3.345	-0.010667
3.350	-0.010393
3.355	-0.010038
3.360	-0.009475
3.365	-0.008766
3.370	-0.007981
3.375	-0.007154
3.380	-0.005993
3.385	-0.004629
3.390	-0.003186
3.395	-0.001939
3.400	-0.000962
3.405	-0.000454
3.410	-0.000248
3.415	-0.000199
3.420	-0.000268
3.425	-0.000385
3.430	-0.000454
3.435	-0.000529
3.440	-0.000612
3.445	-0.000619
3.450	-0.000578
3.455	-0.000481
3.460	-0.000337
3.465	-0.000179
3.470	0.000083
3.475	0.000420
3.480	0.000770
3.485	0.001245
3.490	0.001719
3.495	0.002269
3.500	0.002806
3.505	0.003445
3.510	0.004116
3.515	0.004782
3.520	0.005408
3.525	0.006062
3.530	0.006690
3.535	0.007272
3.540	0.007858
3.545	0.008396
3.550	0.008882
3.555	0.009324
3.560	0.009779
3.565	0.010126
3.570	0.010386
3.575	0.010667
3.580	0.010907
3.585	0.011134
3.590	0.011376
3.595	0.011569
3.600	0.011769
3.605	0.011950
3.610	0.012072
3.615	0.012184
3.620	0.012307
3.625	0.012421
3.630	0.012542
3.635	0.012685
3.640	0.012819
3.645	0.012946
3.650	0.013078
3.655	0.013200
3.660	0.013332
3.665	0.013463
3.670	0.013579
3.675	0.013677
3.680	0.013766
3.685	0.013926
3.690	0.014034
3.695	0.014162
3.700	0.014317
3.705	0.014423
3.710	0.014568
3.715	0.014763
3.720	0.014963
3.725	0.015143
3.730	0.015323
3.735	0.015491
3.740	0.015644
3.745	0.015793
3.750	0.015954
3.755	0.016166
3.760	0.016360
3.765	0.016545
3.770	0.016728
3.775	0.016951
3.780	0.017210
3.785	0.017420
3.790	0.017665
3.795	0.017909
3.800	0.018130
3.805	0.018414
3.810	0.018585
3.815	0.018872
3.820	0.019191
3.825	0.019453
3.830	0.019788
3.835	0.020059
3.840	0.020397
3.845	0.020707
3.850	0.021016
3.855	0.021347
3.860	0.021712
3.865	0.022057
3.870	0.022416
3.875	0.022750
3.880	0.023147
3.885	0.023536
3.890	0.023950
3.895	0.024388
3.900	0.024814
3.905	0.025272
3.910	0.025694
3.915	0.026193
3.920	0.026686
3.925	0.027232
3.930	0.027821
3.935	0.028401
3.940	0.029066
3.945	0.029709
3.950	0.030469
3.955	0.031269
3.960	0.032110
3.965	0.033029
3.970	0.034118
3.975	0.035270
3.980	0.036536
3.985	0.037977
3.990	0.039551
3.995	0.041377
4.000	0.043377
4.005	0.045664
4.010	0.048161
4.015	0.050820
4.020	0.053574
4.025	0.056299
4.030	0.058879
4.035	0.061214
4.040	0.063053
4.045	0.064398
4.050	0.065108
4.055	0.065047
4.060	0.064065
4.065	0.062036
4.070	0.059068
4.075	0.055052
4.080	0.049638
4.085	0.043068
4.090	0.035386
4.095	0.027216
4.100	0.019112
4.105	0.011832
4.110	0.005660
4.115	0.001083
4.120	-0.002143
4.125	-0.004258
4.130	-0.005621
4.135	-0.006489
4.140	-0.007067
4.145	-0.007426
4.150	-0.007722
4.155	-0.007949
4.160	-0.008114
4.165	-0.008260
4.170	-0.008390
4.175	-0.008491
4.180	-0.008580
4.185	-0.008636
4.190	-0.008608
4.195	-0.008603
4.200	-0.008575
4.205	-0.008548
4.210	-0.008589
4.215	-0.008693
4.220	-0.008761
4.225	-0.008816
4.230	-0.008853
4.235	-0.008887
4.240	-0.008871
4.245	-0.008906
4.250	-0.008886
4.255	-0.008893
4.260	-0.008871
4.265	-0.008859
4.270	-0.008830
4.275	-0.008831
4.280	-0.008838
4.285	-0.008832
4.290	-0.008837
4.295	-0.008907
4.300	-0.009026
4.305	-0.009107
4.310	-0.009182
4.315	-0.009232
4.320	-0.009275
4.325	-0.009325
4.330	-0.009414
4.335	-0.009433
4.340	-0.009540
4.345	-0.009580
4.350	-0.009593
4.355	-0.009573
4.360	-0.009512
4.365	-0.009440
4.370	-0.009439
4.375	-0.009514
4.380	-0.009595
4.385	-0.009629
4.390	-0.009699
4.395	-0.009775
4.400	-0.009872
4.405	-0.009933
4.410	-0.009946
4.415	-0.009905
4.420	-0.009932
4.425	-0.009946
4.430	-0.009948
4.435	-0.009941
4.440	-0.009987
4.445	-0.009924
4.450	-0.009931
4.455	-0.010001
4.460	-0.010056
4.465	-0.010132
4.470	-0.010202
4.475	-0.010251
4.480	-0.010326
4.485	-0.010403
4.490	-0.010464
4.495	-0.010540
4.500	-0.010609
4.505	-0.010606
4.510	-0.010631
4.515	-0.010665
4.520	-0.010674
4.525	-0.010715
4.530	-0.010750
4.535	-0.010829
4.540	-0.010898
4.545	-0.011029
4.550	-0.011077
4.555	-0.011181
4.560	-0.011279
4.565	-0.011344
4.570	-0.011357
4.575	-0.011373
4.580	-0.011394
4.585	-0.011394
4.590	-0.011354
4.595	-0.011279
4.600	-0.011271
4.605	-0.011313
4.610	-0.011313
4.615	-0.011362
4.620	-0.011403
4.625	-0.011423
4.630	-0.011481
4.635	-0.011551
4.640	-0.011611
4.645	-0.011645
4.650	-0.011783
4.655	-0.011914
4.660	-0.012018
4.665	-0.012107
4.670	-0.012183
4.675	-0.012273
4.680	-0.012398
4.685	-0.012536
4.690	-0.012659
4.695	-0.012725
4.700	-0.012738
4.705	-0.012696
4.710	-0.012700
4.715	-0.012757
4.720	-0.012818
4.725	-0.012828
4.730	-0.012890
4.735	-0.012890
4.740	-0.012944
4.745	-0.012976
4.750	-0.013023
4.755	-0.013092
4.760	-0.013151
4.765	-0.013304
4.770	-0.013292
4.775	-0.013308
4.780	-0.013334
4.785	-0.013420
4.790	-0.013556
4.795	-0.013728
4.800	-0.013880
4.805	-0.013983
4.810	-0.014109
4.815	-0.014197
4.820	-0.014231
4.825	-0.014307
4.830	-0.014387
4.835	-0.014476
4.840	-0.014520
4.845	-0.014587
4.850	-0.014714
4.855	-0.014824
4.860	-0.014968
4.865	-0.015105
4.870	-0.015171
4.875	-0.015249
4.880	-0.015252
4.885	-0.015241
4.890	-0.015233
4.895	-0.015275
4.900	-0.015378
4.905	-0.015438
4.910	-0.015510
4.915	-0.015555
4.920	-0.015626
4.925	-0.015681
4.930	-0.015765
4.935	-0.015891
4.940	-0.016035
4.945	-0.016185
4.950	-0.016311
4.955	-0.016429
4.960	-0.016540
4.965	-0.016678
4.970	-0.016866
4.975	-0.017007
4.980	-0.017160
4.985	-0.017270
4.990	-0.017371
4.995	-0.017468
5.000	-0.017620
5.005	-0.017853
5.010	-0.018050
5.015	-0.018246
5.020	-0.018410
5.025	-0.018558
5.030	-0.018716
5.035	-0.018892
5.040	-0.019037
5.045	-0.019217
5.050	-0.019365
5.055	-0.019484
5.060	-0.019591
5.065	-0.019838
5.070	-0.020002
5.075	-0.020215
5.080	-0.020449
5.085	-0.020672
5.090	-0.020836
5.095	-0.020994
5.100	-0.021187
5.105	-0.021345
5.110	-0.021509
5.115	-0.021707
5.120	-0.021832
5.125	-0.021967
5.130	-0.022144
5.135	-0.022423
5.140	-0.022702
5.145	-0.023003
5.150	-0.023263
5.155	-0.023566
5.160	-0.023911
5.165	-0.024232
5.170	-0.024618
5.175	-0.024997
5.180	-0.025390
5.185	-0.025778
5.190	-0.026148
5.195	-0.026522
5.200	-0.026950
5.205	-0.027409
5.210	-0.027871
5.215	-0.028384
5.220	-0.028854
5.225	-0.029340
5.230	-0.029891
5.235	-0.030495
5.240	-0.031062
5.245	-0.031624
5.250	-0.032238
5.255	-0.032796
5.260	-0.033432
5.265	-0.034131
5.270	-0.034930
5.275	-0.035824
5.280	-0.036790
5.285	-0.037710
5.290	-0.038757
5.295	-0.040001
5.300	-0.041422
5.305	-0.042991
5.310	-0.044764
5.315	-0.046852
5.320	-0.049108
5.325	-0.051630
5.330	-0.054242
5.335	-0.057020
5.340	-0.059496
5.345	-0.061767
5.350	-0.063473
5.355	-0.064481
5.360	-0.065392
5.365	-0.065347
5.370	-0.064455
5.375	-0.063245
5.380	-0.060792
5.385	-0.056608
5.390	-0.051764
5.395	-0.046859
5.400	-0.040737
5.405	-0.032553
5.410	-0.022984
5.415	-0.014291
5.420	-0.007684
5.425	-0.003487
5.430	-0.000972
5.435	0.000301
5.440	0.000879
5.445	0.001120
5.450	0.001209
5.455	0.001237
5.460	0.001279
5.465	0.001306
5.470	0.001314
5.475	0.001287
5.480	0.001287
5.485	0.001253
5.490	0.001254
5.495	0.001268
5.500	0.001228
5.505	0.001262
5.510	0.001254
5.515	0.001255
5.520	0.001275
5.525	0.001228
5.530	0.001276
5.535	0.001255
5.540	0.001228
5.545	0.001241
5.550	0.001268
5.555	0.001227
5.560	0.001255
5.565	0.001248
5.570	0.001274
5.575	0.001273
5.580	0.001259
5.585	0.001315
5.590	0.001280
5.595	0.001266
5.600	0.001279
5.605	0.001230
5.610	0.001237
5.615	0.001264
5.620	0.001264
5.625	0.001271
5.630	0.001285
5.635	0.001291
5.640	0.001325
5.645	0.001394
5.650	0.001455
5.655	0.001531
5.660	0.001579
5.665	0.001675
5.670	0.001799
5.675	0.001951
5.680	0.002088
5.685	0.002219
5.690	0.002301
5.695	0.002481
5.700	0.002564
5.705	0.002673
5.710	0.002741
5.715	0.002823
5.720	0.002837
5.725	0.002783
5.730	0.002762
5.735	0.002721
5.740	0.002583
5.745	0.002508
5.750	0.002390
5.755	0.002308
5.760	0.002171
5.765	0.002089
5.770	0.001979
5.775	0.001874
5.780	0.001812
5.785	0.001695
5.790	0.001681
5.795	0.001599
5.800	0.001551
5.805	0.001523
5.810	0.001489
5.815	0.001502
5.820	0.001461
5.825	0.001454
5.830	0.001462
5.835	0.001462
5.840	0.001448
5.845	0.001469
5.850	0.001448
5.855	0.001462
5.860	0.001476
5.865	0.001462
5.870	0.001468
5.875	0.001469
5.880	0.001468
5.885	0.001462
5.890	0.001517
5.895	0.001512
5.900	0.001491
5.905	0.001512
5.910	0.001538
5.915	0.001552
5.920	0.001552
5.925	0.001545
5.930	0.001545
5.935	0.001565
5.940	0.001579
5.945	0.001587
5.950	0.001579
5.955	0.001593
5.960	0.001587
5.965	0.001602
5.970	0.001601
5.975	0.001642
5.980	0.001635
5.985	0.001642
5.990	0.001642
5.995	0.001663
6.000	0.001656
6.005	0.001655
6.010	0.001683
6.015	0.001669
6.020	0.001690
6.025	0.001669
6.030	0.001705
6.035	0.001705
6.040	0.001691
6.045	0.001725
6.050	0.001690
6.055	0.001725
6.060	0.001752
6.065	0.001718
6.070	0.001718
6.075	0.001718
6.080	0.001745
6.085	0.001711
6.090	0.001725
6.095	0.001774
6.100	0.001767
6.105	0.001746
6.110	0.001766
6.115	0.001773
6.120	0.001780
6.125	0.001780
6.130	0.001773
6.135	0.001787
6.140	0.001808
6.145	0.001766
6.150	0.001752
6.155	0.001800
6.160	0.001794
6.165	0.001788
6.170	0.001794
6.175	0.001786
6.180	0.001807
6.185	0.001786
6.190	0.001807
6.195	0.001807
6.200	0.001793
6.205	0.001807
6.210	0.001814
6.215	0.001827
6.220	0.001814
6.225	0.001828
6.230	0.001822
6.235	0.001814
6.240	0.001814
6.245	0.001841
6.250	0.001862
6.255	0.001841
6.260	0.001834
6.265	0.001855
6.270	0.001841
6.275	0.001855
6.280	0.001848
6.285	0.001868
6.290	0.001882
6.295	0.001883
6.300	0.001904
6.305	0.001924
6.310	0.001896
6.315	0.001916
6.320	0.001909
6.325	0.001895
6.330	0.001902
6.335	0.001923
6.340	0.001930
6.345	0.001930
6.350	0.001881
6.355	0.001895
6.360	0.001889
6.365	0.001931
6.370	0.001930
6.375	0.001895
6.380	0.001916
6.385	0.001937
6.390	0.001909
6.395	0.001943
6.400	0.001916
6.405	0.001930
6.410	0.001915
6.415	0.001956
6.420	0.001963
6.425	0.001957
6.430	0.001931
6.435	0.001964
6.440	0.001984
6.445	0.001984
6.450	0.001963
6.455	0.001991
6.460	0.002018
6.465	0.001977
6.470	0.002004
6.475	0.001982
6.480	0.001969
6.485	0.002024
6.490	0.002010
6.495	0.002012
6.500	0.001998
6.505	0.002017
6.510	0.002024
6.515	0.002023
6.520	0.002037
6.525	0.001996
6.530	0.002010
6.535	0.002044
6.540	0.002030
6.545	0.002044
6.550	0.002030
6.555	0.002064
6.560	0.002044
6.565	0.002052
6.570	0.002044
6.575	0.002063
6.580	0.002022
6.585	0.002022
6.590	0.002077
6.595	0.002050
6.600	0.002042
6.605	0.002036
6.610	0.002056
6.615	0.002042
6.620	0.002035
6.625	0.002049
6.630	0.002023
6.635	0.002029
6.640	0.002020
6.645	0.002062
6.650	0.002048
6.655	0.002069
6.660	0.002062
6.665	0.002075
6.670	0.002061
6.675	0.002116
6.680	0.002144
6.685	0.002075
6.690	0.002109
6.695	0.002110
6.700	0.002145
6.705	0.002172
6.710	0.002157
6.715	0.002136
6.720	0.002177
6.725	0.002177
6.730	0.002170
6.735	0.002204
6.740	0.002183
6.745	0.002204
6.750	0.002197
6.755	0.002238
6.760	0.002233
6.765	0.002219
6.770	0.002259
6.775	0.002259
6.780	0.002238
6.785	0.002266
6.790	0.002272
6.795	0.002279
6.800	0.002286
6.805	0.002293
6.810	0.002286
6.815	0.002259
6.820	0.002244
6.825	0.002232
6.830	0.002232
6.835	0.002260
6.840	0.002237
6.845	0.002224
6.850	0.002251
6.855	0.002224
6.860	0.002217
6.865	0.002223
6.870	0.002202
6.875	0.002209
6.880	0.002188
6.885	0.002168
6.890	0.002216
6.895	0.002204
6.900	0.002210
6.905	0.002195
6.910	0.002208
6.915	0.002209
6.920	0.002250
6.925	0.002202
6.930	0.002209
6.935	0.002202
6.940	0.002243
6.945	0.002236
6.950	0.002236
6.955	0.002243
6.960	0.002244
6.965	0.002251
6.970	0.002230
6.975	0.002264
6.980	0.002263
6.985	0.002251
6.990	0.002286
6.995	0.002272
7.000	0.002300
7.005	0.002288
7.010	0.002255
7.015	0.002271
7.020	0.002254
7.025	0.002300
7.030	0.002286
7.035	0.002270
7.040	0.002265
7.045	0.002336
7.050	0.002353
7.055	0.002375
7.060	0.002363
7.065	0.002413
7.070	0.002438
7.075	0.002463
7.080	0.002521
7.085	0.002507
7.090	0.002516
7.095	0.002487
7.100	0.002526
7.105	0.002519
7.110	0.002505
7.115	0.002477
7.120	0.002477
7.125	0.002458
7.130	0.002455
7.135	0.002411
7.140	0.002458
7.145	0.002429
7.150	0.002421
7.155	0.002428
7.160	0.002429
7.165	0.002450
7.170	0.002435
7.175	0.002455
7.180	0.002469
7.185	0.002469
7.190	0.002463
7.195	0.002456
7.200	0.002484
7.205	0.002498
7.210	0.002497
7.215	0.002449
7.220	0.002476
7.225	0.002519
7.230	0.002499
7.235	0.002485
7.240	0.002539
7.245	0.002553
7.250	0.002532
7.255	0.002539
7.260	0.002511
7.265	0.002525
7.270	0.002511
7.275	0.002560
7.280	0.002505
7.285	0.002533
7.290	0.002553
7.295	0.002570
7.300	0.002556
7.305	0.002589
7.310	0.002575
7.315	0.002582
7.320	0.002582
7.325	0.002637
7.330	0.002609
7.335	0.002622
7.340	0.002622
7.345	0.002628
7.350	0.002641
7.355	0.002662
7.360	0.002649
7.365	0.002629
7.370	0.002670
7.375	0.002649
7.380	0.002676
7.385	0.002718
7.390	0.002684
7.395	0.002691
7.400	0.002719
7.405	0.002719
7.410	0.002712
7.415	0.002684
7.420	0.002698
7.425	0.002692
7.430	0.002686
7.435	0.002733
7.440	0.002725
7.445	0.002753
7.450	0.002733
7.455	0.002740
7.460	0.002726
7.465	0.002733
7.470	0.002713
7.475	0.002713
7.480	0.002733
7.485	0.002774
7.490	0.002753
7.495	0.002769
7.500	0.002769
7.505	0.002781
7.510	0.002801
7.515	0.002794
7.520	0.002842
7.525	0.002856
7.530	0.002862
7.535	0.002855
7.540	0.002868
7.545	0.002903
7.550	0.002916
7.555	0.002916
7.560	0.002938
7.565	0.002925
7.570	0.002924
7.575	0.002957
7.580	0.002957
7.585	0.002937
7.590	0.002957
7.595	0.002971
7.600	0.002991
7.605	0.002950
7.610	0.002970
7.615	0.002984
7.620	0.002977
7.625	0.002978
7.630	0.003000
7.635	0.003019
7.640	0.003025
7.645	0.003060
7.650	0.003032
7.655	0.003052
7.660	0.003080
7.665	0.003093
7.670	0.003100
7.675	0.003065
7.680	0.003085
7.685	0.003106
7.690	0.003113
7.695	0.003108
7.700	0.003134
7.705	0.003148
7.710	0.003161
7.715	0.003134
7.720	0.003174
7.725	0.003175
7.730	0.003181
7.735	0.003189
7.740	0.003175
7.745	0.003175
7.750	0.003216
7.755	0.003195
7.760	0.003169
7.765	0.003217
7.770	0.003203
7.775	0.003229
7.780	0.003244
7.785	0.003244
7.790	0.003244
7.795	0.003258
7.800	0.003272
7.805	0.003285
7.810	0.003298
7.815	0.003319
7.820	0.003298
7.825	0.003313
7.830	0.003314
7.835	0.003334
7.840	0.003333
7.845	0.003353
7.850	0.003367
7.855	0.003361
7.860	0.003367
7.865	0.003361
7.870	0.003381
7.875	0.003395
7.880	0.003408
7.885	0.003415
7.890	0.003380
7.895	0.003410
7.900	0.003451
7.905	0.003416
7.910	0.003442
7.915	0.003470
7.920	0.003428
7.925	0.003483
7.930	0.003470
7.935	0.003504
7.940	0.003504
7.945	0.003504
7.950	0.003538
7.955	0.003497
7.960	0.003540
7.965	0.003576
7.970	0.003567
7.975	0.003587
7.980	0.003594
7.985	0.003601
7.990	0.003595
7.995	0.003643
8.000	0.003636
8.005	0.003630
8.010	0.003657
8.015	0.003650
8.020	0.003657
8.025	0.003658
8.030	0.003707
8.035	0.003693
8.040	0.003726
8.045	0.003718
8.050	0.003739
8.055	0.003753
8.060	0.003781
8.065	0.003795
8.070	0.003794
8.075	0.003795
8.080	0.003802
8.085	0.003809
8.090	0.003829
8.095	0.003858
8.100	0.003857
8.105	0.003862
8.110	0.003909
8.115	0.003874
8.120	0.003908
8.125	0.003937
8.130	0.003936
8.135	0.003957
8.140	0.003949
8.145	0.003977
8.150	0.003969
8.155	0.004011
8.160	0.004020
8.165	0.004063
8.170	0.004034
8.175	0.004052
8.180	0.004078
8.185	0.004084
8.190	0.004111
8.195	0.004082
8.200	0.004110
8.205	0.004137
8.210	0.004151
8.215	0.004144
8.220	0.004178
8.225	0.004194
8.230	0.004203
8.235	0.004231
8.240	0.004262
8.245	0.004250
8.250	0.004264
8.255	0.004298
8.260	0.004332
8.265	0.004333
8.270	0.004345
8.275	0.004366
8.280	0.004407
8.285	0.004407
8.290	0.004415
8.295	0.004424
8.300	0.004430
8.305	0.004464
8.310	0.004429
8.315	0.004478
8.320	0.004458
8.325	0.004507
8.330	0.004508
8.335	0.004528
8.340	0.004522
8.345	0.004509
8.350	0.004563
8.355	0.004590
8.360	0.004577
8.365	0.004639
8.370	0.004624
8.375	0.004657
8.380	0.004616
8.385	0.004678
8.390	0.004678
8.395	0.004671
8.400	0.004733
8.405	0.004720
8.410	0.004754
8.415	0.004747
8.420	0.004769
8.425	0.004785
8.430	0.004849
8.435	0.004844
8.440	0.004847
8.445	0.004871
8.450	0.004899
8.455	0.004893
8.460	0.004960
8.465	0.004982
8.470	0.005091
8.475	0.005106
8.480	0.005147
8.485	0.005107
8.490	0.005097
8.495	0.005135
8.500	0.005105
8.505	0.005146
8.510	0.005140
8.515	0.005177
8.520	0.005157
8.525	0.005181
8.530	0.005207
8.535	0.005229
8.540	0.005261
8.545	0.005282
8.550	0.005328
8.555	0.005352
8.560	0.005384
8.565	0.005437
8.570	0.005427
8.575	0.005493
8.580	0.005526
8.585	0.005530
8.590	0.005537
8.595	0.005598
8.600	0.005633
8.605	0.005639
8.610	0.005674
8.615	0.005694
8.620	0.005729
8.625	0.005766
8.630	0.005793
8.635	0.005822
8.640	0.005861
8.645	0.005911
8.650	0.005931
8.655	0.005953
8.660	0.005980
8.665	0.006008
8.670	0.006029
8.675	0.006079
8.680	0.006072
8.685	0.006135
8.690	0.006122
8.695	0.006167
8.700	0.006207
8.705	0.006226
8.710	0.006288
8.715	0.006294
8.720	0.006336
8.725	0.006331
8.730	0.006366
8.735	0.006400
8.740	0.006483
8.745	0.006524
8.750	0.006519
8.755	0.006547
8.760	0.006620
8.765	0.006621
8.770	0.006674
8.775	0.006750
8.780	0.006751
8.785	0.006795
8.790	0.006858
8.795	0.006874
8.800	0.006903
8.805	0.006892
8.810	0.006889
8.815	0.006904
8.820	0.006976
8.825	0.007032
8.830	0.007086
8.835	0.007139
8.840	0.007185
8.845	0.007192
8.850	0.007234
8.855	0.007276
8.860	0.007304
8.865	0.007339
8.870	0.007351
8.875	0.007419
8.880	0.007453
8.885	0.007464
8.890	0.007554
8.895	0.007576
8.900	0.007600
8.905	0.007679
8.910	0.007713
8.915	0.007756
8.920	0.007791
8.925	0.007852
8.930	0.007906
8.935	0.007982
8.940	0.008023
8.945	0.008051
8.950	0.008079
8.955	0.008141
8.960	0.008185
8.965	0.008229
8.970	0.008303
8.975	0.008391
8.980	0.008422
8.985	0.008445
8.990	0.008472
8.995	0.008589
9.000	0.008652
9.005	0.008721
9.010	0.008784
9.015	0.008839
9.020	0.008915
9.025	0.008961
9.030	0.009032
9.035	0.009085
9.040	0.009165
9.045	0.009240
9.050	0.009337
9.055	0.009371
9.060	0.009448
9.065	0.009517
9.070	0.009599
9.075	0.009648
9.080	0.009731
9.085	0.009822
9.090	0.009887
9.095	0.010002
9.100	0.010084
9.105	0.010172
9.110	0.010270
9.115	0.010377
9.120	0.010449
9.125	0.010576
9.130	0.010659
9.135	0.010787
9.140	0.010896
9.145	0.010952
9.150	0.011076
9.155	0.011216
9.160	0.011320
9.165	0.011434
9.170	0.011597
9.175	0.011684
9.180	0.011759
9.185	0.011922
9.190	0.012050
9.195	0.012190
9.200	0.012303
9.205	0.012442
9.210	0.012598
9.215	0.012716
9.220	0.012822
9.225	0.012999
9.230	0.013102
9.235	0.013281
9.240	0.013419
9.245	0.013594
9.250	0.013728
9.255	0.013899
9.260	0.014010
9.265	0.014195
9.270	0.014341
9.275	0.014539
9.280	0.014723
9.285	0.014924
9.290	0.015121
9.295	0.015363
9.300	0.015633
9.305	0.015854
9.310	0.016109
9.315	0.016346
9.320	0.016637
9.325	0.016939
9.330	0.017228
9.335	0.017511
9.340	0.017835
9.345	0.018142
9.350	0.018500
9.355	0.018855
9.360	0.019219
9.365	0.019659
9.370	0.020061
9.375	0.020528
9.380	0.021026
9.385	0.021546
9.390	0.022065
9.395	0.022666
9.400	0.023321
9.405	0.024025
9.410	0.024781
9.415	0.025693
9.420	0.026770
9.425	0.028044
9.430	0.029511
9.435	0.031301
9.440	0.033400
9.445	0.035613
9.450	0.038060
9.455	0.040462
9.460	0.042600
9.465	0.044611
9.470	0.046114
9.475	0.047056
9.480	0.047645
9.485	0.047635
9.490	0.046773
9.495	0.045097
9.500	0.042729
9.505	0.039798
9.510	0.035942
9.515	0.030737
9.520	0.024180
9.525	0.017253
9.530	0.010879
9.535	0.005865
9.540	0.002445
9.545	0.000416
9.550	-0.000745
9.555	-0.001277
9.560	-0.001573
9.565	-0.001718
9.570	-0.001787
9.575	-0.001842
9.580	-0.001897
9.585	-0.001884
9.590	-0.001904
9.595	-0.001911
9.600	-0.001939
9.605	-0.001891
9.610	-0.001939
9.615	-0.001946
9.620	-0.001925
9.625	-0.001967
9.630	-0.001946
9.635	-0.001946
9.640	-0.001946
9.645	-0.001953
9.650	-0.001967
9.655	-0.001946
9.660	-0.001967
9.665	-0.001987
9.670	-0.001960
9.675	-0.001967
9.680	-0.002001
9.685	-0.001960
9.690	-0.001981
9.695	-0.001995
9.700	-0.001974
9.705	-0.002001
9.710	-0.001974
9.715	-0.001994
9.720	-0.002001
9.725	-0.001974
9.730	-0.002001
9.735	-0.002015
9.740	-0.001994
9.745	-0.002001
9.750	-0.001997
9.755	-0.001997
9.760	-0.002017
9.765	-0.001997
9.770	-0.002038
9.775	-0.001990
9.780	-0.002004
9.785	-0.002004
9.790	-0.001997
9.795	-0.002017
9.800	-0.002018
9.805	-0.002031
9.810	-0.002031
9.815	-0.002011
9.820	-0.002011
9.825	-0.002025
9.830	-0.002025
9.835	-0.002032
9.840	-0.002046
9.845	-0.002039
9.850	-0.001997
9.855	-0.002018
9.860	-0.002039
9.865	-0.002032
9.870	-0.002060
9.875	-0.002025
9.880	-0.002032
9.885	-0.002060
9.890	-0.002094
9.895	-0.002060
9.900	-0.002019
9.905	-0.002026
9.910	-0.002074
9.915	-0.002039
9.920	-0.002019
9.925	-0.002033
9.930	-0.002012
9.935	-0.002040
9.940	-0.002053
9.945	-0.002033
9.950	-0.002067
9.955	-0.002033
9.960	-0.002040
9.965	-0.002054
9.970	-0.002075
9.975	-0.002040
9.980	-0.002047
9.985	-0.002040
9.990	-0.002061
9.995	-0.002061
10.000	-0.002054
10.005	-0.002040
10.010	-0.002075
10.015	-0.002068
10.020	-0.002075
10.025	-0.002054
10.030	-0.002075
10.035	-0.002068
10.040	-0.002068
10.045	-0.002061
10.050	-0.002061
10.055	-0.002082
10.060	-0.002068
10.065	-0.002061
10.070	-0.002075
10.075	-0.002075
10.080	-0.002069
10.085	-0.002096
10.090	-0.002089
10.095	-0.002089
10.100	-0.002076
10.105	-0.002076
10.110	-0.002069
10.115	-0.002076
10.120	-0.002062
10.125	-0.002076
10.130	-0.002062
10.135	-0.002097
10.140	-0.002090
10.145	-0.002069
10.150	-0.002104
10.155	-0.002097
10.160	-0.002097
10.165	-0.002118
10.170	-0.002097
10.175	-0.002070
10.180	-0.002111
10.185	-0.002097
10.190	-0.002104
10.195	-0.002132
10.200	-0.002111
10.205	-0.002118
10.210	-0.002111
10.215	-0.002139
10.220	-0.002111
10.225	-0.002111
10.230	-0.002111
10.235	-0.002132
10.240	-0.002097
10.245	-0.002125
10.250	-0.002118
10.255	-0.002125
10.260	-0.002139
10.265	-0.002146
10.270	-0.002104
10.275	-0.002125
10.280	-0.002132
10.285	-0.002146
10.290	-0.002152
10.295	-0.002145
10.300	-0.002160
10.305	-0.002132
10.310	-0.002153
10.315	-0.002180
10.320	-0.002187
10.325	-0.002166
10.330	-0.002153
10.335	-0.002173
10.340	-0.002166
10.345	-0.002201
10.350	-0.002194
10.355	-0.002194
10.360	-0.002152
10.365	-0.002201
10.370	-0.002180
10.375	-0.002187
10.380	-0.002194
10.385	-0.002166
10.390	-0.002194
10.395	-0.002187
10.400	-0.002180
10.405	-0.002194
10.410	-0.002201
10.415	-0.002187
10.420	-0.002201
10.425	-0.002194
10.430	-0.002187
10.435	-0.002201
10.440	-0.002208
10.445	-0.002201
10.450	-0.002194
10.455	-0.002229
10.460	-0.002201
10.465	-0.002215
10.470	-0.002249
10.475	-0.002201
10.480	-0.002173
10.485	-0.002242
10.490	-0.002215
10.495	-0.002235
10.500	-0.002229
10.505	-0.002256
10.510	-0.002242
10.515	-0.002235
10.520	-0.002208
10.525	-0.002229
10.530	-0.002256
10.535	-0.002249
10.540	-0.002236
10.545	-0.002249
10.550	-0.002263
10.555	-0.002249
10.560	-0.002256
10.565	-0.002270
10.570	-0.002243
10.575	-0.002236
10.580	-0.002229
10.585	-0.002270
10.590	-0.002263
10.595	-0.002249
10.600	-0.002284
10.605	-0.002284
10.610	-0.002243
10.615	-0.002312
10.620	-0.002264
10.625	-0.002298
10.630	-0.002264
10.635	-0.002292
10.640	-0.002264
10.645	-0.002257
10.650	-0.002291
10.655	-0.002271
10.660	-0.002312
10.665	-0.002291
10.670	-0.002312
10.675	-0.002326
10.680	-0.002305
10.685	-0.002305
10.690	-0.002326
10.695	-0.002305
10.700	-0.002292
10.705	-0.002299
10.710	-0.002285
10.715	-0.002305
10.720	-0.002326
10.725	-0.002292
10.730	-0.002299
10.735	-0.002292
10.740	-0.002340
10.745	-0.002312
10.750	-0.002319
10.755	-0.002326
10.760	-0.002313
10.765	-0.002333
10.770	-0.002320
10.775	-0.002354
10.780	-0.002340
10.785	-0.002319
10.790	-0.002361
10.795	-0.002340
10.800	-0.002333
10.805	-0.002333
10.810	-0.002354
10.815	-0.002361
10.820	-0.002333
10.825	-0.002313
10.830	-0.002375
10.835	-0.002361
10.840	-0.002368
10.845	-0.002382
10.850	-0.002340
10.855	-0.002382
10.860	-0.002341
10.865	-0.002375
10.870	-0.002348
10.875	-0.002389
10.880	-0.002361
10.885	-0.002382
10.890	-0.002375
10.895	-0.002382
10.900	-0.002376
10.905	-0.002389
10.910	-0.002382
10.915	-0.002396
10.920	-0.002362
10.925	-0.002369
10.930	-0.002403
10.935	-0.002362
10.940	-0.002397
10.945	-0.002403
10.950	-0.002383
10.955	-0.002397
10.960	-0.002410
10.965	-0.002431
10.970	-0.002439
10.975	-0.002397
10.980	-0.002390
10.985	-0.002417
10.990	-0.002383
10.995	-0.002404
11.000	-0.002369
11.005	-0.002404
11.010	-0.002383
11.015	-0.002411
11.020	-0.002424
11.025	-0.002445
11.030	-0.002439
11.035	-0.002432
11.040	-0.002397
11.045	-0.002404
11.050	-0.002439
11.055	-0.002445
11.060	-0.002432
11.065	-0.002453
11.070	-0.002404
11.075	-0.002432
11.080	-0.002425
11.085	-0.002439
11.090	-0.002460
11.095	-0.002432
11.100	-0.002446
11.105	-0.002426
11.110	-0.002433
11.115	-0.002467
11.120	-0.002405
11.125	-0.002454
11.130	-0.002474
11.135	-0.002481
11.140	-0.002447
11.145	-0.002440
11.150	-0.002447
11.155	-0.002481
11.160	-0.002433
11.165	-0.002461
11.170	-0.002482
11.175	-0.002489
11.180	-0.002488
11.185	-0.002468
11.190	-0.002440
11.195	-0.002482
11.200	-0.002461
11.205	-0.002475
11.210	-0.002441
11.215	-0.002475
11.220	-0.002503
11.225	-0.002475
11.230	-0.002455
11.235	-0.002455
11.240	-0.002482
11.245	-0.002475
11.250	-0.002496
11.255	-0.002503
11.260	-0.002489
11.265	-0.002462
11.270	-0.002496
11.275	-0.002489
11.280	-0.002475
11.285	-0.002524
11.290	-0.002503
11.295	-0.002524
11.300	-0.002490
11.305	-0.002462
11.310	-0.002483
11.315	-0.002489
11.320	-0.002503
11.325	-0.002497
11.330	-0.002517
11.335	-0.002511
11.340	-0.002524
11.345	-0.002531
11.350	-0.002510
11.355	-0.002490
11.360	-0.002524
11.365	-0.002511
11.370	-0.002497
11.375	-0.002497
11.380	-0.002469
11.385	-0.002531
11.390	-0.002524
11.395	-0.002538
11.400	-0.002531
11.405	-0.002531
11.410	-0.002552
11.415	-0.002503
11.420	-0.002524
11.425	-0.002517
11.430	-0.002531
11.435	-0.002546
11.440	-0.002525
11.445	-0.002545
11.450	-0.002524
11.455	-0.002532
11.460	-0.002545
11.465	-0.002559
11.470	-0.002538
11.475	-0.002566
11.480	-0.002531
11.485	-0.002580
11.490	-0.002559
11.495	-0.002559
11.500	-0.002560
11.505	-0.002560
11.510	-0.002560
11.515	-0.002580
11.520	-0.002566
11.525	-0.002546
11.530	-0.002587
11.535	-0.002552
11.540	-0.002573
11.545	-0.002573
11.550	-0.002580
11.555	-0.002573
11.560	-0.002580
11.565	-0.002574
11.570	-0.002560
11.575	-0.002567
11.580	-0.002615
11.585	-0.002560
11.590	-0.002581
11.595	-0.002587
11.600	-0.002601
11.605	-0.002581
11.610	-0.002587
11.615	-0.002601
11.620	-0.002594
11.625	-0.002546
11.630	-0.002601
11.635	-0.002588
11.640	-0.002588
11.645	-0.002615
11.650	-0.002594
11.655	-0.002588
11.660	-0.002602
11.665	-0.002588
11.670	-0.002588
11.675	-0.002636
11.680	-0.002588
11.685	-0.002602
11.690	-0.002629
11.695	-0.002615
11.700	-0.002602
11.705	-0.002602
11.710	-0.002623
11.715	-0.002629
11.720	-0.002623
11.725	-0.002629
11.730	-0.002616
11.735	-0.002636
11.740	-0.002616
11.745	-0.002644
11.750	-0.002616
11.755	-0.002630
11.760	-0.002623
11.765	-0.002624
11.770	-0.002617
11.775	-0.002603
11.780	-0.002644
11.785	-0.002637
11.790	-0.002610
11.795	-0.002644
11.800	-0.002665
11.805	-0.002658
11.810	-0.002644
11.815	-0.002637
11.820	-0.002672
11.825	-0.002679
11.830	-0.002665
11.835	-0.002652
11.840	-0.002658
11.845	-0.002644
11.850	-0.002644
11.855	-0.002644
11.860	-0.002645
11.865	-0.002651
11.870	-0.002658
11.875	-0.002686
11.880	-0.002686
11.885	-0.002679
11.890	-0.002658
11.895	-0.002672
11.900	-0.002687
11.905	-0.002673
11.910	-0.002672
11.915	-0.002638
11.920	-0.002700
11.925	-0.002700
11.930	-0.002679
11.935	-0.002679
11.940	-0.002707
11.945	-0.002686
11.950	-0.002679
11.955	-0.002721
11.960	-0.002666
11.965	-0.002687
11.970	-0.002680
11.975	-0.002673
11.980	-0.002694
11.985	-0.002694
11.990	-0.002701
11.995	-0.002714
12.000	-0.002715
12.005	-0.002728
12.010	-0.002714
12.015	-0.002708
12.020	-0.002715
12.025	-0.002722
12.030	-0.002701
12.035	-0.002715
12.040	-0.002708
12.045	-0.002728
12.050	-0.002687
12.055	-0.002729
12.060	-0.002729
12.065	-0.002742
12.070	-0.002729
12.075	-0.002715
12.080	-0.002736
12.085	-0.002749
12.090	-0.002749
12.095	-0.002729
12.100	-0.002722
12.105	-0.002750
12.110	-0.002749
12.115	-0.002763
12.120	-0.002729
12.125	-0.002749
12.130	-0.002763
12.135	-0.002729
12.140	-0.002791
12.145	-0.002763
12.150	-0.002736
12.155	-0.002763
12.160	-0.002770
12.165	-0.002778
12.170	-0.002750
12.175	-0.002785
12.180	-0.002791
12.185	-0.002777
12.190	-0.002763
12.195	-0.002756
12.200	-0.002777
12.205	-0.002784
12.210	-0.002770
12.215	-0.002784
12.220	-0.002798
12.225	-0.002791
12.230	-0.002791
12.235	-0.002792
12.240	-0.002764
12.245	-0.002791
12.250	-0.002756
12.255	-0.002777
12.260	-0.002777
12.265	-0.002826
12.270	-0.002791
12.275	-0.002791
12.280	-0.002805
12.285	-0.002791
12.290	-0.002811
12.295	-0.002825
12.300	-0.002805
12.305	-0.002812
12.310	-0.002798
12.315	-0.002818
12.320	-0.002818
12.325	-0.002811
12.330	-0.002805
12.335	-0.002832
12.340	-0.002784
12.345	-0.002839
12.350	-0.002811
12.355	-0.002846
12.360	-0.002832
12.365	-0.002860
12.370	-0.002839
12.375	-0.002846
12.380	-0.002846
12.385	-0.002853
12.390	-0.002867
12.395	-0.002839
12.400	-0.002853
12.405	-0.002853
12.410	-0.002894
12.415	-0.002853
12.420	-0.002860
12.425	-0.002846
12.430	-0.002860
12.435	-0.002888
12.440	-0.002881
12.445	-0.002852
12.450	-0.002880
12.455	-0.002859
12.460	-0.002873
12.465	-0.002852
12.470	-0.002873
12.475	-0.002880
12.480	-0.002880
12.485	-0.002887
12.490	-0.002900
12.495	-0.002880
12.500	-0.002915
12.505	-0.002901
12.510	-0.002880
12.515	-0.002880
12.520	-0.002880
12.525	-0.002893
12.530	-0.002907
12.535	-0.002900
12.540	-0.002901
12.545	-0.002921
12.550	-0.002921
12.555	-0.002928
12.560	-0.002928
12.565	-0.002935
12.570	-0.002942
12.575	-0.002914
12.580	-0.002907
12.585	-0.002948
12.590	-0.002921
12.595	-0.002934
12.600	-0.002928
12.605	-0.002927
12.610	-0.002955
12.615	-0.002934
12.620	-0.002948
12.625	-0.002948
12.630	-0.002949
12.635	-0.002983
12.640	-0.002907
12.645	-0.002948
12.650	-0.002921
12.655	-0.002941
12.660	-0.002976
12.665	-0.002990
12.670	-0.002942
12.675	-0.002983
12.680	-0.002976
12.685	-0.002969
12.690	-0.002948
12.695	-0.002955
12.700	-0.002963
12.705	-0.002955
12.710	-0.002997
12.715	-0.002996
12.720	-0.002969
12.725	-0.002990
12.730	-0.002990
12.735	-0.002962
12.740	-0.002989
12.745	-0.003017
12.750	-0.003017
12.755	-0.002982
12.760	-0.003003
12.765	-0.003011
12.770	-0.002983
12.775	-0.003010
12.780	-0.003017
12.785	-0.003017
12.790	-0.003010
12.795	-0.002983
12.800	-0.003010
12.805	-0.003024
12.810	-0.003010
12.815	-0.003038
12.820	-0.003003
12.825	-0.003044
12.830	-0.003045
12.835	-0.003004
12.840	-0.003066
12.845	-0.003031
12.850	-0.003010
12.855	-0.003044
12.860	-0.003044
12.865	-0.003031
12.870	-0.003031
12.875	-0.003044
12.880	-0.003058
12.885	-0.003058
12.890	-0.003065
12.895	-0.003079
12.900	-0.003080
12.905	-0.003073
12.910	-0.003086
12.915	-0.003086
12.920	-0.003031
12.925	-0.003052
12.930	-0.003079
12.935	-0.003052
12.940	-0.003059
12.945	-0.003086
12.950	-0.003120
12.955	-0.003100
12.960	-0.003072
12.965	-0.003066
12.970	-0.003093
12.975	-0.003121
12.980	-0.003100
12.985	-0.003086
12.990	-0.003093
12.995	-0.003107
13.000	-0.003107
13.005	-0.003100
13.010	-0.003120
13.015	-0.003113
13.020	-0.003113
13.025	-0.003120
13.030	-0.003121
13.035	-0.003114
13.040	-0.003121
13.045	-0.003086
13.050	-0.003148
13.055	-0.003114
13.060	-0.003134
13.065	-0.003134
13.070	-0.003107
13.075	-0.003135
13.080	-0.003134
13.085	-0.003128
13.090	-0.003135
13.095	-0.003107
13.100	-0.003135
13.105	-0.003128
13.110	-0.003149
13.115	-0.003162
13.120	-0.003142
13.125	-0.003169
13.130	-0.003149
13.135	-0.003149
13.140	-0.003163
13.145	-0.003183
13.150	-0.003155
13.155	-0.003197
13.160	-0.003169
13.165	-0.003177
13.170	-0.003177
13.175	-0.003156
13.180	-0.003191
13.185	-0.003163
13.190	-0.003205
13.195	-0.003143
13.200	-0.003184
13.205	-0.003198
13.210	-0.003177
13.215	-0.003177
13.220	-0.003177
13.225	-0.003198
13.230	-0.003212
13.235	-0.003219
13.240	-0.003185
13.245	-0.003212
13.250	-0.003205
13.255	-0.003212
13.260	-0.003164
13.265	-0.003205
13.270	-0.003226
13.275	-0.003212
13.280	-0.003212
13.285	-0.003219
13.290	-0.003219
13.295	-0.003234
13.300	-0.003227
13.305	-0.003241
13.310	-0.003213
13.315	-0.003220
13.320	-0.003241
13.325	-0.003227
13.330	-0.003248
13.335	-0.003207
13.340	-0.003234
13.345	-0.003234
13.350	-0.003241
13.355	-0.003276
13.360	-0.003234
13.365	-0.003256
13.370	-0.003263
13.375	-0.003276
13.380	-0.003248
13.385	-0.003221
13.390	-0.003235
13.395	-0.003269
13.400	-0.003262
13.405	-0.003262
13.410	-0.003262
13.415	-0.003262
13.420	-0.003263
13.425	-0.003290
13.430	-0.003257
13.435	-0.003277
13.440	-0.003277
13.445	-0.003256
13.450	-0.003249
13.455	-0.003270
13.460	-0.003297
13.465	-0.003291
13.470	-0.003249
13.475	-0.003284
13.480	-0.003312
13.485	-0.003291
13.490	-0.003298
13.495	-0.003311
13.500	-0.003333
13.505	-0.003312
13.510	-0.003318
13.515	-0.003319
13.520	-0.003326
13.525	-0.003332
13.530	-0.003291
13.535	-0.003339
13.540	-0.003298
13.545	-0.003305
13.550	-0.003339
13.555	-0.003346
13.560	-0.003367
13.565	-0.003361
13.570	-0.003354
13.575	-0.003319
13.580	-0.003353
13.585	-0.003319
13.590	-0.003312
13.595	-0.003367
13.600	-0.003326
13.605	-0.003354
13.610	-0.003340
13.615	-0.003340
13.620	-0.003354
13.625	-0.003395
13.630	-0.003354
13.635	-0.003375
13.640	-0.003389
13.645	-0.003388
13.650	-0.003354
13.655	-0.003360
13.660	-0.003361
13.665	-0.003409
13.670	-0.003374
13.675	-0.003374
13.680	-0.003388
13.685	-0.003395
13.690	-0.003402
13.695	-0.003416
13.700	-0.003416
13.705	-0.003402
13.710	-0.003409
13.715	-0.003374
13.720	-0.003402
13.725	-0.003422
13.730	-0.003416
13.735	-0.003423
13.740	-0.003408
13.745	-0.003395
13.750	-0.003415
13.755	-0.003436
13.760	-0.003402
13.765	-0.003457
13.770	-0.003416
13.775	-0.003443
13.780	-0.003429
13.785	-0.003443
13.790	-0.003470
13.795	-0.003456
13.800	-0.003436
13.805	-0.003449
13.810	-0.003450
13.815	-0.003470
13.820	-0.003442
13.825	-0.003449
13.830	-0.003457
13.835	-0.003470
13.840	-0.003449
13.845	-0.003463
13.850	-0.003463
13.855	-0.003484
13.860	-0.003470
13.865	-0.003463
13.870	-0.003463
13.875	-0.003456
13.880	-0.003477
13.885	-0.003470
13.890	-0.003477
13.895	-0.003477
13.900	-0.003492
13.905	-0.003470
13.910	-0.003490
13.915	-0.003504
13.920	-0.003497
13.925	-0.003518
13.930	-0.003491
13.935	-0.003504
13.940	-0.003491
13.945	-0.003456
13.950	-0.003491
13.955	-0.003504
13.960	-0.003504
13.965	-0.003533
13.970	-0.003519
13.975	-0.003497
13.980	-0.003539
13.985	-0.003511
13.990	-0.003525
13.995	-0.003539
14.000	-0.003498
14.005	-0.003519
14.010	-0.003519
14.015	-0.003533
14.020	-0.003532
14.025	-0.003505
14.030	-0.003547
14.035	-0.003540
14.040	-0.003547
14.045	-0.003532
14.050	-0.003560
14.055	-0.003567
14.060	-0.003574
14.065	-0.003546
14.070	-0.003581
14.075	-0.003532
14.080	-0.003567
14.085	-0.003566
14.090	-0.003574
14.095	-0.003588
14.100	-0.003574
14.105	-0.003560
14.110	-0.003574
14.115	-0.003580
14.120	-0.003567
14.125	-0.003567
14.130	-0.003581
14.135	-0.003567
14.140	-0.003567
14.145	-0.003595
14.150	-0.003595
14.155	-0.003595
14.160	-0.003609
14.165	-0.003609
14.170	-0.003602
14.175	-0.003588
14.180	-0.003609
14.185	-0.003574
14.190	-0.003595
14.195	-0.003602
14.200	-0.003622
14.205	-0.003588
14.210	-0.003629
14.215	-0.003622
14.220	-0.003609
14.225	-0.003602
14.230	-0.003630
14.235	-0.003630
14.240	-0.003609
14.245	-0.003630
14.250	-0.003637
14.255	-0.003657
14.260	-0.003644
14.265	-0.003595
14.270	-0.003623
14.275	-0.003644
14.280	-0.003637
14.285	-0.003657
14.290	-0.003664
14.295	-0.003658
14.300	-0.003638
14.305	-0.003665
14.310	-0.003658
14.315	-0.003678
14.320	-0.003651
14.325	-0.003658
14.330	-0.003658
14.335	-0.003658
14.340	-0.003699
14.345	-0.003699
14.350	-0.003685
14.355	-0.003671
14.360	-0.003665
14.365	-0.003673
14.370	-0.003707
14.375	-0.003699
14.380	-0.003686
14.385	-0.003686
14.390	-0.003706
14.395	-0.003693
14.400	-0.003707
14.405	-0.003762
14.410	-0.003713
14.415	-0.003700
14.420	-0.003700
14.425	-0.003720
14.430	-0.003714
14.435	-0.003714
14.440	-0.003748
14.445	-0.003755
14.450	-0.003714
14.455	-0.003748
14.460	-0.003734
14.465	-0.003720
14.470	-0.003748
14.475	-0.003782
14.480	-0.003755
14.485	-0.003769
14.490	-0.003769
14.495	-0.003749
14.500	-0.003770
14.505	-0.003769
14.510	-0.003762
14.515	-0.003762
14.520	-0.003756
14.525	-0.003776
14.530	-0.003756
14.535	-0.003783
14.540	-0.003811
14.545	-0.003790
14.550	-0.003811
14.555	-0.003776
14.560	-0.003797
14.565	-0.003805
14.570	-0.003833
14.575	-0.003825
14.580	-0.003784
14.585	-0.003811
14.590	-0.003804
14.595	-0.003804
14.600	-0.003818
14.605	-0.003804
14.610	-0.003791
14.615	-0.003804
14.620	-0.003839
14.625	-0.003811
14.630	-0.003847
14.635	-0.003792
14.640	-0.003833
14.645	-0.003846
14.650	-0.003840
14.655	-0.003853
14.660	-0.003839
14.665	-0.003840
14.670	-0.003854
14.675	-0.003847
14.680	-0.003868
14.685	-0.003854
14.690	-0.003841
14.695	-0.003835
14.700	-0.003869
14.705	-0.003882
14.710	-0.003847
14.715	-0.003868
14.720	-0.003895
14.725	-0.003875
14.730	-0.003834
14.735	-0.003875
14.740	-0.003882
14.745	-0.003896
14.750	-0.003889
14.755	-0.003910
14.760	-0.003904
14.765	-0.003911
14.770	-0.003890
14.775	-0.003904
14.780	-0.003897
14.785	-0.003890
14.790	-0.003911
14.795	-0.003911
14.800	-0.003904
14.805	-0.003898
14.810	-0.003919
14.815	-0.003925
14.820	-0.003898
14.825	-0.003932
14.830	-0.003934
14.835	-0.003920
14.840	-0.003961
14.845	-0.003960
14.850	-0.003940
14.855	-0.003926
14.860	-0.003933
14.865	-0.003975
14.870	-0.003954
14.875	-0.003933
14.880	-0.003940
14.885	-0.003961
14.890	-0.003940
14.895	-0.003975
14.900	-0.003955
14.905	-0.003968
14.910	-0.003961
14.915	-0.003989
14.920	-0.003948
14.925	-0.003968
14.930	-0.003976
14.935	-0.003982
14.940	-0.003948
14.945	-0.003975
14.950	-0.003975
14.955	-0.003968
14.960	-0.003989
14.965	-0.003997
14.970	-0.004003
14.975	-0.003982
14.980	-0.003996
14.985	-0.003982
14.990	-0.003995
14.995	-0.003989
15.000	-0.003975
15.005	-0.004009
15.010	-0.003995
15.015	-0.003995
15.020	-0.004009
15.025	-0.004016
15.030	-0.004017
15.035	-0.003996
15.040	-0.004023
15.045	-0.004002
15.050	-0.004023
15.055	-0.004016
15.060	-0.004016
15.065	-0.004022
15.070	-0.004044
15.075	-0.004078
15.080	-0.004078
15.085	-0.004037
15.090	-0.004064
15.095	-0.004037
15.100	-0.004086
15.105	-0.004044
15.110	-0.004050
15.115	-0.004058
15.120	-0.004071
15.125	-0.004071
15.130	-0.004071
15.135	-0.004050
15.140	-0.004085
15.145	-0.004085
15.150	-0.004085
15.155	-0.004106
15.160	-0.004092
15.165	-0.004086
15.170	-0.004073
15.175	-0.004106
15.180	-0.004065
15.185	-0.004093
15.190	-0.004107
15.195	-0.004107
15.200	-0.004127
15.205	-0.004134
15.210	-0.004121
15.215	-0.004114
15.220	-0.004121
15.225	-0.004135
15.230	-0.004143
15.235	-0.004136
15.240	-0.004149
15.245	-0.004155
15.250	-0.004149
15.255	-0.004135
15.260	-0.004128
15.265	-0.004169
15.270	-0.004149
15.275	-0.004136
15.280	-0.004150
15.285	-0.004156
15.290	-0.004184
15.295	-0.004213
15.300	-0.004206
15.305	-0.004192
15.310	-0.004157
15.315	-0.004178
15.320	-0.004192
15.325	-0.004199
15.330	-0.004199
15.335	-0.004199
15.340	-0.004199
15.345	-0.004172
15.350	-0.004199
15.355	-0.004220
15.360	-0.004193
15.365	-0.004187
15.370	-0.004228
15.375	-0.004214
15.380	-0.004214
15.385	-0.004241
15.390	-0.004235
15.395	-0.004255
15.400	-0.004228
15.405	-0.004228
15.410	-0.004235
15.415	-0.004221
15.420	-0.004235
15.425	-0.004249
15.430	-0.004257
15.435	-0.004243
15.440	-0.004215
15.445	-0.004270
15.450	-0.004263
15.455	-0.004249
15.460	-0.004277
15.465	-0.004277
15.470	-0.004284
15.475	-0.004277
15.480	-0.004250
15.485	-0.004291
15.490	-0.004284
15.495	-0.004285
15.500	-0.004306
15.505	-0.004278
15.510	-0.004277
15.515	-0.004291
15.520	-0.004339
15.525	-0.004291
15.530	-0.004312
15.535	-0.004277
15.540	-0.004332
15.545	-0.004332
15.550	-0.004319
15.555	-0.004319
15.560	-0.004333
15.565	-0.004347
15.570	-0.004340
15.575	-0.004332
15.580	-0.004312
15.585	-0.004346
15.590	-0.004340
15.595	-0.004333
15.600	-0.004368
15.605	-0.004360
15.610	-0.004368
15.615	-0.004361
15.620	-0.004346
15.625	-0.004367
15.630	-0.004389
15.635	-0.004362
15.640	-0.004389
15.645	-0.004367
15.650	-0.004374
15.655	-0.004367
15.660	-0.004374
15.665	-0.004381
15.670	-0.004394
15.675	-0.004387
15.680	-0.004367
15.685	-0.004422
15.690	-0.004422
15.695	-0.004402
15.700	-0.004437
15.705	-0.004415
15.710	-0.004414
15.715	-0.004387
15.720	-0.004421
15.725	-0.004442
15.730	-0.004442
15.735	-0.004435
15.740	-0.004436
15.745	-0.004428
15.750	-0.004442
15.755	-0.004428
15.760	-0.004422
15.765	-0.004423
15.770	-0.004402
15.775	-0.004435
15.780	-0.004449
15.785	-0.004462
15.790	-0.004435
15.795	-0.004455
15.800	-0.004449
15.805	-0.004469
15.810	-0.004455
15.815	-0.004469
15.820	-0.004497
15.825	-0.004462
15.830	-0.004484
15.835	-0.004505
15.840	-0.004462
15.845	-0.004483
15.850	-0.004477
15.855	-0.004511
15.860	-0.004476
15.865	-0.004504
15.870	-0.004525
15.875	-0.004517
15.880	-0.004503
15.885	-0.004530
15.890	-0.004517
15.895	-0.004559
15.900	-0.004519
15.905	-0.004532
15.910	-0.004538
15.915	-0.004545
15.920	-0.004532
15.925	-0.004518
15.930	-0.004552
15.935	-0.004558
15.940	-0.004538
15.945	-0.004579
15.950	-0.004579
15.955	-0.004559
15.960	-0.004594
15.965	-0.004581
15.970	-0.004574
15.975	-0.004600
15.980	-0.004594
15.985	-0.004594
15.990	-0.004607
15.995	-0.004587
16.000	-0.004587
16.005	-0.004601
16.010	-0.004588
16.015	-0.004608
16.020	-0.004608
16.025	-0.004580
16.030	-0.004596
16.035	-0.004610
16.040	-0.004615
16.045	-0.004608
16.050	-0.004601
16.055	-0.004622
16.060	-0.004657
16.065	-0.004615
16.070	-0.004608
16.075	-0.004663
16.080	-0.004629
16.085	-0.004670
16.090	-0.004657
16.095	-0.004651
16.100	-0.004658
16.105	-0.004637
16.110	-0.004664
16.115	-0.004678
16.120	-0.004664
16.125	-0.004672
16.130	-0.004678
16.135	-0.004678
16.140	-0.004671
16.145	-0.004678
16.150	-0.004692
16.155	-0.004692
16.160	-0.004706
16.165	-0.004693
16.170	-0.004728
16.175	-0.004761
16.180	-0.004712
16.185	-0.004705
16.190	-0.004726
16.195	-0.004719
16.200	-0.004720
16.205	-0.004733
16.210	-0.004719
16.215	-0.004754
16.220	-0.004740
16.225	-0.004761
16.230	-0.004749
16.235	-0.004776
16.240	-0.004748
16.245	-0.004754
16.250	-0.004796
16.255	-0.004769
16.260	-0.004783
16.265	-0.004762
16.270	-0.004769
16.275	-0.004783
16.280	-0.004762
16.285	-0.004797
16.290	-0.004831
16.295	-0.004791
16.300	-0.004799
16.305	-0.004805
16.310	-0.004776
16.315	-0.004825
16.320	-0.004783
16.325	-0.004825
16.330	-0.004839
16.335	-0.004811
16.340	-0.004838
16.345	-0.004832
16.350	-0.004866
16.355	-0.004832
16.360	-0.004847
16.365	-0.004854
16.370	-0.004867
16.375	-0.004860
16.380	-0.004867
16.385	-0.004840
16.390	-0.004868
16.395	-0.004854
16.400	-0.004882
16.405	-0.004875
16.410	-0.004869
16.415	-0.004861
16.420	-0.004874
16.425	-0.004916
16.430	-0.004911
16.435	-0.004890
16.440	-0.004903
16.445	-0.004909
16.450	-0.004910
16.455	-0.004902
16.460	-0.004916
16.465	-0.004909
16.470	-0.004930
16.475	-0.004929
16.480	-0.004923
16.485	-0.004930
16.490	-0.004936
16.495	-0.004945
16.500	-0.004952
16.505	-0.004937
16.510	-0.004957
16.515	-0.004950
16.520	-0.004936
16.525	-0.004951
16.530	-0.004965
16.535	-0.004971
16.540	-0.004972
16.545	-0.004923
16.550	-0.004971
16.555	-0.004970
16.560	-0.004992
16.565	-0.004979
16.570	-0.004965
16.575	-0.004977
16.580	-0.005019
16.585	-0.004970
16.590	-0.005019
16.595	-0.004978
16.600	-0.005012
16.605	-0.005032
16.610	-0.005012
16.615	-0.004998
16.620	-0.005067
16.625	-0.005054
16.630	-0.005028
16.635	-0.005034
16.640	-0.005040
16.645	-0.005075
16.650	-0.005040
16.655	-0.005061
16.660	-0.005062
16.665	-0.005055
16.670	-0.005069
16.675	-0.005083
16.680	-0.005083
16.685	-0.005076
16.690	-0.005076
16.695	-0.005077
16.700	-0.005112
16.705	-0.005070
16.710	-0.005111
16.715	-0.005118
16.720	-0.005125
16.725	-0.005104
16.730	-0.005112
16.735	-0.005084
16.740	-0.005139
16.745	-0.005132
16.750	-0.005140
16.755	-0.005113
16.760	-0.005162
16.765	-0.005149
16.770	-0.005155
16.775	-0.005176
16.780	-0.005177
16.785	-0.005171
16.790	-0.005184
16.795	-0.005191
16.800	-0.005157
16.805	-0.005199
16.810	-0.005206
16.815	-0.005192
16.820	-0.005234
16.825	-0.005221
16.830	-0.005216
16.835	-0.005222
16.840	-0.005221
16.845	-0.005207
16.850	-0.005215
16.855	-0.005208
16.860	-0.005223
16.865	-0.005209
16.870	-0.005251
16.875	-0.005265
16.880	-0.005265
16.885	-0.005273
16.890	-0.005273
16.895	-0.005269
16.900	-0.005289
16.905	-0.005275
16.910	-0.005323
16.915	-0.005309
16.920	-0.005308
16.925	-0.005295
16.930	-0.005337
16.935	-0.005302
16.940	-0.005323
16.945	-0.005316
16.950	-0.005324
16.955	-0.005309
16.960	-0.005345
16.965	-0.005338
16.970	-0.005352
16.975	-0.005316
16.980	-0.005357
16.985	-0.005329
16.990	-0.005349
16.995	-0.005355
17.000	-0.005370
17.005	-0.005363
17.010	-0.005364
17.015	-0.005377
17.020	-0.005390
17.025	-0.005383
17.030	-0.005364
17.035	-0.005398
17.040	-0.005377
17.045	-0.005431
17.050	-0.005424
17.055	-0.005362
17.060	-0.005424
17.065	-0.005424
17.070	-0.005430
17.075	-0.005423
17.080	-0.005458
17.085	-0.005471
17.090	-0.005451
17.095	-0.005466
17.100	-0.005446
17.105	-0.005472
17.110	-0.005478
17.115	-0.005465
17.120	-0.005472
17.125	-0.005485
17.130	-0.005478
17.135	-0.005477
17.140	-0.005478
17.145	-0.005491
17.150	-0.005492
17.155	-0.005513
17.160	-0.005507
17.165	-0.005500
17.170	-0.005526
17.175	-0.005511
17.180	-0.005533
17.185	-0.005533
17.190	-0.005491
17.195	-0.005533
17.200	-0.005554
17.205	-0.005526
17.210	-0.005540
17.215	-0.005560
17.220	-0.005567
17.225	-0.005574
17.230	-0.005549
17.235	-0.005583
17.240	-0.005595
17.245	-0.005595
17.250	-0.005589
17.255	-0.005581
17.260	-0.005589
17.265	-0.005575
17.270	-0.005596
17.275	-0.005623
17.280	-0.005637
17.285	-0.005581
17.290	-0.005637
17.295	-0.005618
17.300	-0.005631
17.305	-0.005658
17.310	-0.005644
17.315	-0.005616
17.320	-0.005652
17.325	-0.005645
17.330	-0.005637
17.335	-0.005693
17.340	-0.005652
17.345	-0.005645
17.350	-0.005701
17.355	-0.005694
17.360	-0.005681
17.365	-0.005716
17.370	-0.005688
17.375	-0.005714
17.380	-0.005721
17.385	-0.005735
17.390	-0.005687
17.395	-0.005736
17.400	-0.005722
17.405	-0.005736
17.410	-0.005742
17.415	-0.005741
17.420	-0.005728
17.425	-0.005728
17.430	-0.005765
17.435	-0.005764
17.440	-0.005762
17.445	-0.005755
17.450	-0.005762
17.455	-0.005763
17.460	-0.005763
17.465	-0.005777
17.470	-0.005790
17.475	-0.005783
17.480	-0.005776
17.485	-0.005816
17.490	-0.005789
17.495	-0.005791
17.500	-0.005819
17.505	-0.005825
17.510	-0.005830
17.515	-0.005830
17.520	-0.005852
17.525	-0.005871
17.530	-0.005845
17.535	-0.005824
17.540	-0.005879
17.545	-0.005885
17.550	-0.005872
17.555	-0.005852
17.560	-0.005896
17.565	-0.005895
17.570	-0.005901
17.575	-0.005900
17.580	-0.005873
17.585	-0.005923
17.590	-0.005922
17.595	-0.005915
17.600	-0.005928
17.605	-0.005949
17.610	-0.005942
17.615	-0.005956
17.620	-0.005956
17.625	-0.005970
17.630	-0.005951
17.635	-0.005971
17.640	-0.005970
17.645	-0.005983
17.650	-0.005991
17.655	-0.005983
17.660	-0.005990
17.665	-0.006011
17.670	-0.006066
17.675	-0.006037
17.680	-0.006010
17.685	-0.006051
17.690	-0.006051
17.695	-0.006046
17.700	-0.006019
17.705	-0.006065
17.710	-0.006058
17.715	-0.006064
17.720	-0.006078
17.725	-0.006065
17.730	-0.006092
17.735	-0.006092
17.740	-0.006079
17.745	-0.006106
17.750	-0.006091
17.755	-0.006112
17.760	-0.006127
17.765	-0.006121
17.770	-0.006127
17.775	-0.006118
17.780	-0.006139
17.785	-0.006158
17.790	-0.006179
17.795	-0.006137
17.800	-0.006165
17.805	-0.006137
17.810	-0.006186
17.815	-0.006177
17.820	-0.006164
17.825	-0.006199
17.830	-0.006220
17.835	-0.006178
17.840	-0.006204
17.845	-0.006211
17.850	-0.006218
17.855	-0.006238
17.860	-0.006224
17.865	-0.006210
17.870	-0.006231
17.875	-0.006252
17.880	-0.006265
17.885	-0.006277
17.890	-0.006285
17.895	-0.006272
17.900	-0.006238
17.905	-0.006299
17.910	-0.006283
17.915	-0.006303
17.920	-0.006304
17.925	-0.006297
17.930	-0.006304
17.935	-0.006324
17.940	-0.006317
17.945	-0.006351
17.950	-0.006352
17.955	-0.006353
17.960	-0.006381
17.965	-0.006368
17.970	-0.006354
17.975	-0.006346
17.980	-0.006381
17.985	-0.006381
17.990	-0.006395
17.995	-0.006362
18.000	-0.006403
18.005	-0.006382
18.010	-0.006437
18.015	-0.006450
18.020	-0.006424
18.025	-0.006445
18.030	-0.006440
18.035	-0.006432
18.040	-0.006445
18.045	-0.006445
18.050	-0.006445
18.055	-0.006445
18.060	-0.006487
18.065	-0.006494
18.070	-0.006453
18.075	-0.006480
18.080	-0.006515
18.085	-0.006508
18.090	-0.006502
18.095	-0.006511
18.100	-0.006510
18.105	-0.006537
18.110	-0.006556
18.115	-0.006529
18.120	-0.006557
18.125	-0.006558
18.130	-0.006551
18.135	-0.006564
18.140	-0.006564
18.145	-0.006590
18.150	-0.006576
18.155	-0.006577
18.160	-0.006580
18.165	-0.006567
18.170	-0.006621
18.175	-0.006612
18.180	-0.006619
18.185	-0.006633
18.190	-0.006634
18.195	-0.006634
18.200	-0.006648
18.205	-0.006675
18.210	-0.006661
18.215	-0.006675
18.220	-0.006675
18.225	-0.006656
18.230	-0.006693
18.235	-0.006692
18.240	-0.006718
18.245	-0.006704
18.250	-0.006705
18.255	-0.006719
18.260	-0.006740
18.265	-0.006741
18.270	-0.006747
18.275	-0.006719
18.280	-0.006753
18.285	-0.006768
18.290	-0.006769
18.295	-0.006757
18.300	-0.006783
18.305	-0.006795
18.310	-0.006815
18.315	-0.006774
18.320	-0.006823
18.325	-0.006809
18.330	-0.006831
18.335	-0.006816
18.340	-0.006830
18.345	-0.006843
18.350	-0.006822
18.355	-0.006850
18.360	-0.006853
18.365	-0.006880
18.370	-0.006873
18.375	-0.006858
18.380	-0.006892
18.385	-0.006906
18.390	-0.006920
18.395	-0.006921
18.400	-0.006914
18.405	-0.006907
18.410	-0.006922
18.415	-0.006949
18.420	-0.006949
18.425	-0.006977
18.430	-0.006972
18.435	-0.006965
18.440	-0.006950
18.445	-0.007012
18.450	-0.006992
18.455	-0.006978
18.460	-0.007020
18.465	-0.007019
18.470	-0.006999
18.475	-0.007026
18.480	-0.007049
18.485	-0.007055
18.490	-0.007063
18.495	-0.007080
18.500	-0.007094
18.505	-0.007064
18.510	-0.007084
18.515	-0.007092
18.520	-0.007079
18.525	-0.007107
18.530	-0.007101
18.535	-0.007088
18.540	-0.007144
18.545	-0.007151
18.550	-0.007130
18.555	-0.007164
18.560	-0.007160
18.565	-0.007195
18.570	-0.007153
18.575	-0.007171
18.580	-0.007165
18.585	-0.007214
18.590	-0.007208
18.595	-0.007235
18.600	-0.007249
18.605	-0.007227
18.610	-0.007227
18.615	-0.007228
18.620	-0.007256
18.625	-0.007278
18.630	-0.007271
18.635	-0.007243
18.640	-0.007270
18.645	-0.007292
18.650	-0.007265
18.655	-0.007320
18.660	-0.007313
18.665	-0.007341
18.670	-0.007321
18.675	-0.007348
18.680	-0.007321
18.685	-0.007376
18.690	-0.007356
18.695	-0.007337
18.700	-0.007366
18.705	-0.007413
18.710	-0.007385
18.715	-0.007419
18.720	-0.007398
18.725	-0.007404
18.730	-0.007425
18.735	-0.007474
18.740	-0.007433
18.745	-0.007453
18.750	-0.007474
18.755	-0.007460
18.760	-0.007490
18.765	-0.007497
18.770	-0.007469
18.775	-0.007503
18.780	-0.007523
18.785	-0.007502
18.790	-0.007530
18.795	-0.007510
18.800	-0.007546
18.805	-0.007566
18.810	-0.007545
18.815	-0.007601
18.820	-0.007587
18.825	-0.007617
18.830	-0.007612
18.835	-0.007633
18.840	-0.007603
18.845	-0.007603
18.850	-0.007616
18.855	-0.007623
18.860	-0.007671
18.865	-0.007665
18.870	-0.007694
18.875	-0.007709
18.880	-0.007676
18.885	-0.007711
18.890	-0.007713
18.895	-0.007722
18.900	-0.007765
18.905	-0.007765
18.910	-0.007750
18.915	-0.007758
18.920	-0.007724
18.925	-0.007779
18.930	-0.007801
18.935	-0.007809
18.940	-0.007802
18.945	-0.007792
18.950	-0.007797
18.955	-0.007860
18.960	-0.007829
18.965	-0.007844
18.970	-0.007843
18.975	-0.007856
18.980	-0.007850
18.985	-0.007869
18.990	-0.007909
18.995	-0.007886
19.000	-0.007933
19.005	-0.007910
19.010	-0.007908
19.015	-0.007928
19.020	-0.007949
19.025	-0.007958
19.030	-0.007966
19.035	-0.007992
19.040	-0.007984
19.045	-0.007997
19.050	-0.008004
19.055	-0.008024
19.060	-0.008004
19.065	-0.008025
19.070	-0.008060
19.075	-0.008073
19.080	-0.008066
19.085	-0.008120
19.090	-0.008120
19.095	-0.008088
19.100	-0.008144
19.105	-0.008127
19.110	-0.008147
19.115	-0.008147
19.120	-0.008155
19.125	-0.008169
19.130	-0.008177
19.135	-0.008198
19.140	-0.008232
19.145	-0.008197
19.150	-0.008218
19.155	-0.008233
19.160	-0.008230
19.165	-0.008257
19.170	-0.008271
19.175	-0.008297
19.180	-0.008305
19.185	-0.008306
19.190	-0.008280
19.195	-0.008344
19.200	-0.008324
19.205	-0.008375
19.210	-0.008390
19.215	-0.008425
19.220	-0.008399
19.225	-0.008445
19.230	-0.008434
19.235	-0.008407
19.240	-0.008482
19.245	-0.008462
19.250	-0.008490
19.255	-0.008500
19.260	-0.008523
19.265	-0.008537
19.270	-0.008564
19.275	-0.008550
19.280	-0.008559
19.285	-0.008601
19.290	-0.008588
19.295	-0.008640
19.300	-0.008606
19.305	-0.008605
19.310	-0.008641
19.315	-0.008655
19.320	-0.008684
19.325	-0.008640
19.330	-0.008708
19.335	-0.008691
19.340	-0.008682
19.345	-0.008701
19.350	-0.008707
19.355	-0.008768
19.360	-0.008776
19.365	-0.008768
19.370	-0.008744
19.375	-0.008794
19.380	-0.008794
19.385	-0.008808
19.390	-0.008835
19.395	-0.008821
19.400	-0.008835
19.405	-0.008875
19.410	-0.008895
19.415	-0.008906
19.420	-0.008878
19.425	-0.008914
19.430	-0.008892
19.435	-0.008951
19.440	-0.008901
19.445	-0.008954
19.450	-0.008997
19.455	-0.008948
19.460	-0.008962
19.465	-0.008962
19.470	-0.009066
19.475	-0.009031
19.480	-0.009044
19.485	-0.009065
19.490	-0.009115
19.495	-0.009069
19.500	-0.009084
19.505	-0.009107
19.510	-0.009101
19.515	-0.009109
19.520	-0.009131
19.525	-0.009146
19.530	-0.009175
19.535	-0.009189
19.540	-0.009225
19.545	-0.009225
19.550	-0.009226
19.555	-0.009247
19.560	-0.009250
19.565	-0.009271
19.570	-0.009270
19.575	-0.009317
19.580	-0.009304
19.585	-0.009338
19.590	-0.009347
19.595	-0.009355
19.600	-0.009363
19.605	-0.009385
19.610	-0.009413
19.615	-0.009412
19.620	-0.009441
19.625	-0.009458
19.630	-0.009431
19.635	-0.009459
19.640	-0.009505
19.645	-0.009516
19.650	-0.009508
19.655	-0.009502
19.660	-0.009515
19.665	-0.009544
19.670	-0.009581
19.675	-0.009583
19.680	-0.009611
19.685	-0.009619
19.690	-0.009659
19.695	-0.009666
19.700	-0.009658
19.705	-0.009670
19.710	-0.009687
19.715	-0.009702
19.720	-0.009731
19.725	-0.009751
19.730	-0.009781
19.735	-0.009775
19.740	-0.009817
19.745	-0.009845
19.750	-0.009857
19.755	-0.009863
19.760	-0.009853
19.765	-0.009861
19.770	-0.009938
19.775	-0.009971
19.780	-0.009927
19.785	-0.009998
19.790	-0.009976
19.795	-0.009999
19.800	-0.010038
19.805	-0.010059
19.810	-0.010081
19.815	-0.010094
19.820	-0.010109
19.825	-0.010105
19.830	-0.010156
19.835	-0.010162
19.840	-0.010197
19.845	-0.010210
19.850	-0.010245
19.855	-0.010252
19.860	-0.010273
19.865	-0.010281
19.870	-0.010295
19.875	-0.010321
19.880	-0.010335
19.885	-0.010333
19.890	-0.010367
19.895	-0.010367
19.900	-0.010414
19.905	-0.010431
19.910	-0.010462
19.915	-0.010474
19.920	-0.010501
19.925	-0.010535
19.930	-0.010546
19.935	-0.010557
19.940	-0.010589
19.945	-0.010636
19.950	-0.010650
19.955	-0.010636
19.960	-0.010662
19.965	-0.010680
19.970	-0.010693
19.975	-0.010766
19.980	-0.010767
19.985	-0.010760
19.990	-0.010815
19.995	-0.010814
20.000	-0.010842
20.005	-0.010849
20.010	-0.010876
20.015	-0.010888
20.020	-0.010917
20.025	-0.010941
20.030	-0.010964
20.035	-0.010999
20.040	-0.010990
20.045	-0.011053
20.050	-0.011061
20.055	-0.011110
20.060	-0.011145
20.065	-0.011167
20.070	-0.011174
20.075	-0.011186
20.080	-0.011256
20.085	-0.011287
20.090	-0.011292
20.095	-0.011294
20.100	-0.011347
20.105	-0.011365
20.110	-0.011378
20.115	-0.011412
20.120	-0.011454
20.125	-0.011502
20.130	-0.011469
20.135	-0.011511
20.140	-0.011540
20.145	-0.011588
20.150	-0.011609
20.155	-0.011610
20.160	-0.011628
20.165	-0.011650
20.170	-0.011678
20.175	-0.011718
20.180	-0.011719
20.185	-0.011747
20.190	-0.011791
20.195	-0.011834
20.200	-0.011822
20.205	-0.011872
20.210	-0.011924
20.215	-0.011960
20.220	-0.011969
20.225	-0.012009
20.230	-0.012026
20.235	-0.012078
20.240	-0.012105
20.245	-0.012121
20.250	-0.012136
20.255	-0.012132
20.260	-0.012158
20.265	-0.012220
20.270	-0.012227
20.275	-0.012271
20.280	-0.012325
20.285	-0.012351
20.290	-0.012353
20.295	-0.012384
20.300	-0.012439
20.305	-0.012435
20.310	-0.012497
20.315	-0.012524
20.320	-0.012535
20.325	-0.012599
20.330	-0.012614
20.335	-0.012664
20.340	-0.012736
20.345	-0.012725
20.350	-0.012725
20.355	-0.012823
20.360	-0.012831
20.365	-0.012854
20.370	-0.012886
20.375	-0.012934
20.380	-0.012984
20.385	-0.013029
20.390	-0.013012
20.395	-0.013098
20.400	-0.013151
20.405	-0.013169
20.410	-0.013207
20.415	-0.013241
20.420	-0.013293
20.425	-0.013303
20.430	-0.013332
20.435	-0.013397
20.440	-0.013414
20.445	-0.013475
20.450	-0.013480
20.455	-0.013557
20.460	-0.013602
20.465	-0.013646
20.470	-0.013685
20.475	-0.013725
20.480	-0.013818
20.485	-0.013863
20.490	-0.013884
20.495	-0.013942
20.500	-0.014011
20.505	-0.014040
20.510	-0.014086
20.515	-0.014116
20.520	-0.014120
20.525	-0.014161
20.530	-0.014221
20.535	-0.014254
20.540	-0.014307
20.545	-0.014313
20.550	-0.014404
20.555	-0.014447
20.560	-0.014475
20.565	-0.014530
20.570	-0.014559
20.575	-0.014620
20.580	-0.014648
20.585	-0.014699
20.590	-0.014706
20.595	-0.014773
20.600	-0.014827
20.605	-0.014859
20.610	-0.014934
20.615	-0.014939
20.620	-0.015030
20.625	-0.015063
20.630	-0.015153
20.635	-0.015223
20.640	-0.015317
20.645	-0.015349
20.650	-0.015376
20.655	-0.015480
20.660	-0.015517
20.665	-0.015595
20.670	-0.015619
20.675	-0.015718
20.680	-0.015753
20.685	-0.015837
20.690	-0.015901
20.695	-0.015938
20.700	-0.016000
20.705	-0.016094
20.710	-0.016115
20.715	-0.016204
20.720	-0.016291
20.725	-0.016371
20.730	-0.016389
20.735	-0.016445
20.740	-0.016514
20.745	-0.016559
20.750	-0.016645
20.755	-0.016715
20.760	-0.016757
20.765	-0.016851
20.770	-0.016970
20.775	-0.017075
20.780	-0.017138
20.785	-0.017246
20.790	-0.017348
20.795	-0.017468
20.800	-0.017538
20.805	-0.017642
20.810	-0.017712
20.815	-0.017771
20.820	-0.017884
20.825	-0.017976
20.830	-0.018072
20.835	-0.018193
20.840	-0.018248
20.845	-0.018359
20.850	-0.018456
20.855	-0.018536
20.860	-0.018615
20.865	-0.018737
20.870	-0.018803
20.875	-0.018923
20.880	-0.019015
20.885	-0.019182
20.890	-0.019312
20.895	-0.019400
20.900	-0.019523
20.905	-0.019605
20.910	-0.019689
20.915	-0.019757
20.920	-0.019871
20.925	-0.019975
20.930	-0.020035
20.935	-0.020136
20.940	-0.020259
20.945	-0.020408
20.950	-0.020541
20.955	-0.020687
20.960	-0.020812
20.965	-0.020910
20.970	-0.021054
20.975	-0.021204
20.980	-0.021299
20.985	-0.021424
20.990	-0.021520
20.995	-0.021659
21.000	-0.021824
21.005	-0.022089
21.010	-0.022161
21.015	-0.022281
21.020	-0.022490
21.025	-0.022645
21.030	-0.022840
21.035	-0.023030
21.040	-0.023268
21.045	-0.023422
21.050	-0.023657
21.055	-0.023908
21.060	-0.024099
21.065	-0.024234
21.070	-0.024458
21.075	-0.024701
21.080	-0.024948
21.085	-0.025165
21.090	-0.025388
21.095	-0.025635
21.100	-0.025855
21.105	-0.026164
21.110	-0.026473
21.115	-0.026762
21.120	-0.026965
21.125	-0.027307
21.130	-0.027707
21.135	-0.028048
21.140	-0.028459
21.145	-0.028830
21.150	-0.029016
21.155	-0.029195
21.160	-0.029618
21.165	-0.029805
21.170	-0.030059
21.175	-0.030719
21.180	-0.031242
21.185	-0.031724
21.190	-0.032281
21.195	-0.032831
21.200	-0.033357
21.205	-0.034053
21.210	-0.034560
21.215	-0.035010
21.220	-0.035698
21.225	-0.036662
21.230	-0.037531
21.235	-0.038601
21.240	-0.039479
21.245	-0.039665
21.250	-0.040643
21.255	-0.042410
21.260	-0.042884
21.265	-0.043829
21.270	-0.044987
21.275	-0.046191
21.280	-0.047245
21.285	-0.047877
21.290	-0.047924
21.295	-0.047948
21.300	-0.047579
21.305	-0.046687
21.310	-0.045273
21.315	-0.043146
21.320	-0.040429
21.325	-0.037035
21.330	-0.033133
21.335	-0.029192
21.340	-0.025376
21.345	-0.021259
21.350	-0.016723
21.355	-0.012153
21.360	-0.008078
21.365	-0.004979
21.370	-0.002866
21.375	-0.001556
21.380	-0.000827
21.385	-0.000447
21.390	-0.000243
21.395	-0.000169
21.400	-0.000095
21.405	-0.000081
21.410	-0.000054
21.415	-0.000027
21.420	-0.000027
21.425	-0.000033
21.430	-0.000034
21.435	0.000041
21.440	-0.000000
21.445	0.000007
21.450	0.000027
21.455	0.000034
21.460	0.000013
21.465	0.000027
21.470	0.000007
21.475	0.000047
21.480	0.000013
21.485	0.000020
21.490	0.000027
21.495	0.000041
21.500	0.000034
21.505	0.000020
21.510	0.000040
21.515	0.000047
21.520	0.000013
21.525	0.000020
21.530	0.000019
21.535	0.000026
21.540	0.000019
21.545	0.000047
21.550	0.000040
21.555	0.000047
21.560	0.000068
21.565	0.000054
21.570	0.000046
21.575	0.000067
21.580	0.000046
21.585	0.000067
21.590	0.000094
21.595	0.000033
21.600	0.000033
21.605	0.000087
21.610	0.000060
21.615	0.000039
21.620	0.000033
21.625	0.000060
21.630	0.000054
21.635	0.000053
21.640	0.000073
21.645	0.000046
21.650	0.000032
21.655	0.000066
21.660	0.000060
21.665	0.000046
21.670	0.000059
21.675	0.000052
21.680	0.000059
21.685	0.000039
21.690	0.000087
21.695	0.000053
21.700	0.000073
21.705	0.000032
21.710	0.000059
21.715	0.000046
21.720	0.000059
21.725	0.000066
21.730	0.000080
21.735	0.000052
21.740	0.000039
21.745	0.000045
21.750	0.000066
21.755	0.000073
21.760	0.000060
21.765	0.000066
21.770	0.000066
21.775	0.000065
21.780	0.000072
21.785	0.000072
21.790	0.000059
21.795	0.000072
21.800	0.000072
21.805	0.000052
21.810	0.000045
21.815	0.000065
21.820	0.000079
21.825	0.000046
21.830	0.000059
21.835	0.000052
21.840	0.000038
21.845	0.000045
21.850	0.000052
21.855	0.000072
21.860	0.000045
21.865	0.000045
21.870	0.000031
21.875	0.000072
21.880	0.000058
21.885	0.000065
21.890	0.000038
21.895	0.000045
21.900	0.000065
21.905	0.000058
21.910	0.000044
21.915	0.000078
21.920	0.000085
21.925	0.000051
21.930	0.000031
21.935	0.000098
21.940	0.000058
21.945	0.000071
21.950	0.000044
21.955	0.000044
21.960	0.000051
21.965	0.000058
21.970	0.000044
21.975	0.000071
21.980	0.000051
21.985	0.000044
21.990	0.000051
21.995	0.000071
22.000	0.000030
22.005	0.000057
22.010	0.000037
22.015	0.000064
22.020	0.000085
22.025	0.000065
22.030	0.000024
22.035	0.000044
22.040	0.000051
22.045	0.000044
22.050	0.000078
22.055	0.000064
22.060	0.000064
22.065	0.000077
22.070	0.000077
22.075	0.000037
22.080	0.000050
22.085	0.000064
22.090	0.000044
22.095	0.000064
22.100	0.000078
22.105	0.000050
22.110	0.000050
22.115	0.000064
22.120	0.000064
22.125	0.000064
22.130	0.000064
22.135	0.000077
22.140	0.000070
22.145	0.000043
22.150	0.000070
22.155	0.000077
22.160	0.000037
22.165	0.000057
22.170	0.000043
22.175	0.000036
22.180	0.000043
22.185	0.000056
22.190	0.000057
22.195	0.000077
22.200	0.000063
22.205	0.000036
22.210	0.000049
22.215	0.000056
22.220	0.000036
22.225	0.000070
22.230	0.000063
22.235	0.000056
22.240	0.000056
22.245	0.000070
22.250	0.000070
22.255	0.000056
22.260	0.000043
22.265	0.000070
22.270	0.000063
22.275	0.000056
22.280	0.000049
22.285	0.000056
22.290	0.000063
22.295	0.000077
22.300	0.000049
22.305	0.000076
22.310	0.000069
22.315	0.000056
22.320	0.000069
22.325	0.000042
22.330	0.000062
22.335	0.000069
22.340	0.000028
22.345	0.000035
22.350	0.000055
22.355	0.000042
22.360	0.000015
22.365	0.000076
22.370	0.000062
22.375	0.000042
22.380	0.000069
22.385	0.000049
22.390	0.000035
22.395	0.000042
22.400	0.000042
22.405	0.000048
22.410	0.000042
22.415	0.000035
22.420	0.000042
22.425	0.000035
22.430	0.000049
22.435	0.000028
22.440	0.000062
22.445	0.000034
22.450	0.000041
22.455	0.000034
22.460	0.000028
22.465	0.000021
22.470	0.000055
22.475	0.000041
22.480	0.000048
22.485	0.000041
22.490	0.000048
22.495	0.000001
22.500	0.000021
22.505	0.000034
22.510	0.000048
22.515	0.000007
22.520	0.000028
22.525	0.000041
22.530	0.000014
22.535	0.000048
22.540	0.000041
22.545	0.000014
22.550	0.000027
22.555	0.000034
22.560	0.000035
22.565	0.000034
22.570	0.000034
22.575	0.000074
22.580	0.000054
22.585	0.000013
22.590	0.000061
22.595	0.000034
22.600	0.000027
22.605	0.000040
22.610	0.000040
22.615	0.000020
22.620	0.000040
22.625	0.000014
22.630	0.000068
22.635	0.000027
22.640	0.000054
22.645	0.000047
22.650	0.000054
22.655	0.000047
22.660	0.000033
22.665	0.000047
22.670	0.000027
22.675	0.000047
22.680	0.000060
22.685	0.000006
22.690	0.000020
22.695	0.000047
22.700	0.000013
22.705	0.000040
22.710	0.000033
22.715	0.000040
22.720	0.000047
22.725	0.000047
22.730	0.000026
22.735	0.000067
22.740	0.000040
22.745	0.000026
22.750	0.000053
22.755	0.000020
22.760	0.000054
22.765	0.000047
22.770	0.000046
22.775	0.000012
22.780	0.000040
22.785	0.000060
22.790	0.000039
22.795	0.000040
22.800	0.000012
22.805	0.000060
22.810	0.000026
22.815	0.000019
22.820	0.000046
22.825	0.000013
22.830	0.000026
22.835	0.000033
22.840	0.000039
22.845	0.000053
22.850	0.000039
22.855	0.000012
22.860	0.000039
22.865	0.000032
22.870	0.000053
22.875	0.000025
22.880	0.000012
22.885	0.000012
22.890	0.000033
22.895	0.000012
22.900	0.000032
22.905	0.000012
22.910	0.000066
22.915	0.000052
22.920	0.000032
22.925	0.000032
22.930	0.000073
22.935	0.000045
22.940	0.000032
22.945	0.000039
22.950	0.000032
22.955	0.000018
22.960	0.000039
22.965	-0.000002
22.970	0.000045
22.975	0.000032
22.980	0.000038
22.985	0.000038
22.990	0.000059
22.995	0.000032
23.000	0.000038
23.005	0.000045
23.010	0.000025
23.015	0.000038
23.020	0.000018
23.025	0.000039
23.030	0.000025
23.035	0.000038
23.040	0.000031
23.045	0.000018
23.050	0.000059
23.055	0.000045
23.060	0.000025
23.065	0.000025
23.070	0.000038
23.075	0.000038
23.080	0.000024
23.085	0.000058
23.090	0.000059
23.095	0.000059
23.100	0.000052
23.105	0.000051
23.110	0.000045
23.115	0.000024
23.120	0.000031
23.125	0.000010
23.130	0.000024
23.135	0.000038
23.140	0.000017
23.145	0.000058
23.150	0.000024
23.155	0.000017
23.160	0.000031
23.165	0.000045
23.170	0.000024
23.175	0.000051
23.180	0.000017
23.185	0.000058
23.190	0.000058
23.195	0.000031
23.200	0.000044
23.205	0.000051
23.210	0.000024
23.215	0.000024
23.220	0.000051
23.225	0.000031
23.230	0.000024
23.235	0.000051
23.240	0.000051
23.245	0.000044
23.250	0.000051
23.255	0.000051
23.260	0.000037
23.265	0.000050
23.270	0.000016
23.275	0.000050
23.280	0.000010
23.285	0.000010
23.290	0.000024
23.295	0.000051
23.300	0.000003
23.305	0.000023
23.310	0.000044
23.315	0.000043
23.320	0.000057
23.325	0.000009
23.330	0.000009
23.335	0.000030
23.340	0.000010
23.345	0.000016
23.350	0.000016
23.355	0.000030
23.360	0.000017
23.365	0.000023
23.370	0.000057
23.375	0.000036
23.380	0.000043
23.385	0.000029
23.390	0.000050
23.395	0.000043
23.400	0.000023
23.405	0.000036
23.410	0.000029
23.415	0.000029
23.420	0.000009
23.425	0.000023
23.430	0.000036
23.435	0.000022
23.440	0.000029
23.445	0.000029
23.450	0.000029
23.455	0.000063
23.460	0.000029
23.465	0.000036
23.470	0.000049
23.475	0.000043
23.480	0.000029
23.485	0.000036
23.490	-0.000011
23.495	0.000002
23.500	0.000009
23.505	0.000056
23.510	0.000049
23.515	0.000042
23.520	0.000076
23.525	0.000029
23.530	0.000022
23.535	0.000001
23.540	0.000049
23.545	0.000008
23.550	-0.000005
23.555	0.000029
23.560	0.000029
23.565	0.000029
23.570	0.000049
23.575	0.000035
23.580	0.000029
23.585	0.000022
23.590	0.000015
23.595	0.000001
23.600	0.000035
23.605	0.000001
23.610	0.000001
23.615	0.000028
23.620	0.000042
23.625	0.000029
23.630	0.000015
23.635	0.000014
23.640	0.000042
23.645	0.000014
23.650	0.000001
23.655	0.000015
23.660	0.000069
23.665	0.000041
23.670	0.000028
23.675	0.000021
23.680	0.000035
23.685	0.000041
23.690	0.000035
23.695	0.000035
23.700	0.000028
23.705	0.000021
23.710	0.000034
23.715	0.000041
23.720	0.000014
23.725	0.000041
23.730	0.000028
23.735	0.000034
23.740	0.000021
23.745	0.000034
23.750	0.000021
23.755	0.000028
23.760	0.000035
23.765	0.000035
23.770	0.000061
23.775	0.000027
23.780	0.000034
23.785	0.000034
23.790	0.000054
23.795	0.000007
23.800	0.000034
23.805	0.000027
23.810	0.000007
23.815	0.000027
23.820	0.000007
23.825	0.000000
23.830	0.000041
23.835	0.000034
23.840	0.000020
23.845	0.000020
23.850	0.000027
23.855	0.000027
23.860	0.000020
23.865	-0.000000
23.870	0.000020
23.875	0.000006
23.880	0.000020
23.885	0.000013
23.890	0.000048
23.895	0.000027
23.900	0.000034
23.905	0.000027
23.910	0.000033
23.915	0.000033
23.920	0.000027
23.925	0.000013
23.930	-0.000001
23.935	0.000020
23.940	0.000033
23.945	0.000033
23.950	0.000026
23.955	0.000034
23.960	0.000020
23.965	0.000013
23.970	0.000033
23.975	0.000013
23.980	0.000026
23.985	0.000026
23.990	0.000047
23.995	0.000026
24.000	0.000033
24.005	0.000006
24.010	0.000019
24.015	0.000013
24.020	-0.000001
24.025	0.000013
24.030	0.000006
24.035	0.000019
24.040	0.000019
24.045	0.000053
24.050	0.000026
24.055	0.000019
24.060	0.000033
24.065	0.000012
24.070	0.000033
24.075	0.000012
24.080	0.000046
24.085	0.000012
24.090	0.000033
24.095	0.000012
24.100	0.000019
24.105	0.000026
24.110	0.000039
24.115	0.000019
24.120	0.000039
24.125	0.000026
24.130	0.000039
24.135	0.000039
24.140	0.000019
24.145	0.000019
24.150	0.000019
24.155	0.000012
24.160	0.000033
24.165	0.000026
24.170	0.000012
24.175	0.000046
24.180	0.000046
24.185	0.000025
24.190	-0.000009
24.195	0.000018
24.200	0.000039
24.205	0.000032
24.210	0.000018
24.215	0.000018
24.220	0.000039
24.225	0.000026
24.230	0.000025
24.235	0.000011
24.240	0.000004
24.245	0.000032
24.250	0.000025
24.255	0.000011
24.260	0.000018
24.265	0.000011
24.270	0.000011
24.275	0.000011
24.280	0.000011
24.285	-0.000009
24.290	0.000012
24.295	0.000025
24.300	0.000011
24.305	0.000025
24.310	0.000011
24.315	0.000025
24.320	0.000011
24.325	-0.000003
24.330	0.000018
24.335	0.000011
24.340	0.000011
24.345	0.000004
24.350	0.000017
24.355	0.000032
24.360	0.000005
24.365	0.000018
24.370	-0.000017
24.375	0.000024
24.380	0.000045
24.385	0.000024
24.390	0.000024
24.395	0.000031
24.400	0.000004
24.405	0.000011
24.410	0.000004
24.415	0.000017
24.420	-0.000003
24.425	0.000032
24.430	0.000018
24.435	0.000024
24.440	-0.000017
24.445	-0.000037
24.450	0.000024
24.455	-0.000003
24.460	0.000004
24.465	0.000004
24.470	0.000037
24.475	0.000010
24.480	0.000017
24.485	0.000037
24.490	0.000031
24.495	0.000017
24.500	0.000017
24.505	0.000017
24.510	0.000003
24.515	0.000024
24.520	-0.000010
24.525	0.000024
24.530	0.000024
24.535	0.000010
24.540	0.000030
24.545	0.000037
24.550	0.000024
24.555	0.000024
24.560	0.000031
24.565	0.000024
24.570	0.000017
24.575	0.000017
24.580	-0.000018
24.585	0.000057
24.590	0.000010
24.595	0.000030
24.600	0.000037
24.605	0.000043
24.610	0.000023
24.615	0.000009
24.620	0.000023
24.625	0.000003
24.630	0.000037
24.635	0.000036
24.640	0.000030
24.645	0.000030
24.650	0.000043
24.655	0.000023
24.660	0.000003
24.665	-0.000004
24.670	0.000009
24.675	0.000030
24.680	0.000030
24.685	0.000009
24.690	-0.000004
24.695	-0.000018
24.700	0.000016
24.705	0.000036
24.710	0.000063
24.715	-0.000005
24.720	0.000016
24.725	0.000029
24.730	0.000022
24.735	0.000016
24.740	0.000029
24.745	0.000015
24.750	-0.000005
24.755	0.000036
24.760	0.000023
24.765	-0.000005
24.770	0.000029
24.775	0.000022
24.780	0.000022
24.785	0.000029
24.790	0.000016
24.795	0.000015
24.800	0.000029
24.805	0.000029
24.810	0.000008
24.815	0.000008
24.820	0.000029
24.825	-0.000005
24.830	0.000002
24.835	0.000022
24.840	0.000015
24.845	0.000001
24.850	0.000035
24.855	0.000035
24.860	-0.000005
24.865	0.000015
24.870	0.000015
24.875	0.000015
24.880	0.000022
24.885	-0.000019
24.890	0.000029
24.895	0.000008
24.900	0.000015
24.905	0.000015
24.910	-0.000006
24.915	0.000022
24.920	-0.000006
24.925	0.000001
24.930	0.000008
24.935	0.000035
24.940	0.000028
24.945	0.000042
24.950	0.000001
24.955	0.000029
24.960	0.000036
24.965	0.000028
24.970	0.000042
24.975	0.000001
24.980	0.000001
24.985	0.000007
24.990	0.000041
24.995	0.000028
25.000	0.000035
25.005	-0.000020
25.010	0.000021
25.015	-0.000013
25.020	-0.000006
25.025	0.000028
25.030	0.000008
25.035	0.000048
25.040	0.000014
25.045	0.000007
25.050	0.000021
25.055	0.000007
25.060	0.000021
25.065	0.000028
25.070	-0.000013
25.075	0.000014
25.080	0.000014
25.085	0.000027
25.090	0.000008
25.095	-0.000013
25.100	0.000007
25.105	-0.000007
25.110	-0.000027
25.115	0.000013
25.120	0.000014
25.125	0.000013
25.130	0.000027
25.135	-0.000000
25.140	0.000034
25.145	0.000006
25.150	0.000027
25.155	0.000014
25.160	0.000027
25.165	-0.000007
25.170	-0.000000
25.175	-0.000000
25.180	0.000013
25.185	0.000006
25.190	-0.000007
25.195	-0.000000
25.200	0.000040
25.205	0.000006
25.210	0.000013
25.215	0.000006
25.220	-0.000007
25.225	0.000027
25.230	-0.000000
25.235	-0.000007
25.240	-0.000014
25.245	0.000013
25.250	-0.000008
25.255	-0.000001
25.260	0.000020
25.265	0.000033
25.270	-0.000001
25.275	0.000006
25.280	0.000019
25.285	-0.000035
25.290	0.000020
25.295	0.000013
25.300	0.000006
25.305	0.000033
25.310	0.000006
25.315	-0.000015
25.320	0.000026
25.325	0.000006
25.330	-0.000001
25.335	-0.000001
25.340	-0.000001
25.345	-0.000001
25.350	-0.000008
25.355	0.000013
25.360	0.000013
25.365	-0.000008
25.370	-0.000002
25.375	0.000046
25.380	-0.000008
25.385	0.000025
25.390	-0.000008
25.395	0.000019
25.400	0.000012
25.405	0.000025
25.410	0.000039
25.415	0.000005
25.420	0.000019
25.425	0.000012
25.430	-0.000002
25.435	0.000005
25.440	-0.000015
25.445	0.000005
25.450	0.000032
25.455	-0.000015
25.460	0.000005
25.465	-0.000002
25.470	-0.000002
25.475	-0.000002
25.480	-0.000016
25.485	0.000018
25.490	0.000026
25.495	-0.000015
25.500	0.000012
25.505	0.000011
25.510	-0.000016
25.515	0.000011
25.520	-0.000009
25.525	0.000011
25.530	0.000025
25.535	0.000011
25.540	0.000004
25.545	-0.000009
25.550	0.000004
25.555	0.000005
25.560	-0.000016
25.565	0.000011
25.570	0.000031
25.575	0.000031
25.580	0.000025
25.585	0.000038
25.590	-0.000009
25.595	0.000004
25.600	0.000025
25.605	0.000031
25.610	0.000018
25.615	-0.000003
25.620	-0.000009
25.625	-0.000002
25.630	0.000011
25.635	0.000010
25.640	0.000024
25.645	-0.000003
25.650	-0.000003
25.655	0.000031
25.660	0.000010
25.665	-0.000024
25.670	0.000017
25.675	0.000010
25.680	0.000003
25.685	0.000017
25.690	0.000018
25.695	-0.000010
25.700	0.000003
25.705	0.000031
25.710	-0.000024
25.715	0.000010
25.720	-0.000003
25.725	0.000031
25.730	-0.000010
25.735	0.000030
25.740	-0.000003
25.745	-0.000024
25.750	-0.000010
25.755	0.000031
25.760	-0.000010
25.765	0.000030
25.770	0.000016
25.775	-0.000004
25.780	0.000016
25.785	-0.000011
25.790	0.000023
25.795	0.000030
25.800	-0.000004
25.805	0.000043
25.810	0.000016
25.815	0.000016
25.820	0.000024
25.825	0.000024
25.830	-0.000031
25.835	0.000023
25.840	0.000023
25.845	-0.000011
25.850	0.000016
25.855	-0.000011
25.860	0.000009
25.865	-0.000004
25.870	0.000009
25.875	0.000036
25.880	0.000009
25.885	-0.000031
25.890	0.000010
25.895	0.000023
25.900	-0.000004
25.905	-0.000011
25.910	-0.000025
25.915	-0.000005
25.920	-0.000011
25.925	-0.000012
25.930	-0.000005
25.935	0.000002
25.940	0.000022
25.945	-0.000005
25.950	0.000009
25.955	-0.000004
25.960	0.000023
25.965	0.000009
25.970	-0.000019
25.975	-0.000005
25.980	0.000016
25.985	0.000002
25.990	0.000015
25.995	-0.000012
26.000	0.000015
26.005	0.000015
26.010	0.000002
26.015	0.000002
26.020	0.000002
26.025	0.000016
26.030	0.000022
26.035	0.000015
26.040	0.000008
26.045	-0.000005
26.050	0.000001
26.055	0.000008
26.060	-0.000006
26.065	0.000008
26.070	0.000008
26.075	0.000015
26.080	0.000001
26.085	0.000015
26.090	0.000002
26.095	0.000015
26.100	0.000022
26.105	0.000001
26.110	0.000015
26.115	0.000015
26.120	-0.000006
26.125	0.000022
26.130	0.000035
26.135	0.000008
26.140	0.000015
26.145	-0.000026
26.150	-0.000006
26.155	0.000035
26.160	0.000002
26.165	0.000028
26.170	-0.000013
26.175	-0.000013
26.180	0.000007
26.185	0.000021
26.190	-0.000006
26.195	-0.000006
26.200	-0.000006
26.205	-0.000027
26.210	0.000007
26.215	0.000027
26.220	0.000015
26.225	-0.000013
26.230	0.000028
26.235	-0.000020
26.240	0.000007
26.245	0.000028
26.250	0.000028
26.255	0.000000
26.260	0.000021
26.265	0.000007
26.270	-0.000006
26.275	-0.000020
26.280	0.000020
26.285	0.000021
26.290	-0.000006
26.295	0.000014
26.300	0.000014
26.305	0.000007
26.310	0.000007
26.315	0.000041
26.320	0.000014
26.325	-0.000020
26.330	0.000007
26.335	-0.000027
26.340	-0.000007
26.345	-0.000000
26.350	-0.000013
26.355	0.000028
26.360	-0.000020
26.365	0.000007
26.370	0.000028
26.375	0.000028
26.380	0.000000
26.385	0.000021
26.390	0.000007
26.395	-0.000006
26.400	-0.000020
26.405	0.000020
26.410	0.000021
26.415	-0.000006
26.420	0.000014
26.425	0.000014
26.430	0.000007
26.435	0.000007
26.440	0.000041
26.445	0.000014
26.450	-0.000020
26.455	0.000007
26.460	-0.000027
26.465	-0.000007
26.470	-0.000000
