PK2650 Deflection Data
Z Position (mm)	110.000	W Position (deg)	0.00
Preform ID	Diameter (mm)	Time Stamp	Start Time	Operator	Serial Number
Test 1	25	03-Nov-22 18:05:01	03-Nov-22 18:07:35	[no user]	266007708
Radius (mm)	Deflection
-26.360	-0.000036
-26.355	-0.000043
-26.350	0.000004
-26.345	-0.000016
-26.340	-0.000043
-26.335	0.000004
-26.330	-0.000016
-26.325	0.000011
-26.320	-0.000003
-26.315	0.000038
-26.310	0.000004
-26.305	-0.000030
-26.300	-0.000009
-26.295	-0.000016
-26.290	-0.000010
-26.285	-0.000057
-26.280	-0.000024
-26.275	-0.000010
-26.270	-0.000003
-26.265	0.000004
-26.260	-0.000003
-26.255	-0.000003
-26.250	0.000010
-26.245	0.000017
-26.240	-0.000031
-26.235	-0.000031
-26.230	-0.000003
-26.225	-0.000003
-26.220	-0.000031
-26.215	0.000003
-26.210	-0.000018
-26.205	-0.000011
-26.200	-0.000011
-26.195	-0.000011
-26.190	0.000003
-26.185	0.000023
-26.180	-0.000004
-26.175	0.000023
-26.170	0.000003
-26.165	0.000024
-26.160	-0.000024
-26.155	-0.000038
-26.150	-0.000018
-26.145	-0.000038
-26.140	-0.000011
-26.135	-0.000031
-26.130	-0.000018
-26.125	0.000003
-26.120	0.000016
-26.115	0.000016
-26.110	-0.000011
-26.105	-0.000005
-26.100	-0.000011
-26.095	-0.000038
-26.090	0.000002
-26.085	-0.000032
-26.080	0.000009
-26.075	-0.000039
-26.070	-0.000012
-26.065	-0.000012
-26.060	-0.000025
-26.055	0.000002
-26.050	0.000002
-26.045	-0.000012
-26.040	-0.000019
-26.035	-0.000018
-26.030	-0.000004
-26.025	-0.000025
-26.020	-0.000046
-26.015	-0.000026
-26.010	-0.000006
-26.005	-0.000039
-26.000	-0.000019
-25.995	0.000002
-25.990	-0.000005
-25.985	-0.000019
-25.980	0.000001
-25.975	-0.000006
-25.970	-0.000033
-25.965	-0.000032
-25.960	-0.000012
-25.955	0.000001
-25.950	-0.000006
-25.945	0.000001
-25.940	-0.000026
-25.935	-0.000006
-25.930	0.000001
-25.925	0.000028
-25.920	0.000014
-25.915	0.000014
-25.910	0.000035
-25.905	0.000001
-25.900	-0.000019
-25.895	0.000022
-25.890	-0.000033
-25.885	-0.000033
-25.880	0.000001
-25.875	0.000001
-25.870	-0.000013
-25.865	0.000008
-25.860	0.000001
-25.855	0.000048
-25.850	-0.000013
-25.845	-0.000006
-25.840	-0.000020
-25.835	-0.000006
-25.830	-0.000033
-25.825	-0.000033
-25.820	-0.000047
-25.815	-0.000007
-25.810	-0.000020
-25.805	-0.000020
-25.800	-0.000034
-25.795	-0.000006
-25.790	-0.000013
-25.785	-0.000013
-25.780	-0.000014
-25.775	-0.000007
-25.770	-0.000006
-25.765	-0.000019
-25.760	-0.000033
-25.755	-0.000020
-25.750	-0.000040
-25.745	-0.000041
-25.740	-0.000020
-25.735	0.000007
-25.730	-0.000013
-25.725	0.000034
-25.720	0.000000
-25.715	0.000000
-25.710	-0.000000
-25.705	-0.000000
-25.700	0.000007
-25.695	-0.000013
-25.690	-0.000021
-25.685	-0.000007
-25.680	-0.000028
-25.675	-0.000021
-25.670	-0.000014
-25.665	0.000013
-25.660	0.000020
-25.655	-0.000007
-25.650	-0.000007
-25.645	-0.000000
-25.640	0.000013
-25.635	-0.000020
-25.630	-0.000013
-25.625	0.000007
-25.620	-0.000021
-25.615	-0.000014
-25.610	-0.000021
-25.605	0.000013
-25.600	-0.000001
-25.595	-0.000014
-25.590	-0.000007
-25.585	-0.000007
-25.580	-0.000001
-25.575	-0.000034
-25.570	-0.000027
-25.565	0.000007
-25.560	-0.000014
-25.555	-0.000055
-25.550	-0.000001
-25.545	-0.000021
-25.540	-0.000021
-25.535	-0.000014
-25.530	0.000013
-25.525	-0.000008
-25.520	-0.000001
-25.515	-0.000008
-25.510	-0.000035
-25.505	-0.000014
-25.500	0.000006
-25.495	-0.000000
-25.490	-0.000021
-25.485	-0.000028
-25.480	-0.000015
-25.475	0.000019
-25.470	-0.000008
-25.465	-0.000015
-25.460	-0.000015
-25.455	-0.000001
-25.450	-0.000021
-25.445	-0.000001
-25.440	0.000005
-25.435	-0.000008
-25.430	-0.000014
-25.425	-0.000001
-25.420	-0.000022
-25.415	-0.000009
-25.410	-0.000022
-25.405	-0.000022
-25.400	0.000019
-25.395	0.000019
-25.390	0.000005
-25.385	0.000026
-25.380	0.000012
-25.375	-0.000002
-25.370	-0.000022
-25.365	-0.000028
-25.360	-0.000042
-25.355	-0.000008
-25.350	-0.000036
-25.345	-0.000029
-25.340	0.000012
-25.335	-0.000022
-25.330	-0.000029
-25.325	0.000025
-25.320	-0.000002
-25.315	-0.000015
-25.310	-0.000022
-25.305	0.000012
-25.300	-0.000008
-25.295	-0.000015
-25.290	-0.000022
-25.285	-0.000036
-25.280	-0.000036
-25.275	0.000018
-25.270	-0.000009
-25.265	-0.000009
-25.260	-0.000002
-25.255	0.000025
-25.250	0.000005
-25.245	0.000025
-25.240	0.000011
-25.235	0.000025
-25.230	-0.000002
-25.225	-0.000015
-25.220	0.000004
-25.215	0.000011
-25.210	-0.000002
-25.205	-0.000022
-25.200	-0.000016
-25.195	0.000011
-25.190	0.000025
-25.185	0.000025
-25.180	-0.000003
-25.175	-0.000009
-25.170	-0.000043
-25.165	-0.000015
-25.160	-0.000016
-25.155	-0.000002
-25.150	-0.000030
-25.145	-0.000016
-25.140	-0.000023
-25.135	0.000004
-25.130	0.000004
-25.125	-0.000002
-25.120	0.000004
-25.115	0.000011
-25.110	0.000018
-25.105	0.000004
-25.100	-0.000016
-25.095	-0.000009
-25.090	-0.000003
-25.085	-0.000016
-25.080	0.000011
-25.075	-0.000016
-25.070	-0.000003
-25.065	-0.000016
-25.060	0.000011
-25.055	-0.000023
-25.050	0.000038
-25.045	-0.000010
-25.040	-0.000023
-25.035	-0.000009
-25.030	0.000004
-25.025	0.000004
-25.020	-0.000010
-25.015	0.000017
-25.010	-0.000010
-25.005	-0.000017
-25.000	0.000004
-24.995	-0.000030
-24.990	0.000024
-24.985	0.000038
-24.980	0.000011
-24.975	-0.000037
-24.970	-0.000016
-24.965	0.000011
-24.960	0.000011
-24.955	0.000024
-24.950	-0.000023
-24.945	-0.000003
-24.940	-0.000003
-24.935	-0.000003
-24.930	0.000011
-24.925	-0.000003
-24.920	0.000004
-24.915	0.000011
-24.910	0.000044
-24.905	-0.000010
-24.900	-0.000009
-24.895	0.000018
-24.890	-0.000010
-24.885	-0.000023
-24.880	-0.000010
-24.875	-0.000017
-24.870	-0.000010
-24.865	-0.000010
-24.860	-0.000003
-24.855	-0.000010
-24.850	0.000011
-24.845	0.000011
-24.840	0.000017
-24.835	0.000004
-24.830	0.000004
-24.825	-0.000023
-24.820	-0.000003
-24.815	-0.000003
-24.810	0.000017
-24.805	0.000004
-24.800	-0.000023
-24.795	-0.000010
-24.790	0.000010
-24.785	-0.000003
-24.780	-0.000010
-24.775	0.000003
-24.770	0.000004
-24.765	-0.000003
-24.760	-0.000010
-24.755	-0.000010
-24.750	0.000010
-24.745	-0.000024
-24.740	-0.000010
-24.735	0.000003
-24.730	0.000010
-24.725	0.000017
-24.720	0.000030
-24.715	0.000017
-24.710	0.000044
-24.705	0.000038
-24.700	-0.000003
-24.695	0.000018
-24.690	-0.000010
-24.685	0.000017
-24.680	-0.000031
-24.675	0.000003
-24.670	0.000003
-24.665	-0.000003
-24.660	0.000004
-24.655	0.000024
-24.650	0.000017
-24.645	0.000037
-24.640	0.000017
-24.635	0.000010
-24.630	-0.000017
-24.625	0.000024
-24.620	-0.000010
-24.615	0.000010
-24.610	0.000017
-24.605	-0.000004
-24.600	-0.000010
-24.595	0.000037
-24.590	0.000010
-24.585	0.000017
-24.580	0.000037
-24.575	0.000003
-24.570	-0.000023
-24.565	0.000011
-24.560	-0.000003
-24.555	0.000010
-24.550	-0.000018
-24.545	-0.000004
-24.540	-0.000004
-24.535	0.000024
-24.530	0.000024
-24.525	0.000030
-24.520	0.000037
-24.515	0.000024
-24.510	0.000037
-24.505	0.000010
-24.500	0.000010
-24.495	0.000017
-24.490	0.000003
-24.485	-0.000004
-24.480	0.000010
-24.475	0.000023
-24.470	0.000023
-24.465	0.000030
-24.460	0.000030
-24.455	0.000043
-24.450	-0.000024
-24.445	0.000016
-24.440	0.000023
-24.435	0.000024
-24.430	0.000044
-24.425	-0.000004
-24.420	-0.000004
-24.415	0.000009
-24.410	0.000030
-24.405	-0.000004
-24.400	0.000016
-24.395	0.000017
-24.390	-0.000004
-24.385	0.000037
-24.380	0.000030
-24.375	0.000016
-24.370	-0.000004
-24.365	0.000003
-24.360	-0.000011
-24.355	0.000023
-24.350	0.000016
-24.345	0.000016
-24.340	0.000002
-24.335	-0.000004
-24.330	0.000043
-24.325	0.000009
-24.320	0.000029
-24.315	-0.000005
-24.310	0.000029
-24.305	-0.000011
-24.300	-0.000017
-24.295	0.000030
-24.290	-0.000011
-24.285	-0.000005
-24.280	-0.000025
-24.275	0.000009
-24.270	0.000029
-24.265	0.000016
-24.260	0.000002
-24.255	0.000023
-24.250	0.000022
-24.245	-0.000025
-24.240	0.000029
-24.235	0.000009
-24.230	0.000009
-24.225	0.000042
-24.220	-0.000005
-24.215	0.000009
-24.210	0.000022
-24.205	0.000015
-24.200	0.000036
-24.195	0.000015
-24.190	0.000015
-24.185	0.000022
-24.180	0.000008
-24.175	0.000008
-24.170	0.000043
-24.165	0.000016
-24.160	0.000002
-24.155	0.000015
-24.150	-0.000012
-24.145	0.000015
-24.140	0.000056
-24.135	0.000042
-24.130	0.000049
-24.125	0.000022
-24.120	0.000008
-24.115	0.000042
-24.110	0.000035
-24.105	0.000008
-24.100	0.000009
-24.095	-0.000019
-24.090	-0.000006
-24.085	0.000008
-24.080	-0.000012
-24.075	-0.000005
-24.070	0.000015
-24.065	0.000035
-24.060	0.000035
-24.055	-0.000033
-24.050	0.000008
-24.045	0.000021
-24.040	0.000001
-24.035	-0.000005
-24.030	0.000002
-24.025	0.000001
-24.020	-0.000019
-24.015	-0.000026
-24.010	0.000008
-24.005	-0.000006
-24.000	-0.000006
-23.995	0.000001
-23.990	0.000001
-23.985	-0.000006
-23.980	0.000028
-23.975	0.000007
-23.970	-0.000013
-23.965	0.000015
-23.960	0.000001
-23.955	0.000000
-23.950	0.000007
-23.945	-0.000013
-23.940	0.000007
-23.935	-0.000033
-23.930	0.000014
-23.925	0.000007
-23.920	0.000014
-23.915	0.000034
-23.910	0.000013
-23.905	-0.000013
-23.900	-0.000013
-23.895	-0.000013
-23.890	-0.000021
-23.885	-0.000021
-23.880	-0.000007
-23.875	-0.000000
-23.870	-0.000000
-23.865	-0.000007
-23.860	-0.000021
-23.855	-0.000027
-23.850	-0.000000
-23.845	-0.000000
-23.840	0.000013
-23.835	-0.000013
-23.830	-0.000000
-23.825	-0.000035
-23.820	-0.000028
-23.815	-0.000048
-23.810	-0.000021
-23.805	-0.000028
-23.800	-0.000007
-23.795	-0.000001
-23.790	0.000006
-23.785	-0.000028
-23.780	-0.000021
-23.775	-0.000028
-23.770	-0.000007
-23.765	-0.000054
-23.760	-0.000014
-23.755	-0.000021
-23.750	-0.000008
-23.745	-0.000021
-23.740	-0.000008
-23.735	-0.000014
-23.730	-0.000042
-23.725	-0.000008
-23.720	-0.000022
-23.715	-0.000015
-23.710	-0.000035
-23.705	-0.000008
-23.700	-0.000041
-23.695	-0.000014
-23.690	-0.000056
-23.685	0.000005
-23.680	-0.000022
-23.675	-0.000015
-23.670	0.000005
-23.665	-0.000022
-23.660	-0.000001
-23.655	-0.000001
-23.650	-0.000015
-23.645	-0.000029
-23.640	-0.000062
-23.635	-0.000008
-23.630	-0.000028
-23.625	-0.000008
-23.620	-0.000063
-23.615	-0.000056
-23.610	-0.000022
-23.605	-0.000022
-23.600	-0.000049
-23.595	-0.000008
-23.590	-0.000022
-23.585	-0.000036
-23.580	-0.000050
-23.575	-0.000036
-23.570	-0.000022
-23.565	-0.000028
-23.560	-0.000056
-23.555	-0.000056
-23.550	-0.000057
-23.545	-0.000056
-23.540	-0.000070
-23.535	-0.000043
-23.530	-0.000043
-23.525	-0.000043
-23.520	-0.000036
-23.515	-0.000023
-23.510	-0.000057
-23.505	-0.000056
-23.500	-0.000090
-23.495	-0.000083
-23.490	-0.000064
-23.485	-0.000091
-23.480	-0.000084
-23.475	-0.000077
-23.470	-0.000070
-23.465	-0.000030
-23.460	-0.000077
-23.455	-0.000070
-23.450	-0.000044
-23.445	-0.000064
-23.440	-0.000077
-23.435	-0.000097
-23.430	-0.000063
-23.425	-0.000105
-23.420	-0.000064
-23.415	-0.000024
-23.410	-0.000064
-23.405	-0.000071
-23.400	-0.000064
-23.395	-0.000030
-23.390	-0.000071
-23.385	-0.000071
-23.380	-0.000044
-23.375	-0.000084
-23.370	-0.000077
-23.365	-0.000044
-23.360	-0.000078
-23.355	-0.000085
-23.350	-0.000085
-23.345	-0.000071
-23.340	-0.000058
-23.335	-0.000044
-23.330	-0.000058
-23.325	-0.000058
-23.320	-0.000044
-23.315	-0.000051
-23.310	-0.000085
-23.305	-0.000038
-23.300	-0.000078
-23.295	-0.000064
-23.290	-0.000078
-23.285	-0.000085
-23.280	-0.000052
-23.275	-0.000045
-23.270	-0.000065
-23.265	-0.000065
-23.260	-0.000059
-23.255	-0.000065
-23.250	-0.000045
-23.245	-0.000065
-23.240	-0.000058
-23.235	-0.000064
-23.230	-0.000092
-23.225	-0.000066
-23.220	-0.000066
-23.215	-0.000059
-23.210	-0.000065
-23.205	-0.000038
-23.200	-0.000065
-23.195	-0.000038
-23.190	-0.000052
-23.185	-0.000045
-23.180	-0.000039
-23.175	-0.000066
-23.170	-0.000059
-23.165	-0.000058
-23.160	-0.000086
-23.155	-0.000072
-23.150	-0.000059
-23.145	-0.000066
-23.140	-0.000086
-23.135	-0.000045
-23.130	-0.000052
-23.125	-0.000079
-23.120	-0.000059
-23.115	-0.000039
-23.110	-0.000046
-23.105	-0.000065
-23.100	-0.000092
-23.095	-0.000072
-23.090	-0.000080
-23.085	-0.000066
-23.080	-0.000059
-23.075	-0.000100
-23.070	-0.000046
-23.065	-0.000046
-23.060	-0.000086
-23.055	-0.000073
-23.050	-0.000073
-23.045	-0.000060
-23.040	-0.000060
-23.035	-0.000059
-23.030	-0.000066
-23.025	-0.000080
-23.020	-0.000046
-23.015	-0.000053
-23.010	-0.000060
-23.005	-0.000060
-23.000	-0.000094
-22.995	-0.000080
-22.990	-0.000087
-22.985	-0.000060
-22.980	-0.000046
-22.975	-0.000087
-22.970	-0.000059
-22.965	-0.000046
-22.960	-0.000087
-22.955	-0.000087
-22.950	-0.000094
-22.945	-0.000053
-22.940	-0.000094
-22.935	-0.000066
-22.930	-0.000046
-22.925	-0.000019
-22.920	-0.000046
-22.915	-0.000047
-22.910	-0.000053
-22.905	-0.000067
-22.900	-0.000060
-22.895	-0.000067
-22.890	-0.000060
-22.885	-0.000067
-22.880	-0.000060
-22.875	-0.000054
-22.870	-0.000067
-22.865	-0.000087
-22.860	-0.000054
-22.855	-0.000040
-22.850	-0.000054
-22.845	-0.000081
-22.840	-0.000053
-22.835	-0.000060
-22.830	-0.000073
-22.825	-0.000074
-22.820	-0.000108
-22.815	-0.000081
-22.810	-0.000081
-22.805	-0.000074
-22.800	-0.000060
-22.795	-0.000060
-22.790	-0.000060
-22.785	-0.000067
-22.780	-0.000054
-22.775	-0.000061
-22.770	-0.000060
-22.765	-0.000053
-22.760	-0.000088
-22.755	-0.000047
-22.750	-0.000061
-22.745	-0.000095
-22.740	-0.000074
-22.735	-0.000040
-22.730	-0.000061
-22.725	-0.000068
-22.720	-0.000068
-22.715	-0.000074
-22.710	-0.000061
-22.705	-0.000061
-22.700	-0.000094
-22.695	-0.000067
-22.690	-0.000088
-22.685	-0.000054
-22.680	-0.000088
-22.675	-0.000075
-22.670	-0.000081
-22.665	-0.000054
-22.660	-0.000081
-22.655	-0.000068
-22.650	-0.000055
-22.645	-0.000068
-22.640	-0.000075
-22.635	-0.000081
-22.630	-0.000054
-22.625	-0.000089
-22.620	-0.000116
-22.615	-0.000089
-22.610	-0.000075
-22.605	-0.000068
-22.600	-0.000034
-22.595	-0.000068
-22.590	-0.000062
-22.585	-0.000062
-22.580	-0.000055
-22.575	-0.000089
-22.570	-0.000095
-22.565	-0.000081
-22.560	-0.000082
-22.555	-0.000068
-22.550	-0.000068
-22.545	-0.000069
-22.540	-0.000062
-22.535	-0.000041
-22.530	-0.000075
-22.525	-0.000075
-22.520	-0.000042
-22.515	-0.000062
-22.510	-0.000069
-22.505	-0.000062
-22.500	-0.000088
-22.495	-0.000062
-22.490	-0.000083
-22.485	-0.000069
-22.480	-0.000089
-22.475	-0.000076
-22.470	-0.000049
-22.465	-0.000048
-22.460	-0.000069
-22.455	-0.000042
-22.450	-0.000049
-22.445	-0.000055
-22.440	-0.000055
-22.435	-0.000068
-22.430	-0.000089
-22.425	-0.000082
-22.420	-0.000049
-22.415	-0.000062
-22.410	-0.000076
-22.405	-0.000049
-22.400	-0.000062
-22.395	-0.000049
-22.390	-0.000076
-22.385	-0.000062
-22.380	-0.000062
-22.375	-0.000069
-22.370	-0.000062
-22.365	-0.000096
-22.360	-0.000076
-22.355	-0.000097
-22.350	-0.000070
-22.345	-0.000063
-22.340	-0.000063
-22.335	-0.000069
-22.330	-0.000103
-22.325	-0.000076
-22.320	-0.000069
-22.315	-0.000043
-22.310	-0.000083
-22.305	-0.000062
-22.300	-0.000076
-22.295	-0.000083
-22.290	-0.000056
-22.285	-0.000090
-22.280	-0.000063
-22.275	-0.000056
-22.270	-0.000049
-22.265	-0.000090
-22.260	-0.000036
-22.255	-0.000063
-22.250	-0.000070
-22.245	-0.000049
-22.240	-0.000069
-22.235	-0.000089
-22.230	-0.000049
-22.225	-0.000056
-22.220	-0.000090
-22.215	-0.000104
-22.210	-0.000077
-22.205	-0.000077
-22.200	-0.000043
-22.195	-0.000076
-22.190	-0.000043
-22.185	-0.000056
-22.180	-0.000056
-22.175	-0.000083
-22.170	-0.000090
-22.165	-0.000076
-22.160	-0.000063
-22.155	-0.000070
-22.150	-0.000090
-22.145	-0.000063
-22.140	-0.000056
-22.135	-0.000029
-22.130	-0.000029
-22.125	-0.000036
-22.120	-0.000083
-22.115	-0.000084
-22.110	-0.000050
-22.105	-0.000063
-22.100	-0.000056
-22.095	-0.000110
-22.090	-0.000070
-22.085	-0.000064
-22.080	-0.000091
-22.075	-0.000064
-22.070	-0.000070
-22.065	-0.000063
-22.060	-0.000057
-22.055	-0.000043
-22.050	-0.000050
-22.045	-0.000057
-22.040	-0.000056
-22.035	-0.000056
-22.030	-0.000077
-22.025	-0.000077
-22.020	-0.000091
-22.015	-0.000063
-22.010	-0.000064
-22.005	-0.000057
-22.000	-0.000077
-21.995	-0.000063
-21.990	-0.000064
-21.985	-0.000037
-21.980	-0.000084
-21.975	-0.000077
-21.970	-0.000077
-21.965	-0.000090
-21.960	-0.000091
-21.955	-0.000071
-21.950	-0.000078
-21.945	-0.000084
-21.940	-0.000071
-21.935	-0.000091
-21.930	-0.000057
-21.925	-0.000077
-21.920	-0.000050
-21.915	-0.000064
-21.910	-0.000044
-21.905	-0.000097
-21.900	-0.000057
-21.895	-0.000098
-21.890	-0.000084
-21.885	-0.000078
-21.880	-0.000077
-21.875	-0.000064
-21.870	-0.000050
-21.865	-0.000077
-21.860	-0.000057
-21.855	-0.000044
-21.850	-0.000057
-21.845	-0.000091
-21.840	-0.000084
-21.835	-0.000097
-21.830	-0.000064
-21.825	-0.000085
-21.820	-0.000085
-21.815	-0.000071
-21.810	-0.000078
-21.805	-0.000064
-21.800	-0.000078
-21.795	-0.000044
-21.790	-0.000044
-21.785	-0.000071
-21.780	-0.000064
-21.775	-0.000044
-21.770	-0.000057
-21.765	-0.000064
-21.760	-0.000085
-21.755	-0.000051
-21.750	-0.000051
-21.745	-0.000078
-21.740	-0.000078
-21.735	-0.000057
-21.730	-0.000058
-21.725	-0.000071
-21.720	-0.000065
-21.715	-0.000078
-21.710	-0.000085
-21.705	-0.000085
-21.700	-0.000091
-21.695	-0.000065
-21.690	-0.000065
-21.685	-0.000065
-21.680	-0.000045
-21.675	-0.000045
-21.670	-0.000065
-21.665	-0.000092
-21.660	-0.000051
-21.655	-0.000065
-21.650	-0.000065
-21.645	-0.000065
-21.640	-0.000058
-21.635	-0.000078
-21.630	-0.000065
-21.625	-0.000092
-21.620	-0.000072
-21.615	-0.000065
-21.610	-0.000072
-21.605	-0.000065
-21.600	-0.000051
-21.595	-0.000038
-21.590	-0.000045
-21.585	-0.000052
-21.580	-0.000059
-21.575	-0.000079
-21.570	-0.000052
-21.565	-0.000071
-21.560	-0.000072
-21.555	-0.000079
-21.550	-0.000086
-21.545	-0.000058
-21.540	-0.000065
-21.535	-0.000059
-21.530	-0.000052
-21.525	-0.000031
-21.520	-0.000018
-21.515	-0.000031
-21.510	-0.000025
-21.505	-0.000058
-21.500	-0.000051
-21.495	-0.000045
-21.490	-0.000045
-21.485	-0.000066
-21.480	-0.000045
-21.475	-0.000038
-21.470	-0.000031
-21.465	0.000003
-21.460	0.000016
-21.455	0.000030
-21.450	0.000043
-21.445	0.000077
-21.440	0.000132
-21.435	0.000282
-21.430	0.000459
-21.425	0.000760
-21.420	0.001150
-21.415	0.001720
-21.410	0.002418
-21.405	0.003411
-21.400	0.004559
-21.395	0.006007
-21.390	0.007669
-21.385	0.009676
-21.380	0.011918
-21.375	0.014630
-21.370	0.017534
-21.365	0.020714
-21.360	0.024095
-21.355	0.027603
-21.350	0.031178
-21.345	0.034747
-21.340	0.038400
-21.335	0.042149
-21.330	0.045666
-21.325	0.048962
-21.320	0.050483
-21.315	0.049674
-21.310	0.048851
-21.305	0.047665
-21.300	0.045587
-21.295	0.044487
-21.290	0.043653
-21.285	0.042684
-21.280	0.041812
-21.275	0.041238
-21.270	0.040343
-21.265	0.039077
-21.260	0.038106
-21.255	0.037180
-21.250	0.036098
-21.245	0.035809
-21.240	0.035027
-21.235	0.034114
-21.230	0.033961
-21.225	0.033365
-21.220	0.032705
-21.215	0.032209
-21.210	0.031801
-21.205	0.031350
-21.200	0.030985
-21.195	0.030729
-21.190	0.030355
-21.185	0.030359
-21.180	0.030167
-21.175	0.029258
-21.170	0.028431
-21.165	0.028141
-21.160	0.027905
-21.155	0.027477
-21.150	0.027073
-21.145	0.026922
-21.140	0.026824
-21.135	0.026974
-21.130	0.027115
-21.125	0.026432
-21.120	0.025734
-21.115	0.025454
-21.110	0.025285
-21.105	0.025047
-21.100	0.024866
-21.095	0.024712
-21.090	0.024518
-21.085	0.024225
-21.080	0.023884
-21.075	0.023763
-21.070	0.023575
-21.065	0.023346
-21.060	0.023102
-21.055	0.022860
-21.050	0.022637
-21.045	0.022543
-21.040	0.022439
-21.035	0.022295
-21.030	0.022139
-21.025	0.021973
-21.020	0.021846
-21.015	0.021707
-21.010	0.021578
-21.005	0.021532
-21.000	0.021472
-20.995	0.021375
-20.990	0.021258
-20.985	0.021050
-20.980	0.020822
-20.975	0.020683
-20.970	0.020578
-20.965	0.020446
-20.960	0.020283
-20.955	0.020168
-20.950	0.020049
-20.945	0.019961
-20.940	0.019834
-20.935	0.019722
-20.930	0.019596
-20.925	0.019492
-20.920	0.019397
-20.915	0.019231
-20.910	0.019151
-20.905	0.019030
-20.900	0.018916
-20.895	0.018865
-20.890	0.018695
-20.885	0.018639
-20.880	0.018526
-20.875	0.018459
-20.870	0.018373
-20.865	0.018301
-20.860	0.018235
-20.855	0.018146
-20.850	0.018076
-20.845	0.017916
-20.840	0.017791
-20.835	0.017696
-20.830	0.017578
-20.825	0.017491
-20.820	0.017414
-20.815	0.017326
-20.810	0.017224
-20.805	0.017173
-20.800	0.017102
-20.795	0.017018
-20.790	0.016949
-20.785	0.016902
-20.780	0.016861
-20.775	0.016803
-20.770	0.016721
-20.765	0.016622
-20.760	0.016519
-20.755	0.016439
-20.750	0.016369
-20.745	0.016289
-20.740	0.016234
-20.735	0.016152
-20.730	0.016106
-20.725	0.016016
-20.720	0.015999
-20.715	0.015885
-20.710	0.015855
-20.705	0.015783
-20.700	0.015690
-20.695	0.015580
-20.690	0.015583
-20.685	0.015479
-20.680	0.015453
-20.675	0.015402
-20.670	0.015369
-20.665	0.015350
-20.660	0.015283
-20.655	0.015212
-20.650	0.015155
-20.645	0.015098
-20.640	0.015036
-20.635	0.014973
-20.630	0.014932
-20.625	0.014909
-20.620	0.014849
-20.615	0.014824
-20.610	0.014754
-20.605	0.014694
-20.600	0.014687
-20.595	0.014619
-20.590	0.014570
-20.585	0.014522
-20.580	0.014509
-20.575	0.014413
-20.570	0.014375
-20.565	0.014285
-20.560	0.014268
-20.555	0.014202
-20.550	0.014163
-20.545	0.014110
-20.540	0.014059
-20.535	0.014029
-20.530	0.014005
-20.525	0.013942
-20.520	0.013941
-20.515	0.013883
-20.510	0.013862
-20.505	0.013772
-20.500	0.013717
-20.495	0.013688
-20.490	0.013665
-20.485	0.013637
-20.480	0.013587
-20.475	0.013586
-20.470	0.013555
-20.465	0.013524
-20.460	0.013502
-20.455	0.013466
-20.450	0.013381
-20.445	0.013356
-20.440	0.013280
-20.435	0.013259
-20.430	0.013194
-20.425	0.013164
-20.420	0.013127
-20.415	0.013089
-20.410	0.013060
-20.405	0.013036
-20.400	0.013031
-20.395	0.012962
-20.390	0.012908
-20.385	0.012870
-20.380	0.012853
-20.375	0.012828
-20.370	0.012781
-20.365	0.012752
-20.360	0.012720
-20.355	0.012667
-20.350	0.012659
-20.345	0.012636
-20.340	0.012594
-20.335	0.012567
-20.330	0.012540
-20.325	0.012479
-20.320	0.012430
-20.315	0.012407
-20.310	0.012375
-20.305	0.012320
-20.300	0.012301
-20.295	0.012262
-20.290	0.012210
-20.285	0.012208
-20.280	0.012193
-20.275	0.012166
-20.270	0.012132
-20.265	0.012112
-20.260	0.012086
-20.255	0.012076
-20.250	0.012034
-20.245	0.012026
-20.240	0.011972
-20.235	0.011966
-20.230	0.011917
-20.225	0.011889
-20.220	0.011872
-20.215	0.011856
-20.210	0.011813
-20.205	0.011823
-20.200	0.011761
-20.195	0.011745
-20.190	0.011720
-20.185	0.011691
-20.180	0.011682
-20.175	0.011637
-20.170	0.011603
-20.165	0.011598
-20.160	0.011553
-20.155	0.011531
-20.150	0.011509
-20.145	0.011441
-20.140	0.011469
-20.135	0.011460
-20.130	0.011436
-20.125	0.011392
-20.120	0.011374
-20.115	0.011342
-20.110	0.011305
-20.105	0.011286
-20.100	0.011235
-20.095	0.011228
-20.090	0.011172
-20.085	0.011160
-20.080	0.011130
-20.075	0.011116
-20.070	0.011112
-20.065	0.011075
-20.060	0.011038
-20.055	0.011035
-20.050	0.011007
-20.045	0.010987
-20.040	0.010989
-20.035	0.010948
-20.030	0.010928
-20.025	0.010866
-20.020	0.010851
-20.015	0.010891
-20.010	0.010843
-20.005	0.010811
-20.000	0.010773
-19.995	0.010765
-19.990	0.010734
-19.985	0.010719
-19.980	0.010694
-19.975	0.010696
-19.970	0.010628
-19.965	0.010627
-19.960	0.010610
-19.955	0.010584
-19.950	0.010579
-19.945	0.010554
-19.940	0.010533
-19.935	0.010520
-19.930	0.010499
-19.925	0.010472
-19.920	0.010488
-19.915	0.010456
-19.910	0.010399
-19.905	0.010420
-19.900	0.010366
-19.895	0.010336
-19.890	0.010343
-19.885	0.010324
-19.880	0.010311
-19.875	0.010294
-19.870	0.010248
-19.865	0.010277
-19.860	0.010244
-19.855	0.010218
-19.850	0.010212
-19.845	0.010173
-19.840	0.010138
-19.835	0.010156
-19.830	0.010103
-19.825	0.010080
-19.820	0.010056
-19.815	0.010030
-19.810	0.010019
-19.805	0.010034
-19.800	0.009977
-19.795	0.009974
-19.790	0.009979
-19.785	0.009917
-19.780	0.009901
-19.775	0.009864
-19.770	0.009831
-19.765	0.009802
-19.760	0.009769
-19.755	0.009771
-19.750	0.009799
-19.745	0.009703
-19.740	0.009738
-19.735	0.009703
-19.730	0.009675
-19.725	0.009696
-19.720	0.009660
-19.715	0.009626
-19.710	0.009621
-19.705	0.009567
-19.700	0.009537
-19.695	0.009527
-19.690	0.009493
-19.685	0.009528
-19.680	0.009474
-19.675	0.009456
-19.670	0.009441
-19.665	0.009412
-19.660	0.009409
-19.655	0.009381
-19.650	0.009375
-19.645	0.009343
-19.640	0.009334
-19.635	0.009363
-19.630	0.009323
-19.625	0.009288
-19.620	0.009275
-19.615	0.009229
-19.610	0.009248
-19.605	0.009247
-19.600	0.009204
-19.595	0.009236
-19.590	0.009206
-19.585	0.009176
-19.580	0.009173
-19.575	0.009136
-19.570	0.009141
-19.565	0.009141
-19.560	0.009135
-19.555	0.009136
-19.550	0.009130
-19.545	0.009090
-19.540	0.009087
-19.535	0.009085
-19.530	0.009062
-19.525	0.009054
-19.520	0.009045
-19.515	0.009003
-19.510	0.009010
-19.505	0.009016
-19.500	0.008970
-19.495	0.008985
-19.490	0.008935
-19.485	0.008921
-19.480	0.008974
-19.475	0.008942
-19.470	0.008929
-19.465	0.008916
-19.460	0.008901
-19.455	0.008903
-19.450	0.008881
-19.445	0.008842
-19.440	0.008824
-19.435	0.008800
-19.430	0.008816
-19.425	0.008789
-19.420	0.008762
-19.415	0.008744
-19.410	0.008753
-19.405	0.008727
-19.400	0.008714
-19.395	0.008721
-19.390	0.008707
-19.385	0.008694
-19.380	0.008686
-19.375	0.008664
-19.370	0.008646
-19.365	0.008632
-19.360	0.008610
-19.355	0.008597
-19.350	0.008567
-19.345	0.008574
-19.340	0.008572
-19.335	0.008558
-19.330	0.008580
-19.325	0.008552
-19.320	0.008521
-19.315	0.008543
-19.310	0.008482
-19.305	0.008504
-19.300	0.008502
-19.295	0.008469
-19.290	0.008444
-19.285	0.008420
-19.280	0.008457
-19.275	0.008440
-19.270	0.008472
-19.265	0.008429
-19.260	0.008406
-19.255	0.008404
-19.250	0.008400
-19.245	0.008359
-19.240	0.008367
-19.235	0.008339
-19.230	0.008326
-19.225	0.008322
-19.220	0.008287
-19.215	0.008295
-19.210	0.008260
-19.205	0.008273
-19.200	0.008280
-19.195	0.008268
-19.190	0.008246
-19.185	0.008241
-19.180	0.008234
-19.175	0.008251
-19.170	0.008192
-19.165	0.008197
-19.160	0.008174
-19.155	0.008176
-19.150	0.008164
-19.145	0.008159
-19.140	0.008175
-19.135	0.008170
-19.130	0.008164
-19.125	0.008129
-19.120	0.008152
-19.115	0.008118
-19.110	0.008101
-19.105	0.008070
-19.100	0.008104
-19.095	0.008108
-19.090	0.008050
-19.085	0.008029
-19.080	0.008034
-19.075	0.008041
-19.070	0.008022
-19.065	0.008057
-19.060	0.008042
-19.055	0.007988
-19.050	0.007999
-19.045	0.007972
-19.040	0.007961
-19.035	0.007963
-19.030	0.007951
-19.025	0.007914
-19.020	0.007893
-19.015	0.007914
-19.010	0.007892
-19.005	0.007894
-19.000	0.007881
-18.995	0.007882
-18.990	0.007849
-18.985	0.007842
-18.980	0.007822
-18.975	0.007832
-18.970	0.007798
-18.965	0.007754
-18.960	0.007751
-18.955	0.007731
-18.950	0.007732
-18.945	0.007737
-18.940	0.007751
-18.935	0.007696
-18.930	0.007717
-18.925	0.007676
-18.920	0.007675
-18.915	0.007656
-18.910	0.007631
-18.905	0.007646
-18.900	0.007638
-18.895	0.007594
-18.890	0.007607
-18.885	0.007615
-18.880	0.007582
-18.875	0.007557
-18.870	0.007548
-18.865	0.007556
-18.860	0.007529
-18.855	0.007527
-18.850	0.007504
-18.845	0.007498
-18.840	0.007514
-18.835	0.007474
-18.830	0.007483
-18.825	0.007469
-18.820	0.007434
-18.815	0.007442
-18.810	0.007429
-18.805	0.007408
-18.800	0.007440
-18.795	0.007424
-18.790	0.007421
-18.785	0.007419
-18.780	0.007404
-18.775	0.007390
-18.770	0.007388
-18.765	0.007370
-18.760	0.007380
-18.755	0.007351
-18.750	0.007358
-18.745	0.007350
-18.740	0.007327
-18.735	0.007333
-18.730	0.007339
-18.725	0.007320
-18.720	0.007307
-18.715	0.007311
-18.710	0.007314
-18.705	0.007252
-18.700	0.007248
-18.695	0.007231
-18.690	0.007252
-18.685	0.007204
-18.680	0.007265
-18.675	0.007204
-18.670	0.007203
-18.665	0.007223
-18.660	0.007186
-18.655	0.007172
-18.650	0.007176
-18.645	0.007191
-18.640	0.007171
-18.635	0.007137
-18.630	0.007119
-18.625	0.007160
-18.620	0.007152
-18.615	0.007145
-18.610	0.007123
-18.605	0.007123
-18.600	0.007117
-18.595	0.007108
-18.590	0.007095
-18.585	0.007088
-18.580	0.007055
-18.575	0.007058
-18.570	0.007059
-18.565	0.007014
-18.560	0.007052
-18.555	0.007038
-18.550	0.007003
-18.545	0.007025
-18.540	0.007032
-18.535	0.006992
-18.530	0.007012
-18.525	0.007004
-18.520	0.006956
-18.515	0.006962
-18.510	0.006964
-18.505	0.006938
-18.500	0.006931
-18.495	0.006943
-18.490	0.006928
-18.485	0.006922
-18.480	0.006902
-18.475	0.006943
-18.470	0.006921
-18.465	0.006909
-18.460	0.006916
-18.455	0.006922
-18.450	0.006880
-18.445	0.006869
-18.440	0.006876
-18.435	0.006841
-18.430	0.006838
-18.425	0.006844
-18.420	0.006857
-18.415	0.006816
-18.410	0.006837
-18.405	0.006838
-18.400	0.006839
-18.395	0.006846
-18.390	0.006803
-18.385	0.006781
-18.380	0.006787
-18.375	0.006790
-18.370	0.006770
-18.365	0.006735
-18.360	0.006787
-18.355	0.006754
-18.350	0.006712
-18.345	0.006754
-18.340	0.006774
-18.335	0.006720
-18.330	0.006705
-18.325	0.006725
-18.320	0.006683
-18.315	0.006703
-18.310	0.006679
-18.305	0.006680
-18.300	0.006671
-18.295	0.006642
-18.290	0.006648
-18.285	0.006627
-18.280	0.006613
-18.275	0.006655
-18.270	0.006655
-18.265	0.006620
-18.260	0.006628
-18.255	0.006607
-18.250	0.006599
-18.245	0.006580
-18.240	0.006595
-18.235	0.006589
-18.230	0.006579
-18.225	0.006546
-18.220	0.006547
-18.215	0.006541
-18.210	0.006541
-18.205	0.006529
-18.200	0.006579
-18.195	0.006524
-18.190	0.006517
-18.185	0.006518
-18.180	0.006491
-18.175	0.006509
-18.170	0.006498
-18.165	0.006454
-18.160	0.006467
-18.155	0.006462
-18.150	0.006463
-18.145	0.006450
-18.140	0.006463
-18.135	0.006442
-18.130	0.006470
-18.125	0.006498
-18.120	0.006472
-18.115	0.006397
-18.110	0.006442
-18.105	0.006445
-18.100	0.006416
-18.095	0.006414
-18.090	0.006435
-18.085	0.006409
-18.080	0.006408
-18.075	0.006402
-18.070	0.006404
-18.065	0.006431
-18.060	0.006416
-18.055	0.006404
-18.050	0.006423
-18.045	0.006383
-18.040	0.006369
-18.035	0.006360
-18.030	0.006336
-18.025	0.006349
-18.020	0.006342
-18.015	0.006315
-18.010	0.006368
-18.005	0.006326
-18.000	0.006332
-17.995	0.006311
-17.990	0.006268
-17.985	0.006330
-17.980	0.006315
-17.975	0.006268
-17.970	0.006282
-17.965	0.006278
-17.960	0.006256
-17.955	0.006249
-17.950	0.006249
-17.945	0.006249
-17.940	0.006262
-17.935	0.006242
-17.930	0.006219
-17.925	0.006213
-17.920	0.006253
-17.915	0.006207
-17.910	0.006187
-17.905	0.006175
-17.900	0.006157
-17.895	0.006163
-17.890	0.006149
-17.885	0.006170
-17.880	0.006157
-17.875	0.006170
-17.870	0.006150
-17.865	0.006197
-17.860	0.006164
-17.855	0.006150
-17.850	0.006162
-17.845	0.006156
-17.840	0.006137
-17.835	0.006122
-17.830	0.006125
-17.825	0.006105
-17.820	0.006091
-17.815	0.006132
-17.810	0.006146
-17.805	0.006113
-17.800	0.006093
-17.795	0.006141
-17.790	0.006098
-17.785	0.006105
-17.780	0.006091
-17.775	0.006092
-17.770	0.006071
-17.765	0.006061
-17.760	0.006053
-17.755	0.006019
-17.750	0.006040
-17.745	0.006033
-17.740	0.006045
-17.735	0.006039
-17.730	0.006003
-17.725	0.006003
-17.720	0.006002
-17.715	0.005981
-17.710	0.005975
-17.705	0.005977
-17.700	0.006002
-17.695	0.005939
-17.690	0.005946
-17.685	0.005958
-17.680	0.005985
-17.675	0.005931
-17.670	0.005910
-17.665	0.005931
-17.660	0.005911
-17.655	0.005905
-17.650	0.005897
-17.645	0.005886
-17.640	0.005880
-17.635	0.005892
-17.630	0.005849
-17.625	0.005851
-17.620	0.005844
-17.615	0.005831
-17.610	0.005873
-17.605	0.005852
-17.600	0.005852
-17.595	0.005819
-17.590	0.005839
-17.585	0.005859
-17.580	0.005825
-17.575	0.005833
-17.570	0.005833
-17.565	0.005818
-17.560	0.005782
-17.555	0.005789
-17.550	0.005830
-17.545	0.005803
-17.540	0.005823
-17.535	0.005803
-17.530	0.005789
-17.525	0.005810
-17.520	0.005782
-17.515	0.005782
-17.510	0.005750
-17.505	0.005772
-17.500	0.005713
-17.495	0.005690
-17.490	0.005738
-17.485	0.005726
-17.480	0.005719
-17.475	0.005732
-17.470	0.005744
-17.465	0.005710
-17.460	0.005729
-17.455	0.005721
-17.450	0.005700
-17.445	0.005689
-17.440	0.005683
-17.435	0.005663
-17.430	0.005679
-17.425	0.005680
-17.420	0.005686
-17.415	0.005673
-17.410	0.005666
-17.405	0.005687
-17.400	0.005659
-17.395	0.005679
-17.390	0.005693
-17.385	0.005638
-17.380	0.005653
-17.375	0.005648
-17.370	0.005612
-17.365	0.005595
-17.360	0.005621
-17.355	0.005594
-17.350	0.005594
-17.345	0.005601
-17.340	0.005621
-17.335	0.005601
-17.330	0.005620
-17.325	0.005592
-17.320	0.005577
-17.315	0.005570
-17.310	0.005564
-17.305	0.005580
-17.300	0.005558
-17.295	0.005556
-17.290	0.005527
-17.285	0.005548
-17.280	0.005561
-17.275	0.005541
-17.270	0.005540
-17.265	0.005514
-17.260	0.005520
-17.255	0.005507
-17.250	0.005521
-17.245	0.005509
-17.240	0.005497
-17.235	0.005468
-17.230	0.005458
-17.225	0.005464
-17.220	0.005498
-17.215	0.005492
-17.210	0.005479
-17.205	0.005466
-17.200	0.005479
-17.195	0.005468
-17.190	0.005480
-17.185	0.005453
-17.180	0.005426
-17.175	0.005408
-17.170	0.005415
-17.165	0.005419
-17.160	0.005425
-17.155	0.005404
-17.150	0.005412
-17.145	0.005433
-17.140	0.005419
-17.135	0.005411
-17.130	0.005440
-17.125	0.005405
-17.120	0.005440
-17.115	0.005432
-17.110	0.005400
-17.105	0.005387
-17.100	0.005364
-17.095	0.005396
-17.090	0.005389
-17.085	0.005382
-17.080	0.005396
-17.075	0.005383
-17.070	0.005376
-17.065	0.005370
-17.060	0.005369
-17.055	0.005402
-17.050	0.005374
-17.045	0.005361
-17.040	0.005328
-17.035	0.005313
-17.030	0.005338
-17.025	0.005318
-17.020	0.005339
-17.015	0.005311
-17.010	0.005325
-17.005	0.005326
-17.000	0.005339
-16.995	0.005326
-16.990	0.005298
-16.985	0.005277
-16.980	0.005285
-16.975	0.005294
-16.970	0.005274
-16.965	0.005271
-16.960	0.005243
-16.955	0.005243
-16.950	0.005230
-16.945	0.005264
-16.940	0.005278
-16.935	0.005278
-16.930	0.005223
-16.925	0.005258
-16.920	0.005249
-16.915	0.005222
-16.910	0.005224
-16.905	0.005253
-16.900	0.005189
-16.895	0.005202
-16.890	0.005216
-16.885	0.005223
-16.880	0.005209
-16.875	0.005217
-16.870	0.005209
-16.865	0.005211
-16.860	0.005183
-16.855	0.005178
-16.850	0.005184
-16.845	0.005208
-16.840	0.005175
-16.835	0.005168
-16.830	0.005152
-16.825	0.005154
-16.820	0.005188
-16.815	0.005161
-16.810	0.005168
-16.805	0.005148
-16.800	0.005189
-16.795	0.005161
-16.790	0.005168
-16.785	0.005126
-16.780	0.005114
-16.775	0.005122
-16.770	0.005122
-16.765	0.005119
-16.760	0.005084
-16.755	0.005119
-16.750	0.005097
-16.745	0.005106
-16.740	0.005084
-16.735	0.005119
-16.730	0.005119
-16.725	0.005092
-16.720	0.005099
-16.715	0.005072
-16.710	0.005080
-16.705	0.005053
-16.700	0.005051
-16.695	0.005051
-16.690	0.005002
-16.685	0.005008
-16.680	0.005030
-16.675	0.005037
-16.670	0.005043
-16.665	0.005058
-16.660	0.005030
-16.655	0.005017
-16.650	0.005017
-16.645	0.005025
-16.640	0.004985
-16.635	0.004985
-16.630	0.004968
-16.625	0.004996
-16.620	0.004996
-16.615	0.004990
-16.610	0.004984
-16.605	0.004977
-16.600	0.004970
-16.595	0.004991
-16.590	0.004956
-16.585	0.004984
-16.580	0.004924
-16.575	0.004960
-16.570	0.004951
-16.565	0.004922
-16.560	0.004915
-16.555	0.004894
-16.550	0.004908
-16.545	0.004929
-16.540	0.004915
-16.535	0.004902
-16.530	0.004916
-16.525	0.004895
-16.520	0.004895
-16.515	0.004903
-16.510	0.004883
-16.505	0.004863
-16.500	0.004861
-16.495	0.004860
-16.490	0.004880
-16.485	0.004894
-16.480	0.004886
-16.475	0.004859
-16.470	0.004886
-16.465	0.004845
-16.460	0.004892
-16.455	0.004864
-16.450	0.004878
-16.445	0.004845
-16.440	0.004846
-16.435	0.004824
-16.430	0.004836
-16.425	0.004857
-16.420	0.004815
-16.415	0.004835
-16.410	0.004855
-16.405	0.004835
-16.400	0.004835
-16.395	0.004814
-16.390	0.004834
-16.385	0.004826
-16.380	0.004807
-16.375	0.004822
-16.370	0.004801
-16.365	0.004798
-16.360	0.004784
-16.355	0.004783
-16.350	0.004757
-16.345	0.004798
-16.340	0.004797
-16.335	0.004783
-16.330	0.004783
-16.325	0.004796
-16.320	0.004782
-16.315	0.004763
-16.310	0.004772
-16.305	0.004786
-16.300	0.004749
-16.295	0.004735
-16.290	0.004749
-16.285	0.004770
-16.280	0.004749
-16.275	0.004749
-16.270	0.004728
-16.265	0.004762
-16.260	0.004755
-16.255	0.004721
-16.250	0.004728
-16.245	0.004764
-16.240	0.004711
-16.235	0.004703
-16.230	0.004695
-16.225	0.004702
-16.220	0.004703
-16.215	0.004696
-16.210	0.004703
-16.205	0.004697
-16.200	0.004710
-16.195	0.004683
-16.190	0.004683
-16.185	0.004684
-16.180	0.004657
-16.175	0.004624
-16.170	0.004686
-16.165	0.004651
-16.160	0.004645
-16.155	0.004612
-16.150	0.004667
-16.145	0.004647
-16.140	0.004641
-16.135	0.004654
-16.130	0.004648
-16.125	0.004655
-16.120	0.004649
-16.115	0.004622
-16.110	0.004624
-16.105	0.004652
-16.100	0.004609
-16.095	0.004624
-16.090	0.004618
-16.085	0.004617
-16.080	0.004631
-16.075	0.004597
-16.070	0.004597
-16.065	0.004625
-16.060	0.004611
-16.055	0.004604
-16.050	0.004589
-16.045	0.004598
-16.040	0.004585
-16.035	0.004589
-16.030	0.004589
-16.025	0.004603
-16.020	0.004575
-16.015	0.004576
-16.010	0.004583
-16.005	0.004590
-16.000	0.004582
-15.995	0.004576
-15.990	0.004582
-15.985	0.004574
-15.980	0.004574
-15.975	0.004527
-15.970	0.004568
-15.965	0.004536
-15.960	0.004544
-15.955	0.004564
-15.950	0.004558
-15.945	0.004528
-15.940	0.004542
-15.935	0.004536
-15.930	0.004515
-15.925	0.004528
-15.920	0.004499
-15.915	0.004521
-15.910	0.004528
-15.905	0.004474
-15.900	0.004505
-15.895	0.004490
-15.890	0.004490
-15.885	0.004470
-15.880	0.004491
-15.875	0.004497
-15.870	0.004462
-15.865	0.004475
-15.860	0.004453
-15.855	0.004466
-15.850	0.004473
-15.845	0.004454
-15.840	0.004475
-15.835	0.004466
-15.830	0.004451
-15.825	0.004450
-15.820	0.004436
-15.815	0.004436
-15.810	0.004456
-15.805	0.004442
-15.800	0.004435
-15.795	0.004435
-15.790	0.004421
-15.785	0.004442
-15.780	0.004396
-15.775	0.004417
-15.770	0.004429
-15.765	0.004421
-15.760	0.004394
-15.755	0.004380
-15.750	0.004395
-15.745	0.004401
-15.740	0.004415
-15.735	0.004402
-15.730	0.004387
-15.725	0.004414
-15.720	0.004366
-15.715	0.004394
-15.710	0.004389
-15.705	0.004356
-15.700	0.004360
-15.695	0.004346
-15.690	0.004339
-15.685	0.004367
-15.680	0.004333
-15.675	0.004353
-15.670	0.004346
-15.665	0.004333
-15.660	0.004368
-15.655	0.004348
-15.650	0.004335
-15.645	0.004336
-15.640	0.004330
-15.635	0.004315
-15.630	0.004334
-15.625	0.004341
-15.620	0.004301
-15.615	0.004308
-15.610	0.004308
-15.605	0.004316
-15.600	0.004344
-15.595	0.004310
-15.590	0.004308
-15.585	0.004315
-15.580	0.004309
-15.575	0.004290
-15.570	0.004289
-15.565	0.004295
-15.560	0.004267
-15.555	0.004287
-15.550	0.004274
-15.545	0.004295
-15.540	0.004308
-15.535	0.004302
-15.530	0.004253
-15.525	0.004248
-15.520	0.004274
-15.515	0.004262
-15.510	0.004264
-15.505	0.004263
-15.500	0.004261
-15.495	0.004240
-15.490	0.004247
-15.485	0.004248
-15.480	0.004269
-15.475	0.004228
-15.470	0.004256
-15.465	0.004243
-15.460	0.004262
-15.455	0.004269
-15.450	0.004226
-15.445	0.004200
-15.440	0.004208
-15.435	0.004213
-15.430	0.004218
-15.425	0.004199
-15.420	0.004212
-15.415	0.004219
-15.410	0.004220
-15.405	0.004198
-15.400	0.004233
-15.395	0.004164
-15.390	0.004253
-15.385	0.004185
-15.380	0.004186
-15.375	0.004180
-15.370	0.004233
-15.365	0.004170
-15.360	0.004155
-15.355	0.004149
-15.350	0.004197
-15.345	0.004184
-15.340	0.004184
-15.335	0.004171
-15.330	0.004184
-15.325	0.004164
-15.320	0.004135
-15.315	0.004170
-15.310	0.004158
-15.305	0.004131
-15.300	0.004135
-15.295	0.004142
-15.290	0.004162
-15.285	0.004136
-15.280	0.004157
-15.275	0.004136
-15.270	0.004157
-15.265	0.004137
-15.260	0.004137
-15.255	0.004152
-15.250	0.004105
-15.245	0.004094
-15.240	0.004121
-15.235	0.004086
-15.230	0.004092
-15.225	0.004099
-15.220	0.004098
-15.215	0.004079
-15.210	0.004114
-15.205	0.004060
-15.200	0.004116
-15.195	0.004097
-15.190	0.004111
-15.185	0.004070
-15.180	0.004093
-15.175	0.004067
-15.170	0.004074
-15.165	0.004087
-15.160	0.004081
-15.155	0.004069
-15.150	0.004057
-15.145	0.004072
-15.140	0.004073
-15.135	0.004081
-15.130	0.004068
-15.125	0.004061
-15.120	0.004062
-15.115	0.004070
-15.110	0.004037
-15.105	0.004009
-15.100	0.004035
-15.095	0.004063
-15.090	0.004035
-15.085	0.004042
-15.080	0.004014
-15.075	0.004036
-15.070	0.004042
-15.065	0.004062
-15.060	0.004048
-15.055	0.004076
-15.050	0.004042
-15.045	0.004044
-15.040	0.004024
-15.035	0.004029
-15.030	0.004041
-15.025	0.004021
-15.020	0.004014
-15.015	0.004008
-15.010	0.004021
-15.005	0.004056
-15.000	0.004027
-14.995	0.004054
-14.990	0.004011
-14.985	0.004038
-14.980	0.004018
-14.975	0.004019
-14.970	0.003989
-14.965	0.003987
-14.960	0.004020
-14.955	0.004026
-14.950	0.003991
-14.945	0.004011
-14.940	0.004003
-14.935	0.004024
-14.930	0.003995
-14.925	0.003974
-14.920	0.003979
-14.915	0.003967
-14.910	0.003988
-14.905	0.003994
-14.900	0.003949
-14.895	0.003970
-14.890	0.003969
-14.885	0.003962
-14.880	0.003954
-14.875	0.003962
-14.870	0.003982
-14.865	0.003940
-14.860	0.003932
-14.855	0.003966
-14.850	0.003945
-14.845	0.003940
-14.840	0.003933
-14.835	0.003903
-14.830	0.003916
-14.825	0.003902
-14.820	0.003909
-14.815	0.003916
-14.810	0.003916
-14.805	0.003930
-14.800	0.003902
-14.795	0.003888
-14.790	0.003935
-14.785	0.003874
-14.780	0.003903
-14.775	0.003856
-14.770	0.003888
-14.765	0.003853
-14.760	0.003859
-14.755	0.003860
-14.750	0.003852
-14.745	0.003888
-14.740	0.003874
-14.735	0.003855
-14.730	0.003896
-14.725	0.003869
-14.720	0.003840
-14.715	0.003870
-14.710	0.003836
-14.705	0.003843
-14.700	0.003854
-14.695	0.003855
-14.690	0.003834
-14.685	0.003861
-14.680	0.003841
-14.675	0.003855
-14.670	0.003849
-14.665	0.003870
-14.660	0.003834
-14.655	0.003875
-14.650	0.003814
-14.645	0.003795
-14.640	0.003809
-14.635	0.003842
-14.630	0.003841
-14.625	0.003800
-14.620	0.003799
-14.615	0.003807
-14.610	0.003833
-14.605	0.003834
-14.600	0.003806
-14.595	0.003827
-14.590	0.003793
-14.585	0.003813
-14.580	0.003835
-14.575	0.003787
-14.570	0.003778
-14.565	0.003805
-14.560	0.003791
-14.555	0.003784
-14.550	0.003742
-14.545	0.003784
-14.540	0.003798
-14.535	0.003763
-14.530	0.003790
-14.525	0.003762
-14.520	0.003775
-14.515	0.003763
-14.510	0.003770
-14.505	0.003770
-14.500	0.003747
-14.495	0.003727
-14.490	0.003733
-14.485	0.003767
-14.480	0.003773
-14.475	0.003740
-14.470	0.003732
-14.465	0.003781
-14.460	0.003760
-14.455	0.003767
-14.450	0.003733
-14.445	0.003754
-14.440	0.003734
-14.435	0.003732
-14.430	0.003703
-14.425	0.003744
-14.420	0.003744
-14.415	0.003744
-14.410	0.003723
-14.405	0.003723
-14.400	0.003737
-14.395	0.003709
-14.390	0.003701
-14.385	0.003722
-14.380	0.003730
-14.375	0.003696
-14.370	0.003702
-14.365	0.003680
-14.360	0.003687
-14.355	0.003708
-14.350	0.003673
-14.345	0.003680
-14.340	0.003688
-14.335	0.003701
-14.330	0.003693
-14.325	0.003673
-14.320	0.003665
-14.315	0.003674
-14.310	0.003668
-14.305	0.003688
-14.300	0.003686
-14.295	0.003679
-14.290	0.003652
-14.285	0.003673
-14.280	0.003680
-14.275	0.003673
-14.270	0.003660
-14.265	0.003680
-14.260	0.003659
-14.255	0.003652
-14.250	0.003666
-14.245	0.003633
-14.240	0.003633
-14.235	0.003632
-14.230	0.003639
-14.225	0.003640
-14.220	0.003634
-14.215	0.003635
-14.210	0.003648
-14.205	0.003654
-14.200	0.003632
-14.195	0.003645
-14.190	0.003652
-14.185	0.003604
-14.180	0.003619
-14.175	0.003627
-14.170	0.003604
-14.165	0.003576
-14.160	0.003589
-14.155	0.003610
-14.150	0.003596
-14.145	0.003589
-14.140	0.003590
-14.135	0.003597
-14.130	0.003603
-14.125	0.003596
-14.120	0.003596
-14.115	0.003563
-14.110	0.003584
-14.105	0.003543
-14.100	0.003554
-14.095	0.003582
-14.090	0.003554
-14.085	0.003575
-14.080	0.003582
-14.075	0.003534
-14.070	0.003561
-14.065	0.003575
-14.060	0.003582
-14.055	0.003561
-14.050	0.003541
-14.045	0.003550
-14.040	0.003543
-14.035	0.003513
-14.030	0.003526
-14.025	0.003534
-14.020	0.003526
-14.015	0.003540
-14.010	0.003540
-14.005	0.003540
-14.000	0.003553
-13.995	0.003513
-13.990	0.003498
-13.985	0.003553
-13.980	0.003533
-13.975	0.003487
-13.970	0.003520
-13.965	0.003484
-13.960	0.003525
-13.955	0.003519
-13.950	0.003490
-13.945	0.003484
-13.940	0.003484
-13.935	0.003506
-13.930	0.003505
-13.925	0.003485
-13.920	0.003505
-13.915	0.003485
-13.910	0.003479
-13.905	0.003479
-13.900	0.003498
-13.895	0.003464
-13.890	0.003498
-13.885	0.003513
-13.880	0.003479
-13.875	0.003486
-13.870	0.003457
-13.865	0.003465
-13.860	0.003464
-13.855	0.003457
-13.850	0.003464
-13.845	0.003479
-13.840	0.003438
-13.835	0.003470
-13.830	0.003456
-13.825	0.003442
-13.820	0.003435
-13.815	0.003469
-13.810	0.003483
-13.805	0.003442
-13.800	0.003442
-13.795	0.003449
-13.790	0.003462
-13.785	0.003442
-13.780	0.003437
-13.775	0.003409
-13.770	0.003428
-13.765	0.003427
-13.760	0.003421
-13.755	0.003421
-13.750	0.003406
-13.745	0.003455
-13.740	0.003440
-13.735	0.003441
-13.730	0.003413
-13.725	0.003413
-13.720	0.003426
-13.715	0.003427
-13.710	0.003420
-13.705	0.003413
-13.700	0.003412
-13.695	0.003426
-13.690	0.003398
-13.685	0.003411
-13.680	0.003384
-13.675	0.003391
-13.670	0.003438
-13.665	0.003384
-13.660	0.003363
-13.655	0.003377
-13.650	0.003399
-13.645	0.003393
-13.640	0.003344
-13.635	0.003363
-13.630	0.003383
-13.625	0.003370
-13.620	0.003391
-13.615	0.003419
-13.610	0.003385
-13.605	0.003358
-13.600	0.003371
-13.595	0.003358
-13.590	0.003364
-13.585	0.003378
-13.580	0.003379
-13.575	0.003353
-13.570	0.003310
-13.565	0.003358
-13.560	0.003344
-13.555	0.003331
-13.550	0.003317
-13.545	0.003352
-13.540	0.003351
-13.535	0.003352
-13.530	0.003331
-13.525	0.003339
-13.520	0.003333
-13.515	0.003342
-13.510	0.003308
-13.505	0.003314
-13.500	0.003292
-13.495	0.003299
-13.490	0.003293
-13.485	0.003314
-13.480	0.003321
-13.475	0.003315
-13.470	0.003322
-13.465	0.003323
-13.460	0.003294
-13.455	0.003295
-13.450	0.003289
-13.445	0.003291
-13.440	0.003291
-13.435	0.003283
-13.430	0.003304
-13.425	0.003284
-13.420	0.003311
-13.415	0.003291
-13.410	0.003285
-13.405	0.003292
-13.400	0.003299
-13.395	0.003285
-13.390	0.003271
-13.385	0.003299
-13.380	0.003259
-13.375	0.003295
-13.370	0.003230
-13.365	0.003257
-13.360	0.003271
-13.355	0.003271
-13.350	0.003285
-13.345	0.003272
-13.340	0.003265
-13.335	0.003278
-13.330	0.003264
-13.325	0.003285
-13.320	0.003270
-13.315	0.003250
-13.310	0.003272
-13.305	0.003278
-13.300	0.003235
-13.295	0.003255
-13.290	0.003248
-13.285	0.003255
-13.280	0.003275
-13.275	0.003242
-13.270	0.003268
-13.265	0.003268
-13.260	0.003254
-13.255	0.003241
-13.250	0.003256
-13.245	0.003256
-13.240	0.003242
-13.235	0.003206
-13.230	0.003246
-13.225	0.003205
-13.220	0.003234
-13.215	0.003240
-13.210	0.003233
-13.205	0.003226
-13.200	0.003206
-13.195	0.003240
-13.190	0.003232
-13.185	0.003232
-13.180	0.003219
-13.175	0.003184
-13.170	0.003176
-13.165	0.003196
-13.160	0.003202
-13.155	0.003189
-13.150	0.003196
-13.145	0.003231
-13.140	0.003189
-13.135	0.003209
-13.130	0.003196
-13.125	0.003196
-13.120	0.003182
-13.115	0.003177
-13.110	0.003191
-13.105	0.003176
-13.100	0.003161
-13.095	0.003161
-13.090	0.003161
-13.085	0.003148
-13.080	0.003182
-13.075	0.003161
-13.070	0.003162
-13.065	0.003169
-13.060	0.003176
-13.055	0.003141
-13.050	0.003128
-13.045	0.003163
-13.040	0.003149
-13.035	0.003099
-13.030	0.003127
-13.025	0.003175
-13.020	0.003127
-13.015	0.003141
-13.010	0.003128
-13.005	0.003155
-13.000	0.003154
-12.995	0.003120
-12.990	0.003127
-12.985	0.003101
-12.980	0.003102
-12.975	0.003109
-12.970	0.003094
-12.965	0.003107
-12.960	0.003087
-12.955	0.003121
-12.950	0.003072
-12.945	0.003087
-12.940	0.003128
-12.935	0.003093
-12.930	0.003128
-12.925	0.003087
-12.920	0.003093
-12.915	0.003088
-12.910	0.003067
-12.905	0.003079
-12.900	0.003072
-12.895	0.003065
-12.890	0.003058
-12.885	0.003059
-12.880	0.003080
-12.875	0.003066
-12.870	0.003079
-12.865	0.003086
-12.860	0.003038
-12.855	0.003058
-12.850	0.003066
-12.845	0.003040
-12.840	0.003065
-12.835	0.003043
-12.830	0.003030
-12.825	0.003058
-12.820	0.003064
-12.815	0.003064
-12.810	0.003071
-12.805	0.003037
-12.800	0.003064
-12.795	0.003050
-12.790	0.003070
-12.785	0.003050
-12.780	0.003044
-12.775	0.003009
-12.770	0.003041
-12.765	0.003027
-12.760	0.003007
-12.755	0.003021
-12.750	0.003035
-12.745	0.003027
-12.740	0.003028
-12.735	0.003056
-12.730	0.002993
-12.725	0.003028
-12.720	0.003028
-12.715	0.003057
-12.710	0.002988
-12.705	0.003036
-12.700	0.003014
-12.695	0.003014
-12.690	0.002980
-12.685	0.002986
-12.680	0.003013
-12.675	0.003014
-12.670	0.003020
-12.665	0.002993
-12.660	0.002999
-12.655	0.002992
-12.650	0.002999
-12.645	0.002980
-12.640	0.002999
-12.635	0.002984
-12.630	0.002997
-12.625	0.002984
-12.620	0.002977
-12.615	0.002991
-12.610	0.002970
-12.605	0.002999
-12.600	0.003005
-12.595	0.002957
-12.590	0.002978
-12.585	0.002937
-12.580	0.002972
-12.575	0.002958
-12.570	0.002977
-12.565	0.002950
-12.560	0.002949
-12.555	0.002943
-12.550	0.002970
-12.545	0.002978
-12.540	0.002950
-12.535	0.003005
-12.530	0.002977
-12.525	0.002949
-12.520	0.002963
-12.515	0.002937
-12.510	0.002944
-12.505	0.002936
-12.500	0.002928
-12.495	0.002928
-12.490	0.002941
-12.485	0.002928
-12.480	0.002949
-12.475	0.002949
-12.470	0.002936
-12.465	0.002936
-12.460	0.002915
-12.455	0.002936
-12.450	0.002943
-12.445	0.002944
-12.440	0.002929
-12.435	0.002907
-12.430	0.002907
-12.425	0.002914
-12.420	0.002914
-12.415	0.002921
-12.410	0.002927
-12.405	0.002900
-12.400	0.002921
-12.395	0.002893
-12.390	0.002913
-12.385	0.002894
-12.380	0.002901
-12.375	0.002922
-12.370	0.002886
-12.365	0.002893
-12.360	0.002906
-12.355	0.002885
-12.350	0.002913
-12.345	0.002886
-12.340	0.002906
-12.335	0.002872
-12.330	0.002900
-12.325	0.002886
-12.320	0.002878
-12.315	0.002873
-12.310	0.002907
-12.305	0.002885
-12.300	0.002884
-12.295	0.002844
-12.290	0.002871
-12.285	0.002878
-12.280	0.002864
-12.275	0.002878
-12.270	0.002898
-12.265	0.002865
-12.260	0.002891
-12.255	0.002870
-12.250	0.002857
-12.245	0.002824
-12.240	0.002844
-12.235	0.002849
-12.230	0.002821
-12.225	0.002821
-12.220	0.002835
-12.215	0.002883
-12.210	0.002828
-12.205	0.002842
-12.200	0.002849
-12.195	0.002836
-12.190	0.002807
-12.185	0.002856
-12.180	0.002850
-12.175	0.002843
-12.170	0.002827
-12.165	0.002807
-12.160	0.002806
-12.155	0.002814
-12.150	0.002834
-12.145	0.002834
-12.140	0.002807
-12.135	0.002834
-12.130	0.002861
-12.125	0.002799
-12.120	0.002826
-12.115	0.002800
-12.110	0.002820
-12.105	0.002820
-12.100	0.002847
-12.095	0.002791
-12.090	0.002832
-12.085	0.002777
-12.080	0.002811
-12.075	0.002791
-12.070	0.002825
-12.065	0.002811
-12.060	0.002818
-12.055	0.002797
-12.050	0.002798
-12.045	0.002813
-12.040	0.002764
-12.035	0.002775
-12.030	0.002762
-12.025	0.002776
-12.020	0.002790
-12.015	0.002804
-12.010	0.002783
-12.005	0.002776
-12.000	0.002769
-11.995	0.002769
-11.990	0.002754
-11.985	0.002748
-11.980	0.002742
-11.975	0.002756
-11.970	0.002740
-11.965	0.002713
-11.960	0.002733
-11.955	0.002754
-11.950	0.002733
-11.945	0.002748
-11.940	0.002761
-11.935	0.002741
-11.930	0.002740
-11.925	0.002754
-11.920	0.002761
-11.915	0.002722
-11.910	0.002701
-11.905	0.002692
-11.900	0.002678
-11.895	0.002719
-11.890	0.002740
-11.885	0.002712
-11.880	0.002747
-11.875	0.002753
-11.870	0.002740
-11.865	0.002733
-11.860	0.002711
-11.855	0.002677
-11.850	0.002705
-11.845	0.002700
-11.840	0.002719
-11.835	0.002705
-11.830	0.002697
-11.825	0.002684
-11.820	0.002745
-11.815	0.002705
-11.810	0.002670
-11.805	0.002712
-11.800	0.002705
-11.795	0.002684
-11.790	0.002712
-11.785	0.002692
-11.780	0.002659
-11.775	0.002692
-11.770	0.002671
-11.765	0.002677
-11.760	0.002691
-11.755	0.002678
-11.750	0.002671
-11.745	0.002665
-11.740	0.002678
-11.735	0.002692
-11.730	0.002685
-11.725	0.002658
-11.720	0.002671
-11.715	0.002679
-11.710	0.002666
-11.705	0.002651
-11.700	0.002664
-11.695	0.002658
-11.690	0.002658
-11.685	0.002665
-11.680	0.002685
-11.675	0.002685
-11.670	0.002645
-11.665	0.002644
-11.660	0.002624
-11.655	0.002658
-11.650	0.002659
-11.645	0.002639
-11.640	0.002625
-11.635	0.002624
-11.630	0.002624
-11.625	0.002624
-11.620	0.002652
-11.615	0.002611
-11.610	0.002652
-11.605	0.002631
-11.600	0.002659
-11.595	0.002618
-11.590	0.002637
-11.585	0.002645
-11.580	0.002632
-11.575	0.002612
-11.570	0.002617
-11.565	0.002596
-11.560	0.002603
-11.555	0.002617
-11.550	0.002617
-11.545	0.002638
-11.540	0.002597
-11.535	0.002619
-11.530	0.002624
-11.525	0.002598
-11.520	0.002625
-11.515	0.002612
-11.510	0.002592
-11.505	0.002591
-11.500	0.002591
-11.495	0.002598
-11.490	0.002564
-11.485	0.002591
-11.480	0.002604
-11.475	0.002598
-11.470	0.002571
-11.465	0.002598
-11.460	0.002604
-11.455	0.002583
-11.450	0.002584
-11.445	0.002571
-11.440	0.002592
-11.435	0.002556
-11.430	0.002576
-11.425	0.002591
-11.420	0.002590
-11.415	0.002591
-11.410	0.002590
-11.405	0.002563
-11.400	0.002576
-11.395	0.002542
-11.390	0.002542
-11.385	0.002564
-11.380	0.002544
-11.375	0.002571
-11.370	0.002535
-11.365	0.002535
-11.360	0.002590
-11.355	0.002528
-11.350	0.002562
-11.345	0.002555
-11.340	0.002548
-11.335	0.002563
-11.330	0.002549
-11.325	0.002576
-11.320	0.002535
-11.315	0.002502
-11.310	0.002564
-11.305	0.002514
-11.300	0.002535
-11.295	0.002527
-11.290	0.002514
-11.285	0.002528
-11.280	0.002548
-11.275	0.002521
-11.270	0.002541
-11.265	0.002541
-11.260	0.002548
-11.255	0.002514
-11.250	0.002502
-11.245	0.002496
-11.240	0.002474
-11.235	0.002521
-11.230	0.002514
-11.225	0.002535
-11.220	0.002514
-11.215	0.002487
-11.210	0.002508
-11.205	0.002528
-11.200	0.002535
-11.195	0.002514
-11.190	0.002486
-11.185	0.002507
-11.180	0.002481
-11.175	0.002488
-11.170	0.002513
-11.165	0.002486
-11.160	0.002458
-11.155	0.002486
-11.150	0.002493
-11.145	0.002507
-11.140	0.002493
-11.135	0.002473
-11.130	0.002507
-11.125	0.002459
-11.120	0.002459
-11.115	0.002475
-11.110	0.002460
-11.105	0.002479
-11.100	0.002479
-11.095	0.002432
-11.090	0.002486
-11.085	0.002438
-11.080	0.002465
-11.075	0.002487
-11.070	0.002466
-11.065	0.002445
-11.060	0.002445
-11.055	0.002458
-11.050	0.002459
-11.045	0.002446
-11.040	0.002459
-11.035	0.002465
-11.030	0.002437
-11.025	0.002417
-11.020	0.002431
-11.015	0.002438
-11.010	0.002458
-11.005	0.002452
-11.000	0.002451
-10.995	0.002431
-10.990	0.002430
-10.985	0.002459
-10.980	0.002425
-10.975	0.002431
-10.970	0.002430
-10.965	0.002424
-10.960	0.002430
-10.955	0.002445
-10.950	0.002431
-10.945	0.002438
-10.940	0.002464
-10.935	0.002437
-10.930	0.002437
-10.925	0.002395
-10.920	0.002388
-10.915	0.002417
-10.910	0.002417
-10.905	0.002380
-10.900	0.002387
-10.895	0.002408
-10.890	0.002387
-10.885	0.002415
-10.880	0.002401
-10.875	0.002414
-10.870	0.002394
-10.865	0.002380
-10.860	0.002414
-10.855	0.002373
-10.850	0.002374
-10.845	0.002396
-10.840	0.002401
-10.835	0.002380
-10.830	0.002359
-10.825	0.002400
-10.820	0.002386
-10.815	0.002407
-10.810	0.002338
-10.805	0.002393
-10.800	0.002379
-10.795	0.002386
-10.790	0.002385
-10.785	0.002400
-10.780	0.002380
-10.775	0.002380
-10.770	0.002350
-10.765	0.002371
-10.760	0.002350
-10.755	0.002392
-10.750	0.002337
-10.745	0.002385
-10.740	0.002385
-10.735	0.002351
-10.730	0.002378
-10.725	0.002357
-10.720	0.002358
-10.715	0.002359
-10.710	0.002359
-10.705	0.002330
-10.700	0.002364
-10.695	0.002343
-10.690	0.002336
-10.685	0.002357
-10.680	0.002358
-10.675	0.002358
-10.670	0.002317
-10.665	0.002337
-10.660	0.002329
-10.655	0.002303
-10.650	0.002311
-10.645	0.002325
-10.640	0.002310
-10.635	0.002316
-10.630	0.002316
-10.625	0.002336
-10.620	0.002330
-10.615	0.002316
-10.610	0.002330
-10.605	0.002330
-10.600	0.002296
-10.595	0.002324
-10.590	0.002310
-10.585	0.002325
-10.580	0.002319
-10.575	0.002291
-10.570	0.002303
-10.565	0.002276
-10.560	0.002284
-10.555	0.002284
-10.550	0.002318
-10.545	0.002292
-10.540	0.002305
-10.535	0.002326
-10.530	0.002304
-10.525	0.002297
-10.520	0.002311
-10.515	0.002306
-10.510	0.002279
-10.505	0.002291
-10.500	0.002256
-10.495	0.002277
-10.490	0.002283
-10.485	0.002257
-10.480	0.002284
-10.475	0.002257
-10.470	0.002290
-10.465	0.002284
-10.460	0.002284
-10.455	0.002291
-10.450	0.002264
-10.445	0.002292
-10.440	0.002249
-10.435	0.002249
-10.430	0.002249
-10.425	0.002235
-10.420	0.002249
-10.415	0.002250
-10.410	0.002250
-10.405	0.002256
-10.400	0.002290
-10.395	0.002234
-10.390	0.002227
-10.385	0.002269
-10.380	0.002250
-10.375	0.002249
-10.370	0.002234
-10.365	0.002228
-10.360	0.002221
-10.355	0.002228
-10.350	0.002255
-10.345	0.002249
-10.340	0.002255
-10.335	0.002270
-10.330	0.002235
-10.325	0.002241
-10.320	0.002229
-10.315	0.002202
-10.310	0.002243
-10.305	0.002200
-10.300	0.002200
-10.295	0.002213
-10.290	0.002234
-10.285	0.002200
-10.280	0.002241
-10.275	0.002220
-10.270	0.002247
-10.265	0.002247
-10.260	0.002192
-10.255	0.002199
-10.250	0.002214
-10.245	0.002228
-10.240	0.002206
-10.235	0.002178
-10.230	0.002178
-10.225	0.002205
-10.220	0.002205
-10.215	0.002178
-10.210	0.002227
-10.205	0.002193
-10.200	0.002206
-10.195	0.002179
-10.190	0.002213
-10.185	0.002180
-10.180	0.002180
-10.175	0.002145
-10.170	0.002185
-10.165	0.002144
-10.160	0.002171
-10.155	0.002164
-10.150	0.002185
-10.145	0.002179
-10.140	0.002186
-10.135	0.002171
-10.130	0.002198
-10.125	0.002164
-10.120	0.002171
-10.115	0.002138
-10.110	0.002138
-10.105	0.002123
-10.100	0.002157
-10.095	0.002171
-10.090	0.002184
-10.085	0.002170
-10.080	0.002157
-10.075	0.002171
-10.070	0.002157
-10.065	0.002164
-10.060	0.002164
-10.055	0.002158
-10.050	0.002159
-10.045	0.002145
-10.040	0.002136
-10.035	0.002156
-10.030	0.002129
-10.025	0.002156
-10.020	0.002136
-10.015	0.002143
-10.010	0.002109
-10.005	0.002171
-10.000	0.002150
-9.995	0.002129
-9.990	0.002156
-9.985	0.002130
-9.980	0.002137
-9.975	0.002158
-9.970	0.002156
-9.965	0.002143
-9.960	0.002129
-9.955	0.002136
-9.950	0.002136
-9.945	0.002143
-9.940	0.002129
-9.935	0.002143
-9.930	0.002143
-9.925	0.002129
-9.920	0.002150
-9.915	0.002124
-9.910	0.002124
-9.905	0.002157
-9.900	0.002129
-9.895	0.002150
-9.890	0.002136
-9.885	0.002143
-9.880	0.002143
-9.875	0.002137
-9.870	0.002137
-9.865	0.002137
-9.860	0.002143
-9.855	0.002129
-9.850	0.002131
-9.845	0.002104
-9.840	0.002150
-9.835	0.002143
-9.830	0.002136
-9.825	0.002102
-9.820	0.002102
-9.815	0.002116
-9.810	0.002129
-9.805	0.002129
-9.800	0.002102
-9.795	0.002137
-9.790	0.002102
-9.785	0.002131
-9.780	0.002152
-9.775	0.002102
-9.770	0.002095
-9.765	0.002122
-9.760	0.002115
-9.755	0.002095
-9.750	0.002109
-9.745	0.002116
-9.740	0.002081
-9.735	0.002082
-9.730	0.002102
-9.725	0.002122
-9.720	0.002102
-9.715	0.002089
-9.710	0.002109
-9.705	0.002088
-9.700	0.002101
-9.695	0.002081
-9.690	0.002101
-9.685	0.002087
-9.680	0.002081
-9.675	0.002074
-9.670	0.002074
-9.665	0.002108
-9.660	0.002101
-9.655	0.002075
-9.650	0.002062
-9.645	0.002083
-9.640	0.002060
-9.635	0.002078
-9.630	0.002077
-9.625	0.002070
-9.620	0.002050
-9.615	0.002071
-9.610	0.002050
-9.605	0.002002
-9.600	0.002023
-9.595	0.002016
-9.590	0.001988
-9.585	0.001980
-9.580	0.001946
-9.575	0.001892
-9.570	0.001796
-9.565	0.001585
-9.560	0.001208
-9.555	0.000687
-9.550	-0.000178
-9.545	-0.001312
-9.540	-0.002801
-9.535	-0.004743
-9.530	-0.007189
-9.525	-0.009857
-9.520	-0.012886
-9.515	-0.016154
-9.510	-0.019702
-9.505	-0.023682
-9.500	-0.027998
-9.495	-0.032426
-9.490	-0.036816
-9.485	-0.040990
-9.480	-0.044855
-9.475	-0.048452
-9.470	-0.051257
-9.465	-0.052456
-9.460	-0.051379
-9.455	-0.048399
-9.450	-0.044289
-9.445	-0.040122
-9.440	-0.036070
-9.435	-0.032613
-9.430	-0.029497
-9.425	-0.026708
-9.420	-0.024811
-9.415	-0.022347
-9.410	-0.020101
-9.405	-0.019398
-9.400	-0.018360
-9.395	-0.016360
-9.390	-0.014886
-9.385	-0.015188
-9.380	-0.016944
-9.375	-0.018770
-9.370	-0.019735
-9.365	-0.019915
-9.360	-0.019732
-9.355	-0.019370
-9.350	-0.018951
-9.345	-0.018529
-9.340	-0.017982
-9.335	-0.017594
-9.330	-0.017377
-9.325	-0.016869
-9.320	-0.016387
-9.315	-0.016022
-9.310	-0.015830
-9.305	-0.015648
-9.300	-0.015501
-9.295	-0.015345
-9.290	-0.015191
-9.285	-0.014987
-9.280	-0.014797
-9.275	-0.014593
-9.270	-0.014401
-9.265	-0.014161
-9.260	-0.013962
-9.255	-0.013769
-9.250	-0.013598
-9.245	-0.013439
-9.240	-0.013240
-9.235	-0.013074
-9.230	-0.012888
-9.225	-0.012742
-9.220	-0.012557
-9.215	-0.012358
-9.210	-0.012248
-9.205	-0.012119
-9.200	-0.011989
-9.195	-0.011899
-9.190	-0.011820
-9.185	-0.011740
-9.180	-0.011569
-9.175	-0.011457
-9.170	-0.011354
-9.165	-0.011202
-9.160	-0.011121
-9.155	-0.010974
-9.150	-0.010873
-9.145	-0.010761
-9.140	-0.010698
-9.135	-0.010569
-9.130	-0.010454
-9.125	-0.010363
-9.120	-0.010278
-9.115	-0.010190
-9.110	-0.010101
-9.105	-0.009978
-9.100	-0.009855
-9.095	-0.009827
-9.090	-0.009723
-9.085	-0.009626
-9.080	-0.009557
-9.075	-0.009503
-9.070	-0.009408
-9.065	-0.009335
-9.060	-0.009241
-9.055	-0.009155
-9.050	-0.009134
-9.045	-0.009032
-9.040	-0.008917
-9.035	-0.008872
-9.030	-0.008831
-9.025	-0.008748
-9.020	-0.008686
-9.015	-0.008632
-9.010	-0.008542
-9.005	-0.008528
-9.000	-0.008439
-8.995	-0.008384
-8.990	-0.008361
-8.985	-0.008277
-8.980	-0.008203
-8.975	-0.008160
-8.970	-0.008113
-8.965	-0.008050
-8.960	-0.007966
-8.955	-0.007945
-8.950	-0.007884
-8.945	-0.007806
-8.940	-0.007799
-8.935	-0.007751
-8.930	-0.007695
-8.925	-0.007645
-8.920	-0.007623
-8.915	-0.007575
-8.910	-0.007547
-8.905	-0.007485
-8.900	-0.007443
-8.895	-0.007360
-8.890	-0.007361
-8.885	-0.007300
-8.880	-0.007238
-8.875	-0.007198
-8.870	-0.007200
-8.865	-0.007170
-8.860	-0.007099
-8.855	-0.007066
-8.850	-0.007092
-8.845	-0.007010
-8.840	-0.006997
-8.835	-0.006927
-8.830	-0.006893
-8.825	-0.006866
-8.820	-0.006837
-8.815	-0.006803
-8.810	-0.006761
-8.805	-0.006747
-8.800	-0.006686
-8.795	-0.006631
-8.790	-0.006576
-8.785	-0.006541
-8.780	-0.006485
-8.775	-0.006484
-8.770	-0.006423
-8.765	-0.006389
-8.760	-0.006341
-8.755	-0.006349
-8.750	-0.006273
-8.745	-0.006225
-8.740	-0.006212
-8.735	-0.006179
-8.730	-0.006158
-8.725	-0.006143
-8.720	-0.006079
-8.715	-0.006058
-8.710	-0.006045
-8.705	-0.005998
-8.700	-0.005965
-8.695	-0.005916
-8.690	-0.005903
-8.685	-0.005868
-8.680	-0.005854
-8.675	-0.005813
-8.670	-0.005801
-8.665	-0.005775
-8.660	-0.005747
-8.655	-0.005719
-8.650	-0.005678
-8.645	-0.005650
-8.640	-0.005643
-8.635	-0.005602
-8.630	-0.005506
-8.625	-0.005500
-8.620	-0.005435
-8.615	-0.005416
-8.610	-0.005414
-8.605	-0.005438
-8.600	-0.005401
-8.595	-0.005392
-8.590	-0.005369
-8.585	-0.005321
-8.580	-0.005293
-8.575	-0.005272
-8.570	-0.005204
-8.565	-0.005225
-8.560	-0.005164
-8.555	-0.005142
-8.550	-0.005170
-8.545	-0.005128
-8.540	-0.005065
-8.535	-0.005114
-8.530	-0.005061
-8.525	-0.005012
-8.520	-0.005011
-8.515	-0.004998
-8.510	-0.004984
-8.505	-0.004964
-8.500	-0.004956
-8.495	-0.004941
-8.490	-0.004872
-8.485	-0.004858
-8.480	-0.004858
-8.475	-0.004830
-8.470	-0.004811
-8.465	-0.004777
-8.460	-0.004756
-8.455	-0.004776
-8.450	-0.004762
-8.445	-0.004721
-8.440	-0.004714
-8.435	-0.004673
-8.430	-0.004653
-8.425	-0.004625
-8.420	-0.004605
-8.415	-0.004611
-8.410	-0.004604
-8.405	-0.004583
-8.400	-0.004543
-8.395	-0.004557
-8.390	-0.004515
-8.385	-0.004522
-8.380	-0.004474
-8.375	-0.004467
-8.370	-0.004460
-8.365	-0.004467
-8.360	-0.004440
-8.355	-0.004392
-8.350	-0.004364
-8.345	-0.004392
-8.340	-0.004337
-8.335	-0.004366
-8.330	-0.004352
-8.325	-0.004324
-8.320	-0.004324
-8.315	-0.004275
-8.310	-0.004262
-8.305	-0.004228
-8.300	-0.004249
-8.295	-0.004208
-8.290	-0.004201
-8.285	-0.004187
-8.280	-0.004146
-8.275	-0.004187
-8.270	-0.004160
-8.265	-0.004154
-8.260	-0.004098
-8.255	-0.004132
-8.250	-0.004091
-8.245	-0.004105
-8.240	-0.004071
-8.235	-0.004050
-8.230	-0.004023
-8.225	-0.004009
-8.220	-0.003989
-8.215	-0.003948
-8.210	-0.003968
-8.205	-0.003962
-8.200	-0.003949
-8.195	-0.003929
-8.190	-0.003887
-8.185	-0.003914
-8.180	-0.003893
-8.175	-0.003852
-8.170	-0.003839
-8.165	-0.003853
-8.160	-0.003832
-8.155	-0.003791
-8.150	-0.003798
-8.145	-0.003798
-8.140	-0.003770
-8.135	-0.003750
-8.130	-0.003723
-8.125	-0.003729
-8.120	-0.003729
-8.115	-0.003701
-8.110	-0.003722
-8.105	-0.003702
-8.100	-0.003674
-8.095	-0.003633
-8.090	-0.003668
-8.085	-0.003633
-8.080	-0.003620
-8.075	-0.003613
-8.070	-0.003586
-8.065	-0.003593
-8.060	-0.003586
-8.055	-0.003620
-8.050	-0.003537
-8.045	-0.003551
-8.040	-0.003530
-8.035	-0.003551
-8.030	-0.003510
-8.025	-0.003482
-8.020	-0.003469
-8.015	-0.003435
-8.010	-0.003462
-8.005	-0.003421
-8.000	-0.003421
-7.995	-0.003407
-7.990	-0.003441
-7.985	-0.003434
-7.980	-0.003393
-7.975	-0.003392
-7.970	-0.003379
-7.965	-0.003358
-7.960	-0.003345
-7.955	-0.003331
-7.950	-0.003338
-7.945	-0.003337
-7.940	-0.003317
-7.935	-0.003317
-7.930	-0.003317
-7.925	-0.003337
-7.920	-0.003269
-7.915	-0.003296
-7.910	-0.003262
-7.905	-0.003276
-7.900	-0.003248
-7.895	-0.003228
-7.890	-0.003221
-7.885	-0.003207
-7.880	-0.003207
-7.875	-0.003200
-7.870	-0.003194
-7.865	-0.003194
-7.860	-0.003173
-7.855	-0.003180
-7.850	-0.003180
-7.845	-0.003125
-7.840	-0.003125
-7.835	-0.003098
-7.830	-0.003125
-7.825	-0.003098
-7.820	-0.003084
-7.815	-0.003111
-7.810	-0.003063
-7.805	-0.003084
-7.800	-0.003071
-7.795	-0.003071
-7.790	-0.003057
-7.785	-0.003057
-7.780	-0.003009
-7.775	-0.003022
-7.770	-0.003002
-7.765	-0.003002
-7.760	-0.002988
-7.755	-0.003009
-7.750	-0.002988
-7.745	-0.002961
-7.740	-0.002954
-7.735	-0.002961
-7.730	-0.002934
-7.725	-0.002954
-7.720	-0.002961
-7.715	-0.002940
-7.710	-0.002954
-7.705	-0.002927
-7.700	-0.002899
-7.695	-0.002927
-7.690	-0.002913
-7.685	-0.002913
-7.680	-0.002886
-7.675	-0.002872
-7.670	-0.002886
-7.665	-0.002886
-7.660	-0.002858
-7.655	-0.002858
-7.650	-0.002858
-7.645	-0.002851
-7.640	-0.002858
-7.635	-0.002804
-7.630	-0.002824
-7.625	-0.002811
-7.620	-0.002790
-7.615	-0.002811
-7.610	-0.002825
-7.605	-0.002791
-7.600	-0.002799
-7.595	-0.002785
-7.590	-0.002792
-7.585	-0.002765
-7.580	-0.002786
-7.575	-0.002787
-7.570	-0.002738
-7.565	-0.002745
-7.560	-0.002724
-7.555	-0.002703
-7.550	-0.002695
-7.545	-0.002688
-7.540	-0.002674
-7.535	-0.002681
-7.530	-0.002654
-7.525	-0.002653
-7.520	-0.002646
-7.515	-0.002688
-7.510	-0.002653
-7.505	-0.002633
-7.500	-0.002626
-7.495	-0.002613
-7.490	-0.002606
-7.485	-0.002599
-7.480	-0.002565
-7.475	-0.002586
-7.470	-0.002586
-7.465	-0.002573
-7.460	-0.002593
-7.455	-0.002614
-7.450	-0.002572
-7.445	-0.002545
-7.440	-0.002559
-7.435	-0.002524
-7.430	-0.002545
-7.425	-0.002510
-7.420	-0.002510
-7.415	-0.002544
-7.410	-0.002517
-7.405	-0.002537
-7.400	-0.002524
-7.395	-0.002489
-7.390	-0.002530
-7.385	-0.002482
-7.380	-0.002496
-7.375	-0.002468
-7.370	-0.002516
-7.365	-0.002468
-7.360	-0.002441
-7.355	-0.002455
-7.350	-0.002434
-7.345	-0.002448
-7.340	-0.002441
-7.335	-0.002414
-7.330	-0.002455
-7.325	-0.002448
-7.320	-0.002386
-7.315	-0.002406
-7.310	-0.002420
-7.305	-0.002365
-7.300	-0.002358
-7.295	-0.002372
-7.290	-0.002352
-7.285	-0.002331
-7.280	-0.002317
-7.275	-0.002317
-7.270	-0.002338
-7.265	-0.002338
-7.260	-0.002338
-7.255	-0.002324
-7.250	-0.002290
-7.245	-0.002263
-7.240	-0.002290
-7.235	-0.002304
-7.230	-0.002270
-7.225	-0.002277
-7.220	-0.002256
-7.215	-0.002249
-7.210	-0.002290
-7.205	-0.002270
-7.200	-0.002270
-7.195	-0.002311
-7.190	-0.002290
-7.185	-0.002290
-7.180	-0.002290
-7.175	-0.002270
-7.170	-0.002222
-7.165	-0.002242
-7.160	-0.002256
-7.155	-0.002242
-7.150	-0.002229
-7.145	-0.002208
-7.140	-0.002229
-7.135	-0.002236
-7.130	-0.002215
-7.125	-0.002208
-7.120	-0.002208
-7.115	-0.002201
-7.110	-0.002174
-7.105	-0.002222
-7.100	-0.002167
-7.095	-0.002195
-7.090	-0.002167
-7.085	-0.002154
-7.080	-0.002147
-7.075	-0.002160
-7.070	-0.002161
-7.065	-0.002174
-7.060	-0.002140
-7.055	-0.002140
-7.050	-0.002161
-7.045	-0.002126
-7.040	-0.002126
-7.035	-0.002140
-7.030	-0.002078
-7.025	-0.002072
-7.020	-0.002092
-7.015	-0.002106
-7.010	-0.002065
-7.005	-0.002079
-7.000	-0.002072
-6.995	-0.002079
-6.990	-0.002086
-6.985	-0.002065
-6.980	-0.002065
-6.975	-0.002038
-6.970	-0.002051
-6.965	-0.002031
-6.960	-0.002031
-6.955	-0.002017
-6.950	-0.002045
-6.945	-0.002045
-6.940	-0.002045
-6.935	-0.002024
-6.930	-0.002059
-6.925	-0.002052
-6.920	-0.002024
-6.915	-0.002024
-6.910	-0.002045
-6.905	-0.002031
-6.900	-0.001997
-6.895	-0.002024
-6.890	-0.001983
-6.885	-0.002024
-6.880	-0.002024
-6.875	-0.001997
-6.870	-0.002011
-6.865	-0.002032
-6.860	-0.002004
-6.855	-0.002031
-6.850	-0.002038
-6.845	-0.002045
-6.840	-0.002045
-6.835	-0.002038
-6.830	-0.002059
-6.825	-0.002066
-6.820	-0.002066
-6.815	-0.002066
-6.810	-0.002052
-6.805	-0.002100
-6.800	-0.002052
-6.795	-0.002066
-6.790	-0.002059
-6.785	-0.002073
-6.780	-0.002073
-6.775	-0.002052
-6.770	-0.002046
-6.765	-0.002066
-6.760	-0.002032
-6.755	-0.002046
-6.750	-0.002032
-6.745	-0.002046
-6.740	-0.002012
-6.735	-0.002012
-6.730	-0.001984
-6.725	-0.002039
-6.720	-0.001984
-6.715	-0.002005
-6.710	-0.001957
-6.705	-0.001984
-6.700	-0.001964
-6.695	-0.001957
-6.690	-0.001916
-6.685	-0.001909
-6.680	-0.001957
-6.675	-0.001923
-6.670	-0.001916
-6.665	-0.001895
-6.660	-0.001888
-6.655	-0.001888
-6.650	-0.001882
-6.645	-0.001861
-6.640	-0.001875
-6.635	-0.001868
-6.630	-0.001827
-6.625	-0.001854
-6.620	-0.001854
-6.615	-0.001861
-6.610	-0.001848
-6.605	-0.001861
-6.600	-0.001834
-6.595	-0.001848
-6.590	-0.001868
-6.585	-0.001848
-6.580	-0.001848
-6.575	-0.001841
-6.570	-0.001882
-6.565	-0.001868
-6.560	-0.001841
-6.555	-0.001841
-6.550	-0.001855
-6.545	-0.001820
-6.540	-0.001834
-6.535	-0.001841
-6.530	-0.001848
-6.525	-0.001855
-6.520	-0.001841
-6.515	-0.001814
-6.510	-0.001827
-6.505	-0.001821
-6.500	-0.001827
-6.495	-0.001821
-6.490	-0.001793
-6.485	-0.001828
-6.480	-0.001814
-6.475	-0.001773
-6.470	-0.001793
-6.465	-0.001787
-6.460	-0.001821
-6.455	-0.001821
-6.450	-0.001800
-6.445	-0.001800
-6.440	-0.001766
-6.435	-0.001800
-6.430	-0.001766
-6.425	-0.001732
-6.420	-0.001794
-6.415	-0.001773
-6.410	-0.001773
-6.405	-0.001800
-6.400	-0.001787
-6.395	-0.001787
-6.390	-0.001753
-6.385	-0.001759
-6.380	-0.001753
-6.375	-0.001759
-6.370	-0.001746
-6.365	-0.001739
-6.360	-0.001739
-6.355	-0.001705
-6.350	-0.001712
-6.345	-0.001746
-6.340	-0.001712
-6.335	-0.001712
-6.330	-0.001712
-6.325	-0.001725
-6.320	-0.001732
-6.315	-0.001677
-6.310	-0.001712
-6.305	-0.001712
-6.300	-0.001691
-6.295	-0.001698
-6.290	-0.001664
-6.285	-0.001678
-6.280	-0.001698
-6.275	-0.001664
-6.270	-0.001678
-6.265	-0.001664
-6.260	-0.001671
-6.255	-0.001650
-6.250	-0.001637
-6.245	-0.001657
-6.240	-0.001657
-6.235	-0.001664
-6.230	-0.001657
-6.225	-0.001650
-6.220	-0.001630
-6.215	-0.001623
-6.210	-0.001637
-6.205	-0.001637
-6.200	-0.001589
-6.195	-0.001644
-6.190	-0.001616
-6.185	-0.001623
-6.180	-0.001644
-6.175	-0.001589
-6.170	-0.001603
-6.165	-0.001589
-6.160	-0.001609
-6.155	-0.001610
-6.150	-0.001589
-6.145	-0.001548
-6.140	-0.001589
-6.135	-0.001575
-6.130	-0.001603
-6.125	-0.001541
-6.120	-0.001582
-6.115	-0.001569
-6.110	-0.001589
-6.105	-0.001562
-6.100	-0.001555
-6.095	-0.001548
-6.090	-0.001534
-6.085	-0.001555
-6.080	-0.001548
-6.075	-0.001548
-6.070	-0.001521
-6.065	-0.001555
-6.060	-0.001534
-6.055	-0.001535
-6.050	-0.001528
-6.045	-0.001555
-6.040	-0.001535
-6.035	-0.001500
-6.030	-0.001521
-6.025	-0.001500
-6.020	-0.001528
-6.015	-0.001507
-6.010	-0.001480
-6.005	-0.001466
-6.000	-0.001487
-5.995	-0.001466
-5.990	-0.001480
-5.985	-0.001487
-5.980	-0.001446
-5.975	-0.001439
-5.970	-0.001446
-5.965	-0.001432
-5.960	-0.001405
-5.955	-0.001405
-5.950	-0.001405
-5.945	-0.001398
-5.940	-0.001377
-5.935	-0.001412
-5.930	-0.001371
-5.925	-0.001384
-5.920	-0.001391
-5.915	-0.001364
-5.910	-0.001343
-5.905	-0.001330
-5.900	-0.001323
-5.895	-0.001316
-5.890	-0.001330
-5.885	-0.001330
-5.880	-0.001316
-5.875	-0.001302
-5.870	-0.001295
-5.865	-0.001309
-5.860	-0.001282
-5.855	-0.001323
-5.850	-0.001302
-5.845	-0.001323
-5.840	-0.001323
-5.835	-0.001289
-5.830	-0.001296
-5.825	-0.001282
-5.820	-0.001316
-5.815	-0.001330
-5.810	-0.001344
-5.805	-0.001357
-5.800	-0.001412
-5.795	-0.001446
-5.790	-0.001460
-5.785	-0.001508
-5.780	-0.001584
-5.775	-0.001618
-5.770	-0.001680
-5.765	-0.001762
-5.760	-0.001858
-5.755	-0.001920
-5.750	-0.002050
-5.745	-0.002132
-5.740	-0.002229
-5.735	-0.002332
-5.730	-0.002387
-5.725	-0.002469
-5.720	-0.002544
-5.715	-0.002565
-5.710	-0.002599
-5.705	-0.002572
-5.700	-0.002510
-5.695	-0.002421
-5.690	-0.002359
-5.685	-0.002256
-5.680	-0.002133
-5.675	-0.002003
-5.670	-0.001872
-5.665	-0.001735
-5.660	-0.001619
-5.655	-0.001495
-5.650	-0.001351
-5.645	-0.001255
-5.640	-0.001186
-5.635	-0.001097
-5.630	-0.001104
-5.625	-0.001063
-5.620	-0.001042
-5.615	-0.001015
-5.610	-0.001036
-5.605	-0.001036
-5.600	-0.001056
-5.595	-0.001056
-5.590	-0.001049
-5.585	-0.001036
-5.580	-0.001084
-5.575	-0.001084
-5.570	-0.001043
-5.565	-0.001084
-5.560	-0.001056
-5.555	-0.001036
-5.550	-0.001077
-5.545	-0.001077
-5.540	-0.001097
-5.535	-0.001111
-5.530	-0.001125
-5.525	-0.001084
-5.520	-0.001077
-5.515	-0.001091
-5.510	-0.001084
-5.505	-0.001091
-5.500	-0.001084
-5.495	-0.001070
-5.490	-0.001091
-5.485	-0.001056
-5.480	-0.001084
-5.475	-0.001098
-5.470	-0.001070
-5.465	-0.001063
-5.460	-0.001015
-5.455	-0.000898
-5.450	-0.000528
-5.445	0.000077
-5.440	0.000977
-5.435	0.002139
-5.430	0.004032
-5.425	0.006394
-5.420	0.009340
-5.415	0.012931
-5.410	0.016597
-5.405	0.020983
-5.400	0.025873
-5.395	0.030733
-5.390	0.036300
-5.385	0.042689
-5.380	0.048632
-5.375	0.053829
-5.370	0.059046
-5.365	0.064928
-5.360	0.069912
-5.355	0.072274
-5.350	0.071544
-5.345	0.068626
-5.340	0.064641
-5.335	0.060494
-5.330	0.056682
-5.325	0.053404
-5.320	0.050602
-5.315	0.048220
-5.310	0.046168
-5.305	0.044297
-5.300	0.042681
-5.295	0.041171
-5.290	0.039861
-5.285	0.038648
-5.280	0.037527
-5.275	0.036551
-5.270	0.035605
-5.265	0.034826
-5.260	0.034141
-5.255	0.033503
-5.250	0.032871
-5.245	0.032206
-5.240	0.031625
-5.235	0.030990
-5.230	0.030440
-5.225	0.029920
-5.220	0.029442
-5.215	0.028956
-5.210	0.028491
-5.205	0.028024
-5.200	0.027634
-5.195	0.027231
-5.190	0.026801
-5.185	0.026335
-5.180	0.025893
-5.175	0.025417
-5.170	0.025054
-5.165	0.024718
-5.160	0.024373
-5.155	0.024075
-5.150	0.023759
-5.145	0.023455
-5.140	0.023152
-5.135	0.022875
-5.130	0.022660
-5.125	0.022499
-5.120	0.022261
-5.115	0.022092
-5.110	0.021876
-5.105	0.021626
-5.100	0.021425
-5.095	0.021228
-5.090	0.021079
-5.085	0.020913
-5.080	0.020686
-5.075	0.020540
-5.070	0.020439
-5.065	0.020314
-5.060	0.020156
-5.055	0.020059
-5.050	0.019879
-5.045	0.019640
-5.040	0.019422
-5.035	0.019194
-5.030	0.018953
-5.025	0.018753
-5.020	0.018563
-5.015	0.018469
-5.010	0.018319
-5.005	0.018173
-5.000	0.018070
-4.995	0.017925
-4.990	0.017866
-4.985	0.017716
-4.980	0.017471
-4.975	0.017291
-4.970	0.017101
-4.965	0.016903
-4.960	0.016775
-4.955	0.016616
-4.950	0.016512
-4.945	0.016385
-4.940	0.016277
-4.935	0.016174
-4.930	0.016054
-4.925	0.016006
-4.920	0.015968
-4.915	0.015884
-4.910	0.015802
-4.905	0.015709
-4.900	0.015620
-4.895	0.015558
-4.890	0.015525
-4.885	0.015468
-4.880	0.015400
-4.875	0.015327
-4.870	0.015188
-4.865	0.015105
-4.860	0.015065
-4.855	0.015030
-4.850	0.015033
-4.845	0.014998
-4.840	0.014922
-4.835	0.014819
-4.830	0.014704
-4.825	0.014603
-4.820	0.014476
-4.815	0.014365
-4.810	0.014234
-4.805	0.014081
-4.800	0.013945
-4.795	0.013818
-4.790	0.013761
-4.785	0.013700
-4.780	0.013729
-4.775	0.013737
-4.770	0.013651
-4.765	0.013533
-4.760	0.013436
-4.755	0.013342
-4.750	0.013247
-4.745	0.013178
-4.740	0.013131
-4.735	0.013068
-4.730	0.013061
-4.725	0.013034
-4.720	0.013002
-4.715	0.012947
-4.710	0.012924
-4.705	0.012963
-4.700	0.012948
-4.695	0.012867
-4.690	0.012840
-4.685	0.012784
-4.680	0.012708
-4.675	0.012646
-4.670	0.012521
-4.665	0.012399
-4.660	0.012283
-4.655	0.012194
-4.650	0.012112
-4.645	0.011990
-4.640	0.011874
-4.635	0.011750
-4.630	0.011657
-4.625	0.011621
-4.620	0.011581
-4.615	0.011560
-4.610	0.011539
-4.605	0.011564
-4.600	0.011544
-4.595	0.011571
-4.590	0.011539
-4.585	0.011510
-4.580	0.011455
-4.575	0.011359
-4.570	0.011334
-4.565	0.011326
-4.560	0.011360
-4.555	0.011375
-4.550	0.011367
-4.545	0.011297
-4.540	0.011240
-4.535	0.011201
-4.530	0.011172
-4.525	0.011153
-4.520	0.011050
-4.515	0.010941
-4.510	0.010846
-4.505	0.010752
-4.500	0.010644
-4.495	0.010576
-4.490	0.010515
-4.485	0.010498
-4.480	0.010491
-4.475	0.010513
-4.470	0.010496
-4.465	0.010433
-4.460	0.010420
-4.455	0.010360
-4.450	0.010286
-4.445	0.010237
-4.440	0.010203
-4.435	0.010134
-4.430	0.010059
-4.425	0.010060
-4.420	0.009958
-4.415	0.009882
-4.410	0.009875
-4.405	0.009816
-4.400	0.009797
-4.395	0.009806
-4.390	0.009784
-4.385	0.009775
-4.380	0.009756
-4.375	0.009776
-4.370	0.009797
-4.365	0.009826
-4.360	0.009778
-4.355	0.009695
-4.350	0.009600
-4.345	0.009533
-4.340	0.009475
-4.335	0.009401
-4.330	0.009391
-4.325	0.009346
-4.320	0.009384
-4.315	0.009378
-4.310	0.009373
-4.305	0.009299
-4.300	0.009300
-4.295	0.009308
-4.290	0.009241
-4.285	0.009163
-4.280	0.009101
-4.275	0.009015
-4.270	0.008957
-4.265	0.008955
-4.260	0.008848
-4.255	0.008806
-4.250	0.008854
-4.245	0.008849
-4.240	0.008866
-4.235	0.008888
-4.230	0.008834
-4.225	0.008848
-4.220	0.008891
-4.215	0.008912
-4.210	0.008919
-4.205	0.008920
-4.200	0.008881
-4.195	0.008775
-4.190	0.008704
-4.185	0.008642
-4.180	0.008540
-4.175	0.008432
-4.170	0.008331
-4.165	0.008230
-4.160	0.008065
-4.155	0.007845
-4.150	0.007517
-4.145	0.007005
-4.140	0.006229
-4.135	0.005289
-4.130	0.003903
-4.125	0.002017
-4.120	-0.000335
-4.115	-0.003259
-4.110	-0.006735
-4.105	-0.010780
-4.100	-0.015178
-4.095	-0.020051
-4.090	-0.025482
-4.085	-0.031227
-4.080	-0.037209
-4.075	-0.043295
-4.070	-0.049406
-4.065	-0.055414
-4.060	-0.060888
-4.055	-0.065422
-4.050	-0.068709
-4.045	-0.070401
-4.040	-0.070257
-4.035	-0.068355
-4.030	-0.064963
-4.025	-0.060766
-4.020	-0.056523
-4.015	-0.052568
-4.010	-0.049156
-4.005	-0.046291
-4.000	-0.043867
-3.995	-0.041785
-3.990	-0.039980
-3.985	-0.038355
-3.980	-0.036862
-3.975	-0.035510
-3.970	-0.034326
-3.965	-0.033280
-3.960	-0.032275
-3.955	-0.031413
-3.950	-0.030599
-3.945	-0.029874
-3.940	-0.029170
-3.935	-0.028489
-3.930	-0.027901
-3.925	-0.027333
-3.920	-0.026810
-3.915	-0.026334
-3.910	-0.025875
-3.905	-0.025409
-3.900	-0.024957
-3.895	-0.024468
-3.890	-0.024028
-3.885	-0.023650
-3.880	-0.023293
-3.875	-0.022896
-3.870	-0.022526
-3.865	-0.022169
-3.860	-0.021800
-3.855	-0.021490
-3.850	-0.021101
-3.845	-0.020734
-3.840	-0.020449
-3.835	-0.020147
-3.830	-0.019824
-3.825	-0.019531
-3.820	-0.019261
-3.815	-0.018991
-3.810	-0.018756
-3.805	-0.018447
-3.800	-0.018222
-3.795	-0.018004
-3.790	-0.017751
-3.785	-0.017485
-3.780	-0.017238
-3.775	-0.017013
-3.770	-0.016809
-3.765	-0.016648
-3.760	-0.016450
-3.755	-0.016250
-3.750	-0.016055
-3.745	-0.015871
-3.740	-0.015672
-3.735	-0.015489
-3.730	-0.015308
-3.725	-0.015158
-3.720	-0.014957
-3.715	-0.014806
-3.710	-0.014642
-3.705	-0.014431
-3.700	-0.014324
-3.695	-0.014153
-3.690	-0.014073
-3.685	-0.013915
-3.680	-0.013795
-3.675	-0.013694
-3.670	-0.013531
-3.665	-0.013406
-3.660	-0.013286
-3.655	-0.013171
-3.650	-0.013027
-3.645	-0.012912
-3.640	-0.012802
-3.635	-0.012708
-3.630	-0.012561
-3.625	-0.012429
-3.620	-0.012349
-3.615	-0.012180
-3.610	-0.012024
-3.605	-0.011869
-3.600	-0.011686
-3.595	-0.011515
-3.590	-0.011302
-3.585	-0.011089
-3.580	-0.010884
-3.575	-0.010665
-3.570	-0.010343
-3.565	-0.010029
-3.560	-0.009720
-3.555	-0.009313
-3.550	-0.008883
-3.545	-0.008418
-3.540	-0.007920
-3.535	-0.007400
-3.530	-0.006840
-3.525	-0.006269
-3.520	-0.005686
-3.515	-0.005049
-3.510	-0.004392
-3.505	-0.003755
-3.500	-0.003158
-3.495	-0.002582
-3.490	-0.001971
-3.485	-0.001449
-3.480	-0.000955
-3.475	-0.000522
-3.470	-0.000131
-3.465	0.000183
-3.460	0.000374
-3.455	0.000573
-3.450	0.000669
-3.445	0.000703
-3.440	0.000717
-3.435	0.000772
-3.430	0.000765
-3.425	0.000757
-3.420	0.000812
-3.415	0.000920
-3.410	0.001140
-3.405	0.001463
-3.400	0.001828
-3.395	0.002294
-3.390	0.002801
-3.385	0.003432
-3.380	0.004235
-3.375	0.005170
-3.370	0.006093
-3.365	0.007101
-3.360	0.008118
-3.355	0.009080
-3.350	0.010029
-3.345	0.011003
-3.340	0.011754
-3.335	0.012131
-3.330	0.012039
-3.325	0.011674
-3.320	0.011202
-3.315	0.010672
-3.310	0.010248
-3.305	0.009912
-3.300	0.009674
-3.295	0.009483
-3.290	0.009314
-3.285	0.009211
-3.280	0.009116
-3.275	0.008996
-3.270	0.008935
-3.265	0.008901
-3.260	0.008863
-3.255	0.008848
-3.250	0.008874
-3.245	0.008900
-3.240	0.008928
-3.235	0.008949
-3.230	0.008983
-3.225	0.009025
-3.220	0.009107
-3.215	0.009115
-3.210	0.009150
-3.205	0.009235
-3.200	0.009295
-3.195	0.009394
-3.190	0.009537
-3.185	0.009703
-3.180	0.009869
-3.175	0.010027
-3.170	0.010157
-3.165	0.010299
-3.160	0.010381
-3.155	0.010495
-3.150	0.010572
-3.145	0.010662
-3.140	0.010722
-3.135	0.010764
-3.130	0.010791
-3.125	0.010719
-3.120	0.010808
-3.115	0.010920
-3.110	0.011009
-3.105	0.011091
-3.100	0.011203
-3.095	0.011274
-3.090	0.011337
-3.085	0.011378
-3.080	0.011421
-3.075	0.011518
-3.070	0.011589
-3.065	0.011650
-3.060	0.011823
-3.055	0.011891
-3.050	0.011955
-3.045	0.012011
-3.040	0.012163
-3.035	0.012211
-3.030	0.012265
-3.025	0.012304
-3.020	0.012361
-3.015	0.012428
-3.010	0.012522
-3.005	0.012608
-3.000	0.012700
-2.995	0.012759
-2.990	0.012822
-2.985	0.012894
-2.980	0.013017
-2.975	0.013177
-2.970	0.013254
-2.965	0.013339
-2.960	0.013370
-2.955	0.013399
-2.950	0.013476
-2.945	0.013528
-2.940	0.013617
-2.935	0.013676
-2.930	0.013789
-2.925	0.013933
-2.920	0.013987
-2.915	0.014027
-2.910	0.014127
-2.905	0.014285
-2.900	0.014339
-2.895	0.014351
-2.890	0.014407
-2.885	0.014550
-2.880	0.014616
-2.875	0.014658
-2.870	0.014771
-2.865	0.014901
-2.860	0.015036
-2.855	0.015226
-2.850	0.015385
-2.845	0.015519
-2.840	0.015565
-2.835	0.015585
-2.830	0.015591
-2.825	0.015665
-2.820	0.015708
-2.815	0.015701
-2.810	0.015635
-2.805	0.015553
-2.800	0.015538
-2.795	0.015516
-2.790	0.015548
-2.785	0.015498
-2.780	0.015498
-2.775	0.015549
-2.770	0.015591
-2.765	0.015640
-2.760	0.015808
-2.755	0.015920
-2.750	0.016020
-2.745	0.016143
-2.740	0.016215
-2.735	0.016254
-2.730	0.016334
-2.725	0.016446
-2.720	0.016551
-2.715	0.016671
-2.710	0.016815
-2.705	0.016938
-2.700	0.017052
-2.695	0.017083
-2.690	0.017170
-2.685	0.017253
-2.680	0.017231
-2.675	0.017191
-2.670	0.017197
-2.665	0.017302
-2.660	0.017440
-2.655	0.017531
-2.650	0.017619
-2.645	0.017708
-2.640	0.017799
-2.635	0.017901
-2.630	0.017994
-2.625	0.018044
-2.620	0.018026
-2.615	0.018008
-2.610	0.018030
-2.605	0.018044
-2.600	0.018060
-2.595	0.018134
-2.590	0.018255
-2.585	0.018319
-2.580	0.018390
-2.575	0.018342
-2.570	0.018338
-2.565	0.018272
-2.560	0.018243
-2.555	0.018274
-2.550	0.018303
-2.545	0.018385
-2.540	0.018480
-2.535	0.018572
-2.530	0.018606
-2.525	0.018585
-2.520	0.018518
-2.515	0.018532
-2.510	0.018520
-2.505	0.018553
-2.500	0.018573
-2.495	0.018541
-2.490	0.018532
-2.485	0.018637
-2.480	0.018643
-2.475	0.018753
-2.470	0.018835
-2.465	0.018959
-2.460	0.019009
-2.455	0.019083
-2.450	0.019098
-2.445	0.019128
-2.440	0.019085
-2.435	0.019132
-2.430	0.019214
-2.425	0.019214
-2.420	0.019213
-2.415	0.019201
-2.410	0.019261
-2.405	0.019223
-2.400	0.019185
-2.395	0.019156
-2.390	0.019119
-2.385	0.019111
-2.380	0.019178
-2.375	0.019237
-2.370	0.019296
-2.365	0.019369
-2.360	0.019507
-2.355	0.019605
-2.350	0.019682
-2.345	0.019739
-2.340	0.019807
-2.335	0.019897
-2.330	0.019975
-2.325	0.020096
-2.320	0.020169
-2.315	0.020183
-2.310	0.020158
-2.305	0.020116
-2.300	0.020120
-2.295	0.020123
-2.290	0.020066
-2.285	0.019986
-2.280	0.019859
-2.275	0.019751
-2.270	0.019669
-2.265	0.019569
-2.260	0.019488
-2.255	0.019426
-2.250	0.019372
-2.245	0.019376
-2.240	0.019354
-2.235	0.019341
-2.230	0.019338
-2.225	0.019369
-2.220	0.019354
-2.215	0.019401
-2.210	0.019492
-2.205	0.019642
-2.200	0.019758
-2.195	0.019854
-2.190	0.019969
-2.185	0.019977
-2.180	0.019965
-2.175	0.019969
-2.170	0.019943
-2.165	0.019970
-2.160	0.019915
-2.155	0.019936
-2.150	0.019902
-2.145	0.019856
-2.140	0.019830
-2.135	0.019731
-2.130	0.019685
-2.125	0.019612
-2.120	0.019571
-2.115	0.019538
-2.110	0.019552
-2.105	0.019574
-2.100	0.019550
-2.095	0.019626
-2.090	0.019740
-2.085	0.019820
-2.080	0.019830
-2.075	0.019855
-2.070	0.019925
-2.065	0.019959
-2.060	0.020053
-2.055	0.020110
-2.050	0.020110
-2.045	0.020160
-2.040	0.020146
-2.035	0.020115
-2.030	0.020078
-2.025	0.020009
-2.020	0.019952
-2.015	0.019918
-2.010	0.019960
-2.005	0.019980
-2.000	0.020025
-1.995	0.020065
-1.990	0.020054
-1.985	0.020026
-1.980	0.020056
-1.975	0.020058
-1.970	0.020051
-1.965	0.020027
-1.960	0.019930
-1.955	0.019823
-1.950	0.019707
-1.945	0.019557
-1.940	0.019458
-1.935	0.019360
-1.930	0.019357
-1.925	0.019303
-1.920	0.019317
-1.915	0.019255
-1.910	0.019253
-1.905	0.019316
-1.900	0.019357
-1.895	0.019371
-1.890	0.019337
-1.885	0.019331
-1.880	0.019330
-1.875	0.019364
-1.870	0.019362
-1.865	0.019356
-1.860	0.019305
-1.855	0.019281
-1.850	0.019240
-1.845	0.019230
-1.840	0.019286
-1.835	0.019286
-1.830	0.019302
-1.825	0.019353
-1.820	0.019344
-1.815	0.019266
-1.810	0.019191
-1.805	0.019160
-1.800	0.019112
-1.795	0.019090
-1.790	0.019099
-1.785	0.019051
-1.780	0.019019
-1.775	0.019019
-1.770	0.019019
-1.765	0.018991
-1.760	0.018920
-1.755	0.018851
-1.750	0.018793
-1.745	0.018743
-1.740	0.018619
-1.735	0.018593
-1.730	0.018622
-1.725	0.018597
-1.720	0.018603
-1.715	0.018582
-1.710	0.018501
-1.705	0.018459
-1.700	0.018406
-1.695	0.018333
-1.690	0.018301
-1.685	0.018226
-1.680	0.018211
-1.675	0.018150
-1.670	0.018093
-1.665	0.018087
-1.660	0.018164
-1.655	0.018242
-1.650	0.018330
-1.645	0.018419
-1.640	0.018511
-1.635	0.018589
-1.630	0.018618
-1.625	0.018627
-1.620	0.018628
-1.615	0.018589
-1.610	0.018507
-1.605	0.018456
-1.600	0.018405
-1.595	0.018314
-1.590	0.018212
-1.585	0.018162
-1.580	0.018073
-1.575	0.018043
-1.570	0.017959
-1.565	0.017910
-1.560	0.017873
-1.555	0.017755
-1.550	0.017761
-1.545	0.017728
-1.540	0.017688
-1.535	0.017618
-1.530	0.017586
-1.525	0.017543
-1.520	0.017518
-1.515	0.017487
-1.510	0.017379
-1.505	0.017313
-1.500	0.017235
-1.495	0.017152
-1.490	0.017069
-1.485	0.016931
-1.480	0.016867
-1.475	0.016769
-1.470	0.016656
-1.465	0.016550
-1.460	0.016513
-1.455	0.016435
-1.450	0.016372
-1.445	0.016335
-1.440	0.016371
-1.435	0.016400
-1.430	0.016474
-1.425	0.016521
-1.420	0.016560
-1.415	0.016572
-1.410	0.016613
-1.405	0.016650
-1.400	0.016629
-1.395	0.016561
-1.390	0.016516
-1.385	0.016402
-1.380	0.016274
-1.375	0.016138
-1.370	0.016065
-1.365	0.015943
-1.360	0.015866
-1.355	0.015790
-1.350	0.015763
-1.345	0.015745
-1.340	0.015663
-1.335	0.015623
-1.330	0.015632
-1.325	0.015553
-1.320	0.015533
-1.315	0.015520
-1.310	0.015534
-1.305	0.015439
-1.300	0.015445
-1.295	0.015367
-1.290	0.015293
-1.285	0.015233
-1.280	0.015166
-1.275	0.015056
-1.270	0.014949
-1.265	0.014846
-1.260	0.014722
-1.255	0.014634
-1.250	0.014512
-1.245	0.014417
-1.240	0.014355
-1.235	0.014171
-1.230	0.014138
-1.225	0.014115
-1.220	0.014106
-1.215	0.014105
-1.210	0.014171
-1.205	0.014289
-1.200	0.014356
-1.195	0.014435
-1.190	0.014493
-1.185	0.014632
-1.180	0.014708
-1.175	0.014793
-1.170	0.014776
-1.165	0.014798
-1.160	0.014793
-1.155	0.014717
-1.150	0.014652
-1.145	0.014586
-1.140	0.014503
-1.135	0.014406
-1.130	0.014285
-1.125	0.014160
-1.120	0.014072
-1.115	0.013970
-1.110	0.013870
-1.105	0.013809
-1.100	0.013703
-1.095	0.013628
-1.090	0.013541
-1.085	0.013417
-1.080	0.013350
-1.075	0.013250
-1.070	0.013170
-1.065	0.013074
-1.060	0.012963
-1.055	0.012864
-1.050	0.012776
-1.045	0.012707
-1.040	0.012638
-1.035	0.012625
-1.030	0.012592
-1.025	0.012570
-1.020	0.012518
-1.015	0.012517
-1.010	0.012494
-1.005	0.012464
-1.000	0.012449
-0.995	0.012432
-0.990	0.012398
-0.985	0.012382
-0.980	0.012385
-0.975	0.012328
-0.970	0.012288
-0.965	0.012224
-0.960	0.012157
-0.955	0.012074
-0.950	0.011956
-0.945	0.011901
-0.940	0.011790
-0.935	0.011714
-0.930	0.011635
-0.925	0.011567
-0.920	0.011581
-0.915	0.011623
-0.910	0.011596
-0.905	0.011576
-0.900	0.011624
-0.895	0.011643
-0.890	0.011690
-0.885	0.011739
-0.880	0.011783
-0.875	0.011829
-0.870	0.011845
-0.865	0.011848
-0.860	0.011868
-0.855	0.011903
-0.850	0.011876
-0.845	0.011815
-0.840	0.011732
-0.835	0.011636
-0.830	0.011540
-0.825	0.011436
-0.820	0.011326
-0.815	0.011195
-0.810	0.011041
-0.805	0.010857
-0.800	0.010683
-0.795	0.010515
-0.790	0.010350
-0.785	0.010178
-0.780	0.009988
-0.775	0.009838
-0.770	0.009717
-0.765	0.009565
-0.760	0.009409
-0.755	0.009291
-0.750	0.009139
-0.745	0.009004
-0.740	0.008924
-0.735	0.008819
-0.730	0.008733
-0.725	0.008657
-0.720	0.008588
-0.715	0.008562
-0.710	0.008522
-0.705	0.008489
-0.700	0.008471
-0.695	0.008431
-0.690	0.008419
-0.685	0.008431
-0.680	0.008425
-0.675	0.008434
-0.670	0.008409
-0.665	0.008425
-0.660	0.008418
-0.655	0.008454
-0.650	0.008384
-0.645	0.008404
-0.640	0.008433
-0.635	0.008371
-0.630	0.008323
-0.625	0.008267
-0.620	0.008258
-0.615	0.008203
-0.610	0.008213
-0.605	0.008151
-0.600	0.008052
-0.595	0.007974
-0.590	0.007865
-0.585	0.007804
-0.580	0.007749
-0.575	0.007681
-0.570	0.007607
-0.565	0.007517
-0.560	0.007443
-0.555	0.007354
-0.550	0.007313
-0.545	0.007189
-0.540	0.007150
-0.535	0.007080
-0.530	0.007042
-0.525	0.006944
-0.520	0.006848
-0.515	0.006807
-0.510	0.006700
-0.505	0.006651
-0.500	0.006596
-0.495	0.006539
-0.490	0.006510
-0.485	0.006446
-0.480	0.006344
-0.475	0.006270
-0.470	0.006181
-0.465	0.006130
-0.460	0.006088
-0.455	0.006059
-0.450	0.005998
-0.445	0.005949
-0.440	0.005903
-0.435	0.005835
-0.430	0.005782
-0.425	0.005700
-0.420	0.005681
-0.415	0.005578
-0.410	0.005526
-0.405	0.005472
-0.400	0.005448
-0.395	0.005404
-0.390	0.005381
-0.385	0.005285
-0.380	0.005246
-0.375	0.005179
-0.370	0.005084
-0.365	0.005037
-0.360	0.004949
-0.355	0.004908
-0.350	0.004880
-0.345	0.004839
-0.340	0.004786
-0.335	0.004710
-0.330	0.004638
-0.325	0.004575
-0.320	0.004533
-0.315	0.004492
-0.310	0.004410
-0.305	0.004375
-0.300	0.004320
-0.295	0.004239
-0.290	0.004144
-0.285	0.004102
-0.280	0.004034
-0.275	0.003994
-0.270	0.003934
-0.265	0.003864
-0.260	0.003816
-0.255	0.003706
-0.250	0.003542
-0.245	0.003473
-0.240	0.003459
-0.235	0.003376
-0.230	0.003349
-0.225	0.003300
-0.220	0.003218
-0.215	0.003156
-0.210	0.003034
-0.205	0.002953
-0.200	0.002774
-0.195	0.002698
-0.190	0.002677
-0.185	0.002622
-0.180	0.002573
-0.175	0.002492
-0.170	0.002411
-0.165	0.002308
-0.160	0.002213
-0.155	0.002170
-0.150	0.002163
-0.145	0.002109
-0.140	0.001946
-0.135	0.001884
-0.130	0.001827
-0.125	0.001793
-0.120	0.001730
-0.115	0.001730
-0.110	0.001717
-0.105	0.001744
-0.100	0.001771
-0.095	0.001840
-0.090	0.001957
-0.085	0.002115
-0.080	0.002239
-0.075	0.002412
-0.070	0.002672
-0.065	0.002853
-0.060	0.002873
-0.055	0.002783
-0.050	0.002510
-0.045	0.002189
-0.040	0.001833
-0.035	0.001374
-0.030	0.000778
-0.025	0.000071
-0.020	-0.000683
-0.015	-0.001554
-0.010	-0.002501
-0.005	-0.003448
0.000	-0.004382
0.005	-0.005077
0.010	-0.005402
0.015	-0.005255
0.020	-0.004750
0.025	-0.003886
0.030	-0.002727
0.035	-0.001348
0.040	0.000256
0.045	0.001936
0.050	0.003577
0.055	0.004899
0.060	0.005699
0.065	0.005905
0.070	0.005629
0.075	0.004832
0.080	0.003571
0.085	0.002177
0.090	0.000727
0.095	-0.000661
0.100	-0.001959
0.105	-0.002933
0.110	-0.003591
0.115	-0.003900
0.120	-0.003846
0.125	-0.003627
0.130	-0.003284
0.135	-0.002865
0.140	-0.002494
0.145	-0.002185
0.150	-0.001918
0.155	-0.001774
0.160	-0.001774
0.165	-0.001850
0.170	-0.001939
0.175	-0.001973
0.180	-0.001953
0.185	-0.001912
0.190	-0.002015
0.195	-0.002145
0.200	-0.002282
0.205	-0.002385
0.210	-0.002461
0.215	-0.002536
0.220	-0.002626
0.225	-0.002722
0.230	-0.002853
0.235	-0.002963
0.240	-0.003025
0.245	-0.003121
0.250	-0.003203
0.255	-0.003299
0.260	-0.003375
0.265	-0.003478
0.270	-0.003607
0.275	-0.003730
0.280	-0.003804
0.285	-0.003853
0.290	-0.003908
0.295	-0.003990
0.300	-0.004066
0.305	-0.004161
0.310	-0.004141
0.315	-0.004224
0.320	-0.004267
0.325	-0.004322
0.330	-0.004356
0.335	-0.004424
0.340	-0.004439
0.345	-0.004481
0.350	-0.004517
0.355	-0.004579
0.360	-0.004580
0.365	-0.004595
0.370	-0.004686
0.375	-0.004727
0.380	-0.004796
0.385	-0.004879
0.390	-0.004956
0.395	-0.004984
0.400	-0.005059
0.405	-0.005154
0.410	-0.005187
0.415	-0.005255
0.420	-0.005296
0.425	-0.005338
0.430	-0.005414
0.435	-0.005476
0.440	-0.005518
0.445	-0.005552
0.450	-0.005642
0.455	-0.005684
0.460	-0.005739
0.465	-0.005799
0.470	-0.005830
0.475	-0.005898
0.480	-0.005932
0.485	-0.005965
0.490	-0.005986
0.495	-0.006020
0.500	-0.006067
0.505	-0.006087
0.510	-0.006126
0.515	-0.006166
0.520	-0.006199
0.525	-0.006221
0.530	-0.006269
0.535	-0.006349
0.540	-0.006389
0.545	-0.006430
0.550	-0.006430
0.555	-0.006471
0.560	-0.006560
0.565	-0.006574
0.570	-0.006690
0.575	-0.006772
0.580	-0.006847
0.585	-0.006977
0.590	-0.007082
0.595	-0.007178
0.600	-0.007286
0.605	-0.007387
0.610	-0.007497
0.615	-0.007635
0.620	-0.007807
0.625	-0.007943
0.630	-0.008059
0.635	-0.008203
0.640	-0.008333
0.645	-0.008448
0.650	-0.008572
0.655	-0.008711
0.660	-0.008836
0.665	-0.008973
0.670	-0.009052
0.675	-0.009142
0.680	-0.009210
0.685	-0.009327
0.690	-0.009371
0.695	-0.009420
0.700	-0.009469
0.705	-0.009484
0.710	-0.009471
0.715	-0.009493
0.720	-0.009478
0.725	-0.009493
0.730	-0.009481
0.735	-0.009402
0.740	-0.009373
0.745	-0.009347
0.750	-0.009321
0.755	-0.009266
0.760	-0.009267
0.765	-0.009213
0.770	-0.009205
0.775	-0.009164
0.780	-0.009220
0.785	-0.009262
0.790	-0.009305
0.795	-0.009361
0.800	-0.009428
0.805	-0.009571
0.810	-0.009646
0.815	-0.009757
0.820	-0.009880
0.825	-0.010017
0.830	-0.010107
0.835	-0.010272
0.840	-0.010346
0.845	-0.010443
0.850	-0.010589
0.855	-0.010647
0.860	-0.010705
0.865	-0.010753
0.870	-0.010807
0.875	-0.010868
0.880	-0.010923
0.885	-0.010942
0.890	-0.010976
0.895	-0.011023
0.900	-0.011023
0.905	-0.011050
0.910	-0.011075
0.915	-0.011135
0.920	-0.011170
0.925	-0.011233
0.930	-0.011300
0.935	-0.011421
0.940	-0.011498
0.945	-0.011598
0.950	-0.011684
0.955	-0.011727
0.960	-0.011832
0.965	-0.011936
0.970	-0.012025
0.975	-0.012108
0.980	-0.012204
0.985	-0.012361
0.990	-0.012486
0.995	-0.012609
1.000	-0.012630
1.005	-0.012771
1.010	-0.012827
1.015	-0.012957
1.020	-0.013077
1.025	-0.013084
1.030	-0.013177
1.035	-0.013246
1.040	-0.013351
1.045	-0.013424
1.050	-0.013435
1.055	-0.013458
1.060	-0.013508
1.065	-0.013506
1.070	-0.013462
1.075	-0.013414
1.080	-0.013355
1.085	-0.013350
1.090	-0.013304
1.095	-0.013249
1.100	-0.013223
1.105	-0.013170
1.110	-0.013177
1.115	-0.013185
1.120	-0.013209
1.125	-0.013273
1.130	-0.013293
1.135	-0.013391
1.140	-0.013488
1.145	-0.013606
1.150	-0.013729
1.155	-0.013832
1.160	-0.013964
1.165	-0.014115
1.170	-0.014225
1.175	-0.014270
1.180	-0.014358
1.185	-0.014419
1.190	-0.014448
1.195	-0.014482
1.200	-0.014459
1.205	-0.014456
1.210	-0.014460
1.215	-0.014508
1.220	-0.014514
1.225	-0.014549
1.230	-0.014590
1.235	-0.014623
1.240	-0.014663
1.245	-0.014688
1.250	-0.014756
1.255	-0.014787
1.260	-0.014871
1.265	-0.014915
1.270	-0.014930
1.275	-0.015025
1.280	-0.015072
1.285	-0.015167
1.290	-0.015248
1.295	-0.015308
1.300	-0.015393
1.305	-0.015488
1.310	-0.015571
1.315	-0.015672
1.320	-0.015779
1.325	-0.015836
1.330	-0.015900
1.335	-0.015942
1.340	-0.015990
1.345	-0.016004
1.350	-0.016015
1.355	-0.015955
1.360	-0.015819
1.365	-0.015757
1.370	-0.015665
1.375	-0.015662
1.380	-0.015606
1.385	-0.015587
1.390	-0.015591
1.395	-0.015673
1.400	-0.015687
1.405	-0.015780
1.410	-0.015873
1.415	-0.015978
1.420	-0.016042
1.425	-0.016164
1.430	-0.016220
1.435	-0.016331
1.440	-0.016392
1.445	-0.016424
1.450	-0.016427
1.455	-0.016444
1.460	-0.016455
1.465	-0.016473
1.470	-0.016417
1.475	-0.016439
1.480	-0.016496
1.485	-0.016565
1.490	-0.016599
1.495	-0.016685
1.500	-0.016799
1.505	-0.016893
1.510	-0.016976
1.515	-0.017076
1.520	-0.017270
1.525	-0.017422
1.530	-0.017536
1.535	-0.017646
1.540	-0.017756
1.545	-0.017843
1.550	-0.017938
1.555	-0.018029
1.560	-0.018093
1.565	-0.018151
1.570	-0.018156
1.575	-0.018170
1.580	-0.018143
1.585	-0.018139
1.590	-0.018126
1.595	-0.018151
1.600	-0.018118
1.605	-0.018107
1.610	-0.018121
1.615	-0.018120
1.620	-0.018106
1.625	-0.018111
1.630	-0.018133
1.635	-0.018157
1.640	-0.018206
1.645	-0.018291
1.650	-0.018268
1.655	-0.018293
1.660	-0.018255
1.665	-0.018268
1.670	-0.018219
1.675	-0.018154
1.680	-0.018170
1.685	-0.018090
1.690	-0.018118
1.695	-0.018125
1.700	-0.018187
1.705	-0.018189
1.710	-0.018250
1.715	-0.018284
1.720	-0.018348
1.725	-0.018448
1.730	-0.018508
1.735	-0.018618
1.740	-0.018760
1.745	-0.018825
1.750	-0.018953
1.755	-0.019060
1.760	-0.019155
1.765	-0.019205
1.770	-0.019236
1.775	-0.019319
1.780	-0.019339
1.785	-0.019326
1.790	-0.019284
1.795	-0.019226
1.800	-0.019159
1.805	-0.019140
1.810	-0.019129
1.815	-0.019045
1.820	-0.018993
1.825	-0.018962
1.830	-0.018933
1.835	-0.018926
1.840	-0.018924
1.845	-0.018924
1.850	-0.018918
1.855	-0.018920
1.860	-0.018852
1.865	-0.018848
1.870	-0.018843
1.875	-0.018868
1.880	-0.018938
1.885	-0.018991
1.890	-0.019088
1.895	-0.019204
1.900	-0.019317
1.905	-0.019444
1.910	-0.019590
1.915	-0.019702
1.920	-0.019748
1.925	-0.019807
1.930	-0.019855
1.935	-0.019887
1.940	-0.019884
1.945	-0.019905
1.950	-0.019967
1.955	-0.019975
1.960	-0.019964
1.965	-0.019875
1.970	-0.019872
1.975	-0.019830
1.980	-0.019782
1.985	-0.019798
1.990	-0.019727
1.995	-0.019714
2.000	-0.019641
2.005	-0.019594
2.010	-0.019544
2.015	-0.019610
2.020	-0.019636
2.025	-0.019640
2.030	-0.019647
2.035	-0.019617
2.040	-0.019610
2.045	-0.019634
2.050	-0.019645
2.055	-0.019670
2.060	-0.019712
2.065	-0.019839
2.070	-0.019940
2.075	-0.020067
2.080	-0.020221
2.085	-0.020396
2.090	-0.020515
2.095	-0.020533
2.100	-0.020507
2.105	-0.020371
2.110	-0.020260
2.115	-0.020255
2.120	-0.020158
2.125	-0.020053
2.130	-0.019901
2.135	-0.019811
2.140	-0.019657
2.145	-0.019552
2.150	-0.019330
2.155	-0.019196
2.160	-0.019177
2.165	-0.019234
2.170	-0.019313
2.175	-0.019366
2.180	-0.019392
2.185	-0.019383
2.190	-0.019449
2.195	-0.019487
2.200	-0.019544
2.205	-0.019588
2.210	-0.019631
2.215	-0.019697
2.220	-0.019788
2.225	-0.019885
2.230	-0.019957
2.235	-0.019935
2.240	-0.019884
2.245	-0.019840
2.250	-0.019802
2.255	-0.019800
2.260	-0.019790
2.265	-0.019810
2.270	-0.019743
2.275	-0.019642
2.280	-0.019557
2.285	-0.019531
2.290	-0.019542
2.295	-0.019583
2.300	-0.019490
2.305	-0.019508
2.310	-0.019507
2.315	-0.019565
2.320	-0.019609
2.325	-0.019582
2.330	-0.019574
2.335	-0.019601
2.340	-0.019627
2.345	-0.019724
2.350	-0.019749
2.355	-0.019814
2.360	-0.019869
2.365	-0.019926
2.370	-0.019924
2.375	-0.019897
2.380	-0.019909
2.385	-0.019854
2.390	-0.019820
2.395	-0.019835
2.400	-0.019750
2.405	-0.019631
2.410	-0.019523
2.415	-0.019411
2.420	-0.019315
2.425	-0.019236
2.430	-0.019138
2.435	-0.019012
2.440	-0.018865
2.445	-0.018798
2.450	-0.018760
2.455	-0.018765
2.460	-0.018760
2.465	-0.018774
2.470	-0.018720
2.475	-0.018708
2.480	-0.018708
2.485	-0.018711
2.490	-0.018713
2.495	-0.018779
2.500	-0.018883
2.505	-0.018967
2.510	-0.018996
2.515	-0.018953
2.520	-0.018921
2.525	-0.018868
2.530	-0.018817
2.535	-0.018808
2.540	-0.018785
2.545	-0.018744
2.550	-0.018700
2.555	-0.018608
2.560	-0.018503
2.565	-0.018430
2.570	-0.018325
2.575	-0.018264
2.580	-0.018198
2.585	-0.018115
2.590	-0.018033
2.595	-0.017966
2.600	-0.017936
2.605	-0.017933
2.610	-0.017890
2.615	-0.017984
2.620	-0.018024
2.625	-0.018021
2.630	-0.017977
2.635	-0.017986
2.640	-0.018104
2.645	-0.018089
2.650	-0.018057
2.655	-0.018036
2.660	-0.017928
2.665	-0.017816
2.670	-0.017692
2.675	-0.017583
2.680	-0.017565
2.685	-0.017522
2.690	-0.017426
2.695	-0.017280
2.700	-0.017161
2.705	-0.017063
2.710	-0.016887
2.715	-0.016681
2.720	-0.016641
2.725	-0.016635
2.730	-0.016594
2.735	-0.016552
2.740	-0.016513
2.745	-0.016475
2.750	-0.016392
2.755	-0.016358
2.760	-0.016252
2.765	-0.016110
2.770	-0.015971
2.775	-0.015899
2.780	-0.015776
2.785	-0.015707
2.790	-0.015666
2.795	-0.015685
2.800	-0.015662
2.805	-0.015665
2.810	-0.015592
2.815	-0.015571
2.820	-0.015535
2.825	-0.015462
2.830	-0.015427
2.835	-0.015387
2.840	-0.015471
2.845	-0.015455
2.850	-0.015374
2.855	-0.015338
2.860	-0.015368
2.865	-0.015330
2.870	-0.015241
2.875	-0.015193
2.880	-0.015091
2.885	-0.014995
2.890	-0.014860
2.895	-0.014728
2.900	-0.014589
2.905	-0.014496
2.910	-0.014370
2.915	-0.014282
2.920	-0.014183
2.925	-0.014103
2.930	-0.013993
2.935	-0.013879
2.940	-0.013760
2.945	-0.013673
2.950	-0.013654
2.955	-0.013634
2.960	-0.013493
2.965	-0.013363
2.970	-0.013306
2.975	-0.013275
2.980	-0.013060
2.985	-0.012952
2.990	-0.012880
2.995	-0.012832
3.000	-0.012850
3.005	-0.012845
3.010	-0.012847
3.015	-0.012820
3.020	-0.012713
3.025	-0.012588
3.030	-0.012455
3.035	-0.012335
3.040	-0.012170
3.045	-0.012065
3.050	-0.011977
3.055	-0.011958
3.060	-0.011892
3.065	-0.011765
3.070	-0.011703
3.075	-0.011635
3.080	-0.011588
3.085	-0.011512
3.090	-0.011423
3.095	-0.011369
3.100	-0.011321
3.105	-0.011257
3.110	-0.011195
3.115	-0.011099
3.120	-0.010994
3.125	-0.010881
3.130	-0.010824
3.135	-0.010753
3.140	-0.010697
3.145	-0.010601
3.150	-0.010546
3.155	-0.010491
3.160	-0.010368
3.165	-0.010265
3.170	-0.010195
3.175	-0.010107
3.180	-0.010004
3.185	-0.009888
3.190	-0.009783
3.195	-0.009712
3.200	-0.009593
3.205	-0.009537
3.210	-0.009426
3.215	-0.009307
3.220	-0.009154
3.225	-0.008977
3.230	-0.008883
3.235	-0.008885
3.240	-0.008887
3.245	-0.008806
3.250	-0.008766
3.255	-0.008725
3.260	-0.008744
3.265	-0.008748
3.270	-0.008790
3.275	-0.008824
3.280	-0.008812
3.285	-0.008778
3.290	-0.008842
3.295	-0.009008
3.300	-0.009139
3.305	-0.009322
3.310	-0.009623
3.315	-0.009870
3.320	-0.010101
3.325	-0.010301
3.330	-0.010536
3.335	-0.010723
3.340	-0.010752
3.345	-0.010730
3.350	-0.010622
3.355	-0.010428
3.360	-0.010128
3.365	-0.009797
3.370	-0.009196
3.375	-0.008528
3.380	-0.007739
3.385	-0.006842
3.390	-0.005846
3.395	-0.004515
3.400	-0.003169
3.405	-0.001967
3.410	-0.001068
3.415	-0.000560
3.420	-0.000313
3.425	-0.000176
3.430	-0.000183
3.435	-0.000279
3.440	-0.000355
3.445	-0.000396
3.450	-0.000465
3.455	-0.000485
3.460	-0.000478
3.465	-0.000390
3.470	-0.000274
3.475	-0.000054
3.480	0.000254
3.485	0.000625
3.490	0.001097
3.495	0.001584
3.500	0.002099
3.505	0.002640
3.510	0.003215
3.515	0.003825
3.520	0.004532
3.525	0.005150
3.530	0.005758
3.535	0.006415
3.540	0.007045
3.545	0.007620
3.550	0.008194
3.555	0.008708
3.560	0.009228
3.565	0.009627
3.570	0.010059
3.575	0.010416
3.580	0.010707
3.585	0.010998
3.590	0.011261
3.595	0.011472
3.600	0.011682
3.605	0.011847
3.610	0.012020
3.615	0.012151
3.620	0.012287
3.625	0.012394
3.630	0.012527
3.635	0.012662
3.640	0.012794
3.645	0.012911
3.650	0.013058
3.655	0.013203
3.660	0.013312
3.665	0.013456
3.670	0.013567
3.675	0.013700
3.680	0.013826
3.685	0.013922
3.690	0.014031
3.695	0.014148
3.700	0.014299
3.705	0.014488
3.710	0.014692
3.715	0.014848
3.720	0.014959
3.725	0.015108
3.730	0.015266
3.735	0.015429
3.740	0.015559
3.745	0.015777
3.750	0.015942
3.755	0.016160
3.760	0.016338
3.765	0.016563
3.770	0.016765
3.775	0.016984
3.780	0.017218
3.785	0.017454
3.790	0.017683
3.795	0.017917
3.800	0.018159
3.805	0.018377
3.810	0.018645
3.815	0.018881
3.820	0.019160
3.825	0.019454
3.830	0.019748
3.835	0.020055
3.840	0.020396
3.845	0.020676
3.850	0.021021
3.855	0.021342
3.860	0.021723
3.865	0.021992
3.870	0.022350
3.875	0.022725
3.880	0.023092
3.885	0.023513
3.890	0.023902
3.895	0.024367
3.900	0.024752
3.905	0.025222
3.910	0.025705
3.915	0.026223
3.920	0.026711
3.925	0.027256
3.930	0.027787
3.935	0.028366
3.940	0.028998
3.945	0.029650
3.950	0.030426
3.955	0.031171
3.960	0.032043
3.965	0.033006
3.970	0.034016
3.975	0.035133
3.980	0.036432
3.985	0.037831
3.990	0.039400
3.995	0.041214
4.000	0.043221
4.005	0.045433
4.010	0.047867
4.015	0.050430
4.020	0.053077
4.025	0.055723
4.030	0.058144
4.035	0.060216
4.040	0.061893
4.045	0.063105
4.050	0.063712
4.055	0.063620
4.060	0.062725
4.065	0.060926
4.070	0.058106
4.075	0.054503
4.080	0.049686
4.085	0.043609
4.090	0.036605
4.095	0.028775
4.100	0.020815
4.105	0.013355
4.110	0.007021
4.115	0.002031
4.120	-0.001468
4.125	-0.003791
4.130	-0.005302
4.135	-0.006277
4.140	-0.006821
4.145	-0.007199
4.150	-0.007530
4.155	-0.007777
4.160	-0.008018
4.165	-0.008197
4.170	-0.008417
4.175	-0.008526
4.180	-0.008629
4.185	-0.008657
4.190	-0.008666
4.195	-0.008636
4.200	-0.008669
4.205	-0.008697
4.210	-0.008719
4.215	-0.008719
4.220	-0.008707
4.225	-0.008705
4.230	-0.008719
4.235	-0.008813
4.240	-0.008860
4.245	-0.008907
4.250	-0.008985
4.255	-0.008925
4.260	-0.008919
4.265	-0.008882
4.270	-0.008895
4.275	-0.008900
4.280	-0.008926
4.285	-0.008995
4.290	-0.009044
4.295	-0.009044
4.300	-0.009052
4.305	-0.009066
4.310	-0.009094
4.315	-0.009185
4.320	-0.009263
4.325	-0.009338
4.330	-0.009431
4.335	-0.009478
4.340	-0.009504
4.345	-0.009553
4.350	-0.009519
4.355	-0.009554
4.360	-0.009547
4.365	-0.009560
4.370	-0.009546
4.375	-0.009557
4.380	-0.009529
4.385	-0.009545
4.390	-0.009604
4.395	-0.009705
4.400	-0.009749
4.405	-0.009831
4.410	-0.009831
4.415	-0.009859
4.420	-0.009929
4.425	-0.009979
4.430	-0.010021
4.435	-0.010027
4.440	-0.010130
4.445	-0.010177
4.450	-0.010227
4.455	-0.010227
4.460	-0.010254
4.465	-0.010175
4.470	-0.010272
4.475	-0.010321
4.480	-0.010351
4.485	-0.010432
4.490	-0.010501
4.495	-0.010541
4.500	-0.010596
4.505	-0.010635
4.510	-0.010703
4.515	-0.010766
4.520	-0.010815
4.525	-0.010766
4.530	-0.010804
4.535	-0.010865
4.540	-0.010951
4.545	-0.011027
4.550	-0.011069
4.555	-0.011173
4.560	-0.011243
4.565	-0.011291
4.570	-0.011303
4.575	-0.011337
4.580	-0.011311
4.585	-0.011377
4.590	-0.011372
4.595	-0.011362
4.600	-0.011415
4.605	-0.011477
4.610	-0.011448
4.615	-0.011393
4.620	-0.011428
4.625	-0.011515
4.630	-0.011569
4.635	-0.011657
4.640	-0.011670
4.645	-0.011746
4.650	-0.011861
4.655	-0.012022
4.660	-0.012146
4.665	-0.012285
4.670	-0.012445
4.675	-0.012555
4.680	-0.012693
4.685	-0.012712
4.690	-0.012712
4.695	-0.012706
4.700	-0.012707
4.705	-0.012762
4.710	-0.012824
4.715	-0.012846
4.720	-0.012830
4.725	-0.012844
4.730	-0.012916
4.735	-0.012981
4.740	-0.013054
4.745	-0.013150
4.750	-0.013258
4.755	-0.013231
4.760	-0.013189
4.765	-0.013251
4.770	-0.013313
4.775	-0.013477
4.780	-0.013592
4.785	-0.013643
4.790	-0.013720
4.795	-0.013801
4.800	-0.013924
4.805	-0.014040
4.810	-0.014217
4.815	-0.014319
4.820	-0.014408
4.825	-0.014442
4.830	-0.014493
4.835	-0.014575
4.840	-0.014689
4.845	-0.014833
4.850	-0.014922
4.855	-0.015019
4.860	-0.015105
4.865	-0.015129
4.870	-0.015184
4.875	-0.015241
4.880	-0.015270
4.885	-0.015296
4.890	-0.015366
4.895	-0.015434
4.900	-0.015509
4.905	-0.015589
4.910	-0.015671
4.915	-0.015810
4.920	-0.015890
4.925	-0.015903
4.930	-0.015965
4.935	-0.016059
4.940	-0.016152
4.945	-0.016290
4.950	-0.016499
4.955	-0.016635
4.960	-0.016837
4.965	-0.017031
4.970	-0.017203
4.975	-0.017332
4.980	-0.017484
4.985	-0.017627
4.990	-0.017800
4.995	-0.017925
5.000	-0.018079
5.005	-0.018197
5.010	-0.018368
5.015	-0.018512
5.020	-0.018670
5.025	-0.018894
5.030	-0.019034
5.035	-0.019202
5.040	-0.019401
5.045	-0.019601
5.050	-0.019783
5.055	-0.019966
5.060	-0.020143
5.065	-0.020294
5.070	-0.020484
5.075	-0.020646
5.080	-0.020897
5.085	-0.021069
5.090	-0.021250
5.095	-0.021438
5.100	-0.021565
5.105	-0.021758
5.110	-0.021980
5.115	-0.022132
5.120	-0.022418
5.125	-0.022710
5.130	-0.022925
5.135	-0.023167
5.140	-0.023410
5.145	-0.023697
5.150	-0.024015
5.155	-0.024345
5.160	-0.024696
5.165	-0.025083
5.170	-0.025498
5.175	-0.025922
5.180	-0.026320
5.185	-0.026820
5.190	-0.027231
5.195	-0.027694
5.200	-0.028124
5.205	-0.028594
5.210	-0.029085
5.215	-0.029656
5.220	-0.030235
5.225	-0.030876
5.230	-0.031448
5.235	-0.032070
5.240	-0.032687
5.245	-0.033345
5.250	-0.034073
5.255	-0.034815
5.260	-0.035665
5.265	-0.036582
5.270	-0.037497
5.275	-0.038548
5.280	-0.039752
5.285	-0.041126
5.290	-0.042649
5.295	-0.044395
5.300	-0.046406
5.305	-0.048627
5.310	-0.051093
5.315	-0.053639
5.320	-0.056289
5.325	-0.058600
5.330	-0.060626
5.335	-0.062142
5.340	-0.063003
5.345	-0.063890
5.350	-0.063955
5.355	-0.063079
5.360	-0.061895
5.365	-0.059734
5.370	-0.055921
5.375	-0.051101
5.380	-0.046266
5.385	-0.040639
5.390	-0.033007
5.395	-0.024019
5.400	-0.015528
5.405	-0.008821
5.410	-0.004281
5.415	-0.001467
5.420	0.000009
5.425	0.000743
5.430	0.001107
5.435	0.001216
5.440	0.001318
5.445	0.001352
5.450	0.001360
5.455	0.001354
5.460	0.001346
5.465	0.001345
5.470	0.001324
5.475	0.001345
5.480	0.001332
5.485	0.001325
5.490	0.001332
5.495	0.001331
5.500	0.001325
5.505	0.001331
5.510	0.001303
5.515	0.001317
5.520	0.001325
5.525	0.001345
5.530	0.001344
5.535	0.001330
5.540	0.001316
5.545	0.001310
5.550	0.001330
5.555	0.001336
5.560	0.001343
5.565	0.001302
5.570	0.001308
5.575	0.001322
5.580	0.001302
5.585	0.001309
5.590	0.001310
5.595	0.001350
5.600	0.001350
5.605	0.001349
5.610	0.001343
5.615	0.001384
5.620	0.001432
5.625	0.001445
5.630	0.001541
5.635	0.001569
5.640	0.001658
5.645	0.001787
5.650	0.001899
5.655	0.002015
5.660	0.002145
5.665	0.002233
5.670	0.002377
5.675	0.002508
5.680	0.002617
5.685	0.002720
5.690	0.002802
5.695	0.002857
5.700	0.002871
5.705	0.002885
5.710	0.002857
5.715	0.002817
5.720	0.002735
5.725	0.002647
5.730	0.002534
5.735	0.002404
5.740	0.002301
5.745	0.002144
5.750	0.002089
5.755	0.001973
5.760	0.001878
5.765	0.001782
5.770	0.001714
5.775	0.001652
5.780	0.001605
5.785	0.001579
5.790	0.001558
5.795	0.001536
5.800	0.001522
5.805	0.001523
5.810	0.001523
5.815	0.001503
5.820	0.001503
5.825	0.001490
5.830	0.001490
5.835	0.001490
5.840	0.001517
5.845	0.001538
5.850	0.001511
5.855	0.001512
5.860	0.001532
5.865	0.001510
5.870	0.001524
5.875	0.001517
5.880	0.001564
5.885	0.001571
5.890	0.001571
5.895	0.001605
5.900	0.001625
5.905	0.001591
5.910	0.001624
5.915	0.001618
5.920	0.001632
5.925	0.001632
5.930	0.001610
5.935	0.001637
5.940	0.001603
5.945	0.001637
5.950	0.001665
5.955	0.001645
5.960	0.001651
5.965	0.001685
5.970	0.001678
5.975	0.001699
5.980	0.001664
5.985	0.001693
5.990	0.001680
5.995	0.001693
6.000	0.001720
6.005	0.001692
6.010	0.001706
6.015	0.001726
6.020	0.001720
6.025	0.001726
6.030	0.001741
6.035	0.001727
6.040	0.001782
6.045	0.001783
6.050	0.001771
6.055	0.001764
6.060	0.001758
6.065	0.001751
6.070	0.001792
6.075	0.001779
6.080	0.001760
6.085	0.001782
6.090	0.001790
6.095	0.001784
6.100	0.001791
6.105	0.001797
6.110	0.001797
6.115	0.001777
6.120	0.001819
6.125	0.001798
6.130	0.001797
6.135	0.001824
6.140	0.001824
6.145	0.001823
6.150	0.001836
6.155	0.001822
6.160	0.001828
6.165	0.001834
6.170	0.001847
6.175	0.001833
6.180	0.001820
6.185	0.001861
6.190	0.001854
6.195	0.001818
6.200	0.001824
6.205	0.001852
6.210	0.001866
6.215	0.001831
6.220	0.001872
6.225	0.001872
6.230	0.001851
6.235	0.001879
6.240	0.001865
6.245	0.001871
6.250	0.001873
6.255	0.001866
6.260	0.001879
6.265	0.001892
6.270	0.001878
6.275	0.001871
6.280	0.001857
6.285	0.001864
6.290	0.001878
6.295	0.001898
6.300	0.001884
6.305	0.001911
6.310	0.001939
6.315	0.001926
6.320	0.001906
6.325	0.001913
6.330	0.001932
6.335	0.001924
6.340	0.001952
6.345	0.001925
6.350	0.001945
6.355	0.001932
6.360	0.001966
6.365	0.001952
6.370	0.001959
6.375	0.001945
6.380	0.001931
6.385	0.001932
6.390	0.001960
6.395	0.001965
6.400	0.001937
6.405	0.001930
6.410	0.001957
6.415	0.001978
6.420	0.001971
6.425	0.001937
6.430	0.001957
6.435	0.001937
6.440	0.001972
6.445	0.001972
6.450	0.001980
6.455	0.001987
6.460	0.001959
6.465	0.001958
6.470	0.001965
6.475	0.001972
6.480	0.001979
6.485	0.001992
6.490	0.002026
6.495	0.002026
6.500	0.002005
6.505	0.001984
6.510	0.002018
6.515	0.002018
6.520	0.002026
6.525	0.002011
6.530	0.001996
6.535	0.002017
6.540	0.002010
6.545	0.002044
6.550	0.002023
6.555	0.002037
6.560	0.002043
6.565	0.002050
6.570	0.002070
6.575	0.002063
6.580	0.002091
6.585	0.002099
6.590	0.002085
6.595	0.002103
6.600	0.002083
6.605	0.002111
6.610	0.002118
6.615	0.002125
6.620	0.002119
6.625	0.002154
6.630	0.002128
6.635	0.002177
6.640	0.002151
6.645	0.002139
6.650	0.002156
6.655	0.002166
6.660	0.002133
6.665	0.002140
6.670	0.002176
6.675	0.002185
6.680	0.002181
6.685	0.002199
6.690	0.002209
6.695	0.002190
6.700	0.002225
6.705	0.002189
6.710	0.002229
6.715	0.002229
6.720	0.002184
6.725	0.002215
6.730	0.002216
6.735	0.002198
6.740	0.002196
6.745	0.002227
6.750	0.002253
6.755	0.002237
6.760	0.002256
6.765	0.002241
6.770	0.002261
6.775	0.002267
6.780	0.002253
6.785	0.002301
6.790	0.002246
6.795	0.002251
6.800	0.002243
6.805	0.002244
6.810	0.002292
6.815	0.002278
6.820	0.002271
6.825	0.002244
6.830	0.002250
6.835	0.002250
6.840	0.002251
6.845	0.002251
6.850	0.002238
6.855	0.002225
6.860	0.002217
6.865	0.002271
6.870	0.002264
6.875	0.002250
6.880	0.002244
6.885	0.002250
6.890	0.002243
6.895	0.002271
6.900	0.002264
6.905	0.002285
6.910	0.002264
6.915	0.002264
6.920	0.002245
6.925	0.002272
6.930	0.002263
6.935	0.002277
6.940	0.002257
6.945	0.002291
6.950	0.002257
6.955	0.002284
6.960	0.002312
6.965	0.002284
6.970	0.002311
6.975	0.002325
6.980	0.002333
6.985	0.002294
6.990	0.002335
6.995	0.002312
7.000	0.002312
7.005	0.002326
7.010	0.002367
7.015	0.002347
7.020	0.002327
7.025	0.002354
7.030	0.002361
7.035	0.002361
7.040	0.002354
7.045	0.002354
7.050	0.002376
7.055	0.002376
7.060	0.002383
7.065	0.002361
7.070	0.002403
7.075	0.002388
7.080	0.002410
7.085	0.002389
7.090	0.002424
7.095	0.002417
7.100	0.002417
7.105	0.002430
7.110	0.002417
7.115	0.002439
7.120	0.002474
7.125	0.002453
7.130	0.002453
7.135	0.002459
7.140	0.002459
7.145	0.002466
7.150	0.002473
7.155	0.002508
7.160	0.002508
7.165	0.002521
7.170	0.002528
7.175	0.002514
7.180	0.002522
7.185	0.002488
7.190	0.002503
7.195	0.002487
7.200	0.002549
7.205	0.002556
7.210	0.002536
7.215	0.002535
7.220	0.002570
7.225	0.002590
7.230	0.002583
7.235	0.002583
7.240	0.002590
7.245	0.002570
7.250	0.002592
7.255	0.002613
7.260	0.002598
7.265	0.002618
7.270	0.002625
7.275	0.002653
7.280	0.002646
7.285	0.002639
7.290	0.002667
7.295	0.002673
7.300	0.002687
7.305	0.002680
7.310	0.002666
7.315	0.002688
7.320	0.002668
7.325	0.002667
7.330	0.002666
7.335	0.002686
7.340	0.002680
7.345	0.002707
7.350	0.002721
7.355	0.002713
7.360	0.002748
7.365	0.002734
7.370	0.002721
7.375	0.002748
7.380	0.002770
7.385	0.002764
7.390	0.002764
7.395	0.002762
7.400	0.002783
7.405	0.002756
7.410	0.002776
7.415	0.002796
7.420	0.002817
7.425	0.002817
7.430	0.002825
7.435	0.002796
7.440	0.002796
7.445	0.002824
7.450	0.002839
7.455	0.002832
7.460	0.002797
7.465	0.002844
7.470	0.002837
7.475	0.002857
7.480	0.002885
7.485	0.002899
7.490	0.002872
7.495	0.002871
7.500	0.002872
7.505	0.002912
7.510	0.002927
7.515	0.002927
7.520	0.002928
7.525	0.002921
7.530	0.002953
7.535	0.002912
7.540	0.002954
7.545	0.002940
7.550	0.002961
7.555	0.002954
7.560	0.002961
7.565	0.002988
7.570	0.002981
7.575	0.003001
7.580	0.003009
7.585	0.003024
7.590	0.003017
7.595	0.003035
7.600	0.003042
7.605	0.003070
7.610	0.003036
7.615	0.003076
7.620	0.003091
7.625	0.003098
7.630	0.003084
7.635	0.003111
7.640	0.003098
7.645	0.003133
7.650	0.003100
7.655	0.003142
7.660	0.003133
7.665	0.003126
7.670	0.003168
7.675	0.003181
7.680	0.003147
7.685	0.003188
7.690	0.003188
7.695	0.003209
7.700	0.003202
7.705	0.003229
7.710	0.003236
7.715	0.003245
7.720	0.003246
7.725	0.003238
7.730	0.003250
7.735	0.003271
7.740	0.003285
7.745	0.003298
7.750	0.003319
7.755	0.003305
7.760	0.003326
7.765	0.003353
7.770	0.003381
7.775	0.003367
7.780	0.003375
7.785	0.003355
7.790	0.003355
7.795	0.003366
7.800	0.003394
7.805	0.003393
7.810	0.003407
7.815	0.003400
7.820	0.003428
7.825	0.003427
7.830	0.003420
7.835	0.003447
7.840	0.003440
7.845	0.003433
7.850	0.003448
7.855	0.003495
7.860	0.003487
7.865	0.003493
7.870	0.003493
7.875	0.003513
7.880	0.003520
7.885	0.003526
7.890	0.003539
7.895	0.003545
7.900	0.003552
7.905	0.003579
7.910	0.003572
7.915	0.003574
7.920	0.003635
7.925	0.003627
7.930	0.003639
7.935	0.003659
7.940	0.003659
7.945	0.003666
7.950	0.003659
7.955	0.003686
7.960	0.003700
7.965	0.003680
7.970	0.003720
7.975	0.003693
7.980	0.003694
7.985	0.003737
7.990	0.003743
7.995	0.003754
8.000	0.003726
8.005	0.003767
8.010	0.003795
8.015	0.003781
8.020	0.003829
8.025	0.003815
8.030	0.003850
8.035	0.003836
8.040	0.003850
8.045	0.003878
8.050	0.003873
8.055	0.003879
8.060	0.003899
8.065	0.003905
8.070	0.003912
8.075	0.003954
8.080	0.003948
8.085	0.003976
8.090	0.003978
8.095	0.004000
8.100	0.003994
8.105	0.004003
8.110	0.004011
8.115	0.004027
8.120	0.004056
8.125	0.004055
8.130	0.004032
8.135	0.004070
8.140	0.004083
8.145	0.004116
8.150	0.004179
8.155	0.004144
8.160	0.004199
8.165	0.004185
8.170	0.004192
8.175	0.004199
8.180	0.004221
8.185	0.004216
8.190	0.004262
8.195	0.004266
8.200	0.004292
8.205	0.004291
8.210	0.004332
8.215	0.004337
8.220	0.004344
8.225	0.004343
8.230	0.004377
8.235	0.004390
8.240	0.004432
8.245	0.004452
8.250	0.004427
8.255	0.004448
8.260	0.004466
8.265	0.004480
8.270	0.004494
8.275	0.004542
8.280	0.004534
8.285	0.004576
8.290	0.004562
8.295	0.004596
8.300	0.004624
8.305	0.004645
8.310	0.004624
8.315	0.004660
8.320	0.004661
8.325	0.004666
8.330	0.004721
8.335	0.004741
8.340	0.004755
8.345	0.004762
8.350	0.004804
8.355	0.004783
8.360	0.004824
8.365	0.004873
8.370	0.004873
8.375	0.004886
8.380	0.004888
8.385	0.004910
8.390	0.004965
8.395	0.004942
8.400	0.004930
8.405	0.004956
8.410	0.005026
8.415	0.005018
8.420	0.005040
8.425	0.005033
8.430	0.005117
8.435	0.005124
8.440	0.005153
8.445	0.005149
8.450	0.005137
8.455	0.005173
8.460	0.005211
8.465	0.005224
8.470	0.005246
8.475	0.005260
8.480	0.005302
8.485	0.005331
8.490	0.005311
8.495	0.005368
8.500	0.005383
8.505	0.005410
8.510	0.005432
8.515	0.005447
8.520	0.005461
8.525	0.005493
8.530	0.005513
8.535	0.005532
8.540	0.005538
8.545	0.005551
8.550	0.005599
8.555	0.005661
8.560	0.005675
8.565	0.005687
8.570	0.005720
8.575	0.005710
8.580	0.005772
8.585	0.005799
8.590	0.005804
8.595	0.005828
8.600	0.005841
8.605	0.005897
8.610	0.005919
8.615	0.005946
8.620	0.005967
8.625	0.005974
8.630	0.006050
8.635	0.006076
8.640	0.006103
8.645	0.006111
8.650	0.006147
8.655	0.006209
8.660	0.006227
8.665	0.006194
8.670	0.006299
8.675	0.006317
8.680	0.006303
8.685	0.006397
8.690	0.006371
8.695	0.006253
8.700	0.006201
8.705	0.006356
8.710	0.006492
8.715	0.006592
8.720	0.006654
8.725	0.006666
8.730	0.006699
8.735	0.006739
8.740	0.006765
8.745	0.006800
8.750	0.006862
8.755	0.006912
8.760	0.006925
8.765	0.006987
8.770	0.007048
8.775	0.007067
8.780	0.007077
8.785	0.007120
8.790	0.007161
8.795	0.007214
8.800	0.007245
8.805	0.007273
8.810	0.007344
8.815	0.007365
8.820	0.007392
8.825	0.007426
8.830	0.007502
8.835	0.007534
8.840	0.007549
8.845	0.007620
8.850	0.007635
8.855	0.007682
8.860	0.007734
8.865	0.007776
8.870	0.007845
8.875	0.007885
8.880	0.007934
8.885	0.007988
8.890	0.008085
8.895	0.008091
8.900	0.008194
8.905	0.008260
8.910	0.008302
8.915	0.008352
8.920	0.008460
8.925	0.008539
8.930	0.008426
8.935	0.008431
8.940	0.008631
8.945	0.008706
8.950	0.008774
8.955	0.008870
8.960	0.008946
8.965	0.008979
8.970	0.009042
8.975	0.009110
8.980	0.009205
8.985	0.009294
8.990	0.009301
8.995	0.009413
9.000	0.009524
9.005	0.009565
9.010	0.009667
9.015	0.009722
9.020	0.009825
9.025	0.009912
9.030	0.009981
9.035	0.010069
9.040	0.010157
9.045	0.010229
9.050	0.010343
9.055	0.010437
9.060	0.010516
9.065	0.010618
9.070	0.010740
9.075	0.010864
9.080	0.010969
9.085	0.011062
9.090	0.011179
9.095	0.011302
9.100	0.011411
9.105	0.011526
9.110	0.011618
9.115	0.011745
9.120	0.011898
9.125	0.011990
9.130	0.012111
9.135	0.012289
9.140	0.012421
9.145	0.012552
9.150	0.012688
9.155	0.012825
9.160	0.013024
9.165	0.013180
9.170	0.013330
9.175	0.013527
9.180	0.013758
9.185	0.013905
9.190	0.014054
9.195	0.014281
9.200	0.014521
9.205	0.014707
9.210	0.014976
9.215	0.015178
9.220	0.015470
9.225	0.015737
9.230	0.015983
9.235	0.016251
9.240	0.016526
9.245	0.016847
9.250	0.017119
9.255	0.017465
9.260	0.017784
9.265	0.018120
9.270	0.018481
9.275	0.018864
9.280	0.019262
9.285	0.019721
9.290	0.020119
9.295	0.020581
9.300	0.021037
9.305	0.021591
9.310	0.022148
9.315	0.022723
9.320	0.023373
9.325	0.024138
9.330	0.024930
9.335	0.025844
9.340	0.026903
9.345	0.028210
9.350	0.029722
9.355	0.031511
9.360	0.033622
9.365	0.035857
9.370	0.038238
9.375	0.040664
9.380	0.042772
9.385	0.044744
9.390	0.046275
9.395	0.047220
9.400	0.047868
9.405	0.047946
9.410	0.047226
9.415	0.045579
9.420	0.043335
9.425	0.040433
9.430	0.036568
9.435	0.031303
9.440	0.024938
9.445	0.017856
9.450	0.011363
9.455	0.006247
9.460	0.002693
9.465	0.000513
9.470	-0.000723
9.475	-0.001362
9.480	-0.001636
9.485	-0.001766
9.490	-0.001876
9.495	-0.001911
9.500	-0.001931
9.505	-0.001979
9.510	-0.001979
9.515	-0.001973
9.520	-0.001993
9.525	-0.002014
9.530	-0.002027
9.535	-0.002007
9.540	-0.002034
9.545	-0.002069
9.550	-0.002007
9.555	-0.002041
9.560	-0.002041
9.565	-0.002034
9.570	-0.002014
9.575	-0.002069
9.580	-0.002055
9.585	-0.002062
9.590	-0.002035
9.595	-0.002069
9.600	-0.002055
9.605	-0.002069
9.610	-0.002035
9.615	-0.002048
9.620	-0.002035
9.625	-0.002055
9.630	-0.002042
9.635	-0.002048
9.640	-0.002058
9.645	-0.002045
9.650	-0.002052
9.655	-0.002072
9.660	-0.002059
9.665	-0.002072
9.670	-0.002079
9.675	-0.002079
9.680	-0.002086
9.685	-0.002066
9.690	-0.002052
9.695	-0.002114
9.700	-0.002100
9.705	-0.002059
9.710	-0.002079
9.715	-0.002073
9.720	-0.002079
9.725	-0.002059
9.730	-0.002100
9.735	-0.002052
9.740	-0.002080
9.745	-0.002086
9.750	-0.002107
9.755	-0.002086
9.760	-0.002093
9.765	-0.002107
9.770	-0.002121
9.775	-0.002073
9.780	-0.002073
9.785	-0.002087
9.790	-0.002107
9.795	-0.002114
9.800	-0.002073
9.805	-0.002080
9.810	-0.002087
9.815	-0.002121
9.820	-0.002094
9.825	-0.002094
9.830	-0.002094
9.835	-0.002087
9.840	-0.002094
9.845	-0.002094
9.850	-0.002087
9.855	-0.002101
9.860	-0.002128
9.865	-0.002108
9.870	-0.002108
9.875	-0.002108
9.880	-0.002067
9.885	-0.002115
9.890	-0.002122
9.895	-0.002101
9.900	-0.002108
9.905	-0.002094
9.910	-0.002094
9.915	-0.002094
9.920	-0.002129
9.925	-0.002108
9.930	-0.002108
9.935	-0.002136
9.940	-0.002122
9.945	-0.002101
9.950	-0.002101
9.955	-0.002136
9.960	-0.002115
9.965	-0.002088
9.970	-0.002150
9.975	-0.002095
9.980	-0.002129
9.985	-0.002102
9.990	-0.002115
9.995	-0.002136
10.000	-0.002116
10.005	-0.002116
10.010	-0.002123
10.015	-0.002116
10.020	-0.002095
10.025	-0.002109
10.030	-0.002102
10.035	-0.002075
10.040	-0.002116
10.045	-0.002109
10.050	-0.002102
10.055	-0.002102
10.060	-0.002137
10.065	-0.002130
10.070	-0.002130
10.075	-0.002130
10.080	-0.002109
10.085	-0.002116
10.090	-0.002151
10.095	-0.002109
10.100	-0.002102
10.105	-0.002144
10.110	-0.002137
10.115	-0.002082
10.120	-0.002109
10.125	-0.002096
10.130	-0.002110
10.135	-0.002130
10.140	-0.002172
10.145	-0.002144
10.150	-0.002130
10.155	-0.002123
10.160	-0.002103
10.165	-0.002130
10.170	-0.002144
10.175	-0.002130
10.180	-0.002151
10.185	-0.002130
10.190	-0.002131
10.195	-0.002158
10.200	-0.002165
10.205	-0.002158
10.210	-0.002151
10.215	-0.002179
10.220	-0.002165
10.225	-0.002158
10.230	-0.002137
10.235	-0.002151
10.240	-0.002158
10.245	-0.002151
10.250	-0.002165
10.255	-0.002144
10.260	-0.002165
10.265	-0.002151
10.270	-0.002206
10.275	-0.002165
10.280	-0.002165
10.285	-0.002158
10.290	-0.002199
10.295	-0.002206
10.300	-0.002158
10.305	-0.002151
10.310	-0.002206
10.315	-0.002193
10.320	-0.002193
10.325	-0.002186
10.330	-0.002193
10.335	-0.002213
10.340	-0.002220
10.345	-0.002220
10.350	-0.002227
10.355	-0.002227
10.360	-0.002220
10.365	-0.002193
10.370	-0.002234
10.375	-0.002193
10.380	-0.002200
10.385	-0.002172
10.390	-0.002206
10.395	-0.002207
10.400	-0.002200
10.405	-0.002234
10.410	-0.002234
10.415	-0.002234
10.420	-0.002213
10.425	-0.002220
10.430	-0.002214
10.435	-0.002220
10.440	-0.002227
10.445	-0.002207
10.450	-0.002248
10.455	-0.002227
10.460	-0.002228
10.465	-0.002255
10.470	-0.002248
10.475	-0.002269
10.480	-0.002227
10.485	-0.002262
10.490	-0.002248
10.495	-0.002262
10.500	-0.002248
10.505	-0.002262
10.510	-0.002262
10.515	-0.002255
10.520	-0.002248
10.525	-0.002269
10.530	-0.002262
10.535	-0.002269
10.540	-0.002276
10.545	-0.002234
10.550	-0.002289
10.555	-0.002262
10.560	-0.002289
10.565	-0.002262
10.570	-0.002276
10.575	-0.002255
10.580	-0.002269
10.585	-0.002296
10.590	-0.002283
10.595	-0.002283
10.600	-0.002276
10.605	-0.002310
10.610	-0.002310
10.615	-0.002296
10.620	-0.002303
10.625	-0.002303
10.630	-0.002290
10.635	-0.002303
10.640	-0.002324
10.645	-0.002283
10.650	-0.002331
10.655	-0.002297
10.660	-0.002324
10.665	-0.002324
10.670	-0.002331
10.675	-0.002317
10.680	-0.002317
10.685	-0.002345
10.690	-0.002304
10.695	-0.002324
10.700	-0.002345
10.705	-0.002304
10.710	-0.002338
10.715	-0.002345
10.720	-0.002311
10.725	-0.002331
10.730	-0.002359
10.735	-0.002359
10.740	-0.002331
10.745	-0.002366
10.750	-0.002345
10.755	-0.002331
10.760	-0.002331
10.765	-0.002373
10.770	-0.002352
10.775	-0.002359
10.780	-0.002400
10.785	-0.002373
10.790	-0.002359
10.795	-0.002352
10.800	-0.002359
10.805	-0.002352
10.810	-0.002407
10.815	-0.002373
10.820	-0.002359
10.825	-0.002359
10.830	-0.002359
10.835	-0.002359
10.840	-0.002366
10.845	-0.002366
10.850	-0.002393
10.855	-0.002380
10.860	-0.002401
10.865	-0.002394
10.870	-0.002408
10.875	-0.002394
10.880	-0.002414
10.885	-0.002421
10.890	-0.002421
10.895	-0.002387
10.900	-0.002394
10.905	-0.002408
10.910	-0.002401
10.915	-0.002387
10.920	-0.002408
10.925	-0.002428
10.930	-0.002435
10.935	-0.002422
10.940	-0.002442
10.945	-0.002435
10.950	-0.002428
10.955	-0.002422
10.960	-0.002408
10.965	-0.002415
10.970	-0.002429
10.975	-0.002463
10.980	-0.002449
10.985	-0.002443
10.990	-0.002408
10.995	-0.002436
11.000	-0.002463
11.005	-0.002443
11.010	-0.002450
11.015	-0.002429
11.020	-0.002443
11.025	-0.002456
11.030	-0.002450
11.035	-0.002415
11.040	-0.002443
11.045	-0.002443
11.050	-0.002443
11.055	-0.002450
11.060	-0.002443
11.065	-0.002485
11.070	-0.002450
11.075	-0.002443
11.080	-0.002491
11.085	-0.002491
11.090	-0.002471
11.095	-0.002457
11.100	-0.002464
11.105	-0.002505
11.110	-0.002478
11.115	-0.002512
11.120	-0.002437
11.125	-0.002485
11.130	-0.002451
11.135	-0.002471
11.140	-0.002478
11.145	-0.002492
11.150	-0.002513
11.155	-0.002513
11.160	-0.002485
11.165	-0.002506
11.170	-0.002471
11.175	-0.002499
11.180	-0.002520
11.185	-0.002492
11.190	-0.002506
11.195	-0.002520
11.200	-0.002486
11.205	-0.002499
11.210	-0.002513
11.215	-0.002506
11.220	-0.002534
11.225	-0.002492
11.230	-0.002541
11.235	-0.002486
11.240	-0.002520
11.245	-0.002520
11.250	-0.002513
11.255	-0.002513
11.260	-0.002507
11.265	-0.002534
11.270	-0.002534
11.275	-0.002527
11.280	-0.002527
11.285	-0.002527
11.290	-0.002534
11.295	-0.002507
11.300	-0.002541
11.305	-0.002486
11.310	-0.002500
11.315	-0.002534
11.320	-0.002520
11.325	-0.002541
11.330	-0.002555
11.335	-0.002576
11.340	-0.002555
11.345	-0.002527
11.350	-0.002541
11.355	-0.002555
11.360	-0.002562
11.365	-0.002534
11.370	-0.002541
11.375	-0.002555
11.380	-0.002514
11.385	-0.002534
11.390	-0.002541
11.395	-0.002555
11.400	-0.002569
11.405	-0.002535
11.410	-0.002562
11.415	-0.002562
11.420	-0.002569
11.425	-0.002562
11.430	-0.002583
11.435	-0.002583
11.440	-0.002576
11.445	-0.002562
11.450	-0.002569
11.455	-0.002576
11.460	-0.002562
11.465	-0.002597
11.470	-0.002610
11.475	-0.002576
11.480	-0.002562
11.485	-0.002603
11.490	-0.002562
11.495	-0.002583
11.500	-0.002555
11.505	-0.002576
11.510	-0.002624
11.515	-0.002590
11.520	-0.002583
11.525	-0.002597
11.530	-0.002570
11.535	-0.002611
11.540	-0.002624
11.545	-0.002590
11.550	-0.002604
11.555	-0.002604
11.560	-0.002631
11.565	-0.002583
11.570	-0.002604
11.575	-0.002597
11.580	-0.002631
11.585	-0.002604
11.590	-0.002652
11.595	-0.002611
11.600	-0.002659
11.605	-0.002611
11.610	-0.002632
11.615	-0.002618
11.620	-0.002631
11.625	-0.002618
11.630	-0.002645
11.635	-0.002639
11.640	-0.002632
11.645	-0.002597
11.650	-0.002666
11.655	-0.002632
11.660	-0.002646
11.665	-0.002673
11.670	-0.002659
11.675	-0.002632
11.680	-0.002646
11.685	-0.002680
11.690	-0.002646
11.695	-0.002660
11.700	-0.002660
11.705	-0.002625
11.710	-0.002660
11.715	-0.002639
11.720	-0.002659
11.725	-0.002653
11.730	-0.002653
11.735	-0.002667
11.740	-0.002687
11.745	-0.002646
11.750	-0.002660
11.755	-0.002653
11.760	-0.002674
11.765	-0.002632
11.770	-0.002660
11.775	-0.002701
11.780	-0.002653
11.785	-0.002653
11.790	-0.002660
11.795	-0.002695
11.800	-0.002715
11.805	-0.002674
11.810	-0.002674
11.815	-0.002701
11.820	-0.002674
11.825	-0.002674
11.830	-0.002674
11.835	-0.002695
11.840	-0.002695
11.845	-0.002681
11.850	-0.002688
11.855	-0.002702
11.860	-0.002722
11.865	-0.002681
11.870	-0.002722
11.875	-0.002708
11.880	-0.002715
11.885	-0.002722
11.890	-0.002715
11.895	-0.002702
11.900	-0.002702
11.905	-0.002695
11.910	-0.002702
11.915	-0.002681
11.920	-0.002695
11.925	-0.002689
11.930	-0.002716
11.935	-0.002723
11.940	-0.002716
11.945	-0.002723
11.950	-0.002723
11.955	-0.002716
11.960	-0.002730
11.965	-0.002688
11.970	-0.002744
11.975	-0.002716
11.980	-0.002723
11.985	-0.002751
11.990	-0.002751
11.995	-0.002737
12.000	-0.002751
12.005	-0.002751
12.010	-0.002744
12.015	-0.002737
12.020	-0.002744
12.025	-0.002751
12.030	-0.002737
12.035	-0.002765
12.040	-0.002751
12.045	-0.002737
12.050	-0.002758
12.055	-0.002751
12.060	-0.002772
12.065	-0.002765
12.070	-0.002779
12.075	-0.002758
12.080	-0.002772
12.085	-0.002772
12.090	-0.002765
12.095	-0.002772
12.100	-0.002751
12.105	-0.002772
12.110	-0.002772
12.115	-0.002799
12.120	-0.002785
12.125	-0.002786
12.130	-0.002758
12.135	-0.002793
12.140	-0.002813
12.145	-0.002792
12.150	-0.002785
12.155	-0.002799
12.160	-0.002779
12.165	-0.002799
12.170	-0.002779
12.175	-0.002792
12.180	-0.002786
12.185	-0.002779
12.190	-0.002779
12.195	-0.002814
12.200	-0.002820
12.205	-0.002792
12.210	-0.002827
12.215	-0.002806
12.220	-0.002806
12.225	-0.002813
12.230	-0.002813
12.235	-0.002841
12.240	-0.002820
12.245	-0.002799
12.250	-0.002806
12.255	-0.002847
12.260	-0.002806
12.265	-0.002848
12.270	-0.002841
12.275	-0.002820
12.280	-0.002847
12.285	-0.002827
12.290	-0.002847
12.295	-0.002827
12.300	-0.002847
12.305	-0.002799
12.310	-0.002847
12.315	-0.002834
12.320	-0.002861
12.325	-0.002882
12.330	-0.002868
12.335	-0.002854
12.340	-0.002854
12.345	-0.002868
12.350	-0.002861
12.355	-0.002875
12.360	-0.002861
12.365	-0.002868
12.370	-0.002847
12.375	-0.002854
12.380	-0.002868
12.385	-0.002875
12.390	-0.002875
12.395	-0.002868
12.400	-0.002902
12.405	-0.002909
12.410	-0.002895
12.415	-0.002888
12.420	-0.002881
12.425	-0.002888
12.430	-0.002930
12.435	-0.002868
12.440	-0.002902
12.445	-0.002888
12.450	-0.002929
12.455	-0.002875
12.460	-0.002875
12.465	-0.002930
12.470	-0.002909
12.475	-0.002909
12.480	-0.002922
12.485	-0.002902
12.490	-0.002902
12.495	-0.002923
12.500	-0.002916
12.505	-0.002922
12.510	-0.002929
12.515	-0.002943
12.520	-0.002915
12.525	-0.002909
12.530	-0.002923
12.535	-0.002943
12.540	-0.002950
12.545	-0.002956
12.550	-0.002963
12.555	-0.002956
12.560	-0.002943
12.565	-0.002970
12.570	-0.002936
12.575	-0.002963
12.580	-0.002929
12.585	-0.002977
12.590	-0.002984
12.595	-0.002971
12.600	-0.002957
12.605	-0.002984
12.610	-0.002970
12.615	-0.002984
12.620	-0.002977
12.625	-0.002984
12.630	-0.002977
12.635	-0.002977
12.640	-0.002970
12.645	-0.002977
12.650	-0.002984
12.655	-0.002977
12.660	-0.002977
12.665	-0.002991
12.670	-0.002997
12.675	-0.003032
12.680	-0.003018
12.685	-0.002991
12.690	-0.002970
12.695	-0.003032
12.700	-0.002970
12.705	-0.002970
12.710	-0.003032
12.715	-0.003011
12.720	-0.003018
12.725	-0.002998
12.730	-0.003032
12.735	-0.003046
12.740	-0.003004
12.745	-0.003004
12.750	-0.003032
12.755	-0.003052
12.760	-0.003039
12.765	-0.003039
12.770	-0.003032
12.775	-0.003052
12.780	-0.003032
12.785	-0.003045
12.790	-0.003032
12.795	-0.003053
12.800	-0.003039
12.805	-0.003059
12.810	-0.003004
12.815	-0.003073
12.820	-0.003045
12.825	-0.003073
12.830	-0.003059
12.835	-0.003059
12.840	-0.003100
12.845	-0.003066
12.850	-0.003073
12.855	-0.003080
12.860	-0.003108
12.865	-0.003073
12.870	-0.003093
12.875	-0.003086
12.880	-0.003087
12.885	-0.003100
12.890	-0.003094
12.895	-0.003087
12.900	-0.003087
12.905	-0.003094
12.910	-0.003107
12.915	-0.003100
12.920	-0.003107
12.925	-0.003101
12.930	-0.003135
12.935	-0.003121
12.940	-0.003148
12.945	-0.003114
12.950	-0.003134
12.955	-0.003148
12.960	-0.003107
12.965	-0.003128
12.970	-0.003107
12.975	-0.003128
12.980	-0.003128
12.985	-0.003141
12.990	-0.003121
12.995	-0.003122
13.000	-0.003162
13.005	-0.003169
13.010	-0.003141
13.015	-0.003155
13.020	-0.003141
13.025	-0.003121
13.030	-0.003155
13.035	-0.003135
13.040	-0.003148
13.045	-0.003135
13.050	-0.003176
13.055	-0.003148
13.060	-0.003176
13.065	-0.003163
13.070	-0.003155
13.075	-0.003176
13.080	-0.003169
13.085	-0.003142
13.090	-0.003190
13.095	-0.003162
13.100	-0.003176
13.105	-0.003197
13.110	-0.003169
13.115	-0.003183
13.120	-0.003197
13.125	-0.003204
13.130	-0.003184
13.135	-0.003156
13.140	-0.003210
13.145	-0.003190
13.150	-0.003224
13.155	-0.003197
13.160	-0.003197
13.165	-0.003218
13.170	-0.003204
13.175	-0.003190
13.180	-0.003211
13.185	-0.003190
13.190	-0.003211
13.195	-0.003198
13.200	-0.003212
13.205	-0.003211
13.210	-0.003211
13.215	-0.003245
13.220	-0.003225
13.225	-0.003225
13.230	-0.003204
13.235	-0.003239
13.240	-0.003218
13.245	-0.003239
13.250	-0.003239
13.255	-0.003246
13.260	-0.003240
13.265	-0.003226
13.270	-0.003247
13.275	-0.003267
13.280	-0.003253
13.285	-0.003267
13.290	-0.003233
13.295	-0.003233
13.300	-0.003281
13.305	-0.003247
13.310	-0.003267
13.315	-0.003261
13.320	-0.003254
13.325	-0.003282
13.330	-0.003282
13.335	-0.003282
13.340	-0.003254
13.345	-0.003268
13.350	-0.003254
13.355	-0.003234
13.360	-0.003282
13.365	-0.003268
13.370	-0.003254
13.375	-0.003268
13.380	-0.003309
13.385	-0.003268
13.390	-0.003296
13.395	-0.003290
13.400	-0.003283
13.405	-0.003296
13.410	-0.003282
13.415	-0.003296
13.420	-0.003310
13.425	-0.003290
13.430	-0.003331
13.435	-0.003296
13.440	-0.003324
13.445	-0.003303
13.450	-0.003296
13.455	-0.003276
13.460	-0.003324
13.465	-0.003318
13.470	-0.003338
13.475	-0.003345
13.480	-0.003317
13.485	-0.003345
13.490	-0.003345
13.495	-0.003331
13.500	-0.003359
13.505	-0.003352
13.510	-0.003345
13.515	-0.003366
13.520	-0.003359
13.525	-0.003332
13.530	-0.003353
13.535	-0.003352
13.540	-0.003366
13.545	-0.003366
13.550	-0.003373
13.555	-0.003339
13.560	-0.003380
13.565	-0.003373
13.570	-0.003352
13.575	-0.003380
13.580	-0.003393
13.585	-0.003373
13.590	-0.003380
13.595	-0.003367
13.600	-0.003387
13.605	-0.003414
13.610	-0.003407
13.615	-0.003407
13.620	-0.003393
13.625	-0.003400
13.630	-0.003400
13.635	-0.003407
13.640	-0.003387
13.645	-0.003421
13.650	-0.003380
13.655	-0.003387
13.660	-0.003408
13.665	-0.003387
13.670	-0.003407
13.675	-0.003435
13.680	-0.003428
13.685	-0.003414
13.690	-0.003394
13.695	-0.003428
13.700	-0.003428
13.705	-0.003428
13.710	-0.003455
13.715	-0.003455
13.720	-0.003455
13.725	-0.003435
13.730	-0.003470
13.735	-0.003448
13.740	-0.003462
13.745	-0.003434
13.750	-0.003462
13.755	-0.003434
13.760	-0.003455
13.765	-0.003462
13.770	-0.003462
13.775	-0.003462
13.780	-0.003441
13.785	-0.003455
13.790	-0.003490
13.795	-0.003483
13.800	-0.003483
13.805	-0.003482
13.810	-0.003482
13.815	-0.003496
13.820	-0.003496
13.825	-0.003489
13.830	-0.003489
13.835	-0.003475
13.840	-0.003489
13.845	-0.003482
13.850	-0.003455
13.855	-0.003517
13.860	-0.003503
13.865	-0.003490
13.870	-0.003516
13.875	-0.003503
13.880	-0.003516
13.885	-0.003509
13.890	-0.003489
13.895	-0.003523
13.900	-0.003537
13.905	-0.003510
13.910	-0.003482
13.915	-0.003510
13.920	-0.003551
13.925	-0.003517
13.930	-0.003538
13.935	-0.003551
13.940	-0.003558
13.945	-0.003565
13.950	-0.003551
13.955	-0.003565
13.960	-0.003530
13.965	-0.003558
13.970	-0.003578
13.975	-0.003544
13.980	-0.003537
13.985	-0.003551
13.990	-0.003579
13.995	-0.003565
14.000	-0.003586
14.005	-0.003578
14.010	-0.003572
14.015	-0.003558
14.020	-0.003544
14.025	-0.003558
14.030	-0.003565
14.035	-0.003585
14.040	-0.003544
14.045	-0.003606
14.050	-0.003579
14.055	-0.003572
14.060	-0.003566
14.065	-0.003579
14.070	-0.003620
14.075	-0.003599
14.080	-0.003572
14.085	-0.003572
14.090	-0.003599
14.095	-0.003579
14.100	-0.003565
14.105	-0.003592
14.110	-0.003585
14.115	-0.003620
14.120	-0.003578
14.125	-0.003606
14.130	-0.003620
14.135	-0.003613
14.140	-0.003620
14.145	-0.003586
14.150	-0.003599
14.155	-0.003634
14.160	-0.003620
14.165	-0.003640
14.170	-0.003634
14.175	-0.003640
14.180	-0.003634
14.185	-0.003620
14.190	-0.003621
14.195	-0.003662
14.200	-0.003655
14.205	-0.003634
14.210	-0.003647
14.215	-0.003634
14.220	-0.003627
14.225	-0.003662
14.230	-0.003655
14.235	-0.003675
14.240	-0.003607
14.245	-0.003634
14.250	-0.003661
14.255	-0.003662
14.260	-0.003635
14.265	-0.003662
14.270	-0.003654
14.275	-0.003703
14.280	-0.003661
14.285	-0.003703
14.290	-0.003689
14.295	-0.003676
14.300	-0.003696
14.305	-0.003648
14.310	-0.003696
14.315	-0.003696
14.320	-0.003655
14.325	-0.003697
14.330	-0.003711
14.335	-0.003703
14.340	-0.003703
14.345	-0.003683
14.350	-0.003696
14.355	-0.003704
14.360	-0.003710
14.365	-0.003697
14.370	-0.003724
14.375	-0.003703
14.380	-0.003717
14.385	-0.003696
14.390	-0.003738
14.395	-0.003725
14.400	-0.003724
14.405	-0.003731
14.410	-0.003745
14.415	-0.003711
14.420	-0.003710
14.425	-0.003751
14.430	-0.003738
14.435	-0.003752
14.440	-0.003779
14.445	-0.003745
14.450	-0.003759
14.455	-0.003759
14.460	-0.003739
14.465	-0.003753
14.470	-0.003766
14.475	-0.003800
14.480	-0.003773
14.485	-0.003766
14.490	-0.003752
14.495	-0.003780
14.500	-0.003773
14.505	-0.003780
14.510	-0.003807
14.515	-0.003773
14.520	-0.003800
14.525	-0.003780
14.530	-0.003808
14.535	-0.003794
14.540	-0.003793
14.545	-0.003807
14.550	-0.003807
14.555	-0.003828
14.560	-0.003814
14.565	-0.003828
14.570	-0.003794
14.575	-0.003835
14.580	-0.003821
14.585	-0.003801
14.590	-0.003815
14.595	-0.003836
14.600	-0.003849
14.605	-0.003842
14.610	-0.003863
14.615	-0.003842
14.620	-0.003808
14.625	-0.003856
14.630	-0.003863
14.635	-0.003850
14.640	-0.003856
14.645	-0.003836
14.650	-0.003849
14.655	-0.003857
14.660	-0.003877
14.665	-0.003871
14.670	-0.003863
14.675	-0.003863
14.680	-0.003877
14.685	-0.003877
14.690	-0.003877
14.695	-0.003857
14.700	-0.003871
14.705	-0.003878
14.710	-0.003877
14.715	-0.003857
14.720	-0.003885
14.725	-0.003906
14.730	-0.003920
14.735	-0.003926
14.740	-0.003899
14.745	-0.003906
14.750	-0.003899
14.755	-0.003899
14.760	-0.003892
14.765	-0.003906
14.770	-0.003893
14.775	-0.003920
14.780	-0.003899
14.785	-0.003892
14.790	-0.003921
14.795	-0.003907
14.800	-0.003934
14.805	-0.003927
14.810	-0.003920
14.815	-0.003921
14.820	-0.003914
14.825	-0.003955
14.830	-0.003908
14.835	-0.003949
14.840	-0.003969
14.845	-0.003901
14.850	-0.003942
14.855	-0.003956
14.860	-0.003943
14.865	-0.003929
14.870	-0.003929
14.875	-0.003963
14.880	-0.003943
14.885	-0.003956
14.890	-0.003950
14.895	-0.003957
14.900	-0.003984
14.905	-0.003970
14.910	-0.003950
14.915	-0.003998
14.920	-0.003998
14.925	-0.003978
14.930	-0.003992
14.935	-0.003977
14.940	-0.003970
14.945	-0.004011
14.950	-0.003998
14.955	-0.003984
14.960	-0.003977
14.965	-0.003991
14.970	-0.003997
14.975	-0.003963
14.980	-0.003983
14.985	-0.004025
14.990	-0.003998
14.995	-0.003991
15.000	-0.004011
15.005	-0.004011
15.010	-0.004018
15.015	-0.003997
15.020	-0.004004
15.025	-0.004004
15.030	-0.004011
15.035	-0.004045
15.040	-0.004018
15.045	-0.004039
15.050	-0.004038
15.055	-0.004053
15.060	-0.004018
15.065	-0.004046
15.070	-0.004059
15.075	-0.004031
15.080	-0.004045
15.085	-0.004018
15.090	-0.004066
15.095	-0.004011
15.100	-0.004024
15.105	-0.004052
15.110	-0.004080
15.115	-0.004073
15.120	-0.004100
15.125	-0.004094
15.130	-0.004080
15.135	-0.004108
15.140	-0.004087
15.145	-0.004087
15.150	-0.004073
15.155	-0.004073
15.160	-0.004087
15.165	-0.004073
15.170	-0.004067
15.175	-0.004073
15.180	-0.004101
15.185	-0.004121
15.190	-0.004136
15.195	-0.004088
15.200	-0.004108
15.205	-0.004136
15.210	-0.004115
15.215	-0.004122
15.220	-0.004136
15.225	-0.004115
15.230	-0.004122
15.235	-0.004129
15.240	-0.004129
15.245	-0.004143
15.250	-0.004122
15.255	-0.004137
15.260	-0.004172
15.265	-0.004178
15.270	-0.004157
15.275	-0.004151
15.280	-0.004151
15.285	-0.004192
15.290	-0.004192
15.295	-0.004165
15.300	-0.004165
15.305	-0.004172
15.310	-0.004172
15.315	-0.004165
15.320	-0.004199
15.325	-0.004186
15.330	-0.004187
15.335	-0.004193
15.340	-0.004186
15.345	-0.004193
15.350	-0.004207
15.355	-0.004200
15.360	-0.004214
15.365	-0.004207
15.370	-0.004214
15.375	-0.004221
15.380	-0.004214
15.385	-0.004221
15.390	-0.004201
15.395	-0.004257
15.400	-0.004242
15.405	-0.004242
15.410	-0.004222
15.415	-0.004236
15.420	-0.004263
15.425	-0.004235
15.430	-0.004243
15.435	-0.004277
15.440	-0.004270
15.445	-0.004263
15.450	-0.004256
15.455	-0.004257
15.460	-0.004251
15.465	-0.004244
15.470	-0.004270
15.475	-0.004270
15.480	-0.004298
15.485	-0.004291
15.490	-0.004277
15.495	-0.004319
15.500	-0.004291
15.505	-0.004319
15.510	-0.004312
15.515	-0.004284
15.520	-0.004319
15.525	-0.004313
15.530	-0.004278
15.535	-0.004278
15.540	-0.004353
15.545	-0.004333
15.550	-0.004326
15.555	-0.004347
15.560	-0.004285
15.565	-0.004312
15.570	-0.004347
15.575	-0.004353
15.580	-0.004311
15.585	-0.004312
15.590	-0.004319
15.595	-0.004340
15.600	-0.004339
15.605	-0.004359
15.610	-0.004346
15.615	-0.004339
15.620	-0.004339
15.625	-0.004373
15.630	-0.004367
15.635	-0.004380
15.640	-0.004387
15.645	-0.004367
15.650	-0.004380
15.655	-0.004360
15.660	-0.004381
15.665	-0.004374
15.670	-0.004428
15.675	-0.004387
15.680	-0.004380
15.685	-0.004387
15.690	-0.004421
15.695	-0.004408
15.700	-0.004380
15.705	-0.004380
15.710	-0.004380
15.715	-0.004420
15.720	-0.004414
15.725	-0.004401
15.730	-0.004415
15.735	-0.004428
15.740	-0.004428
15.745	-0.004448
15.750	-0.004420
15.755	-0.004421
15.760	-0.004421
15.765	-0.004449
15.770	-0.004421
15.775	-0.004442
15.780	-0.004456
15.785	-0.004449
15.790	-0.004456
15.795	-0.004456
15.800	-0.004462
15.805	-0.004469
15.810	-0.004462
15.815	-0.004476
15.820	-0.004455
15.825	-0.004483
15.830	-0.004462
15.835	-0.004483
15.840	-0.004462
15.845	-0.004489
15.850	-0.004475
15.855	-0.004490
15.860	-0.004497
15.865	-0.004497
15.870	-0.004516
15.875	-0.004509
15.880	-0.004530
15.885	-0.004496
15.890	-0.004503
15.895	-0.004509
15.900	-0.004496
15.905	-0.004531
15.910	-0.004489
15.915	-0.004537
15.920	-0.004511
15.925	-0.004525
15.930	-0.004552
15.935	-0.004565
15.940	-0.004551
15.945	-0.004538
15.950	-0.004572
15.955	-0.004551
15.960	-0.004565
15.965	-0.004531
15.970	-0.004558
15.975	-0.004586
15.980	-0.004551
15.985	-0.004572
15.990	-0.004566
15.995	-0.004573
16.000	-0.004606
16.005	-0.004593
16.010	-0.004593
16.015	-0.004606
16.020	-0.004613
16.025	-0.004593
16.030	-0.004579
16.035	-0.004621
16.040	-0.004634
16.045	-0.004614
16.050	-0.004614
16.055	-0.004608
16.060	-0.004608
16.065	-0.004642
16.070	-0.004642
16.075	-0.004628
16.080	-0.004642
16.085	-0.004628
16.090	-0.004656
16.095	-0.004670
16.100	-0.004669
16.105	-0.004649
16.110	-0.004649
16.115	-0.004628
16.120	-0.004670
16.125	-0.004691
16.130	-0.004691
16.135	-0.004684
16.140	-0.004663
16.145	-0.004670
16.150	-0.004670
16.155	-0.004704
16.160	-0.004690
16.165	-0.004697
16.170	-0.004718
16.175	-0.004704
16.180	-0.004725
16.185	-0.004704
16.190	-0.004712
16.195	-0.004712
16.200	-0.004725
16.205	-0.004725
16.210	-0.004732
16.215	-0.004732
16.220	-0.004760
16.225	-0.004712
16.230	-0.004753
16.235	-0.004732
16.240	-0.004739
16.245	-0.004739
16.250	-0.004739
16.255	-0.004761
16.260	-0.004761
16.265	-0.004795
16.270	-0.004780
16.275	-0.004767
16.280	-0.004794
16.285	-0.004801
16.290	-0.004767
16.295	-0.004788
16.300	-0.004822
16.305	-0.004781
16.310	-0.004788
16.315	-0.004775
16.320	-0.004782
16.325	-0.004811
16.330	-0.004811
16.335	-0.004830
16.340	-0.004837
16.345	-0.004809
16.350	-0.004810
16.355	-0.004817
16.360	-0.004782
16.365	-0.004838
16.370	-0.004844
16.375	-0.004831
16.380	-0.004858
16.385	-0.004865
16.390	-0.004832
16.395	-0.004887
16.400	-0.004852
16.405	-0.004873
16.410	-0.004873
16.415	-0.004859
16.420	-0.004879
16.425	-0.004873
16.430	-0.004879
16.435	-0.004866
16.440	-0.004886
16.445	-0.004921
16.450	-0.004893
16.455	-0.004874
16.460	-0.004894
16.465	-0.004907
16.470	-0.004907
16.475	-0.004893
16.480	-0.004907
16.485	-0.004928
16.490	-0.004900
16.495	-0.004893
16.500	-0.004907
16.505	-0.004900
16.510	-0.004941
16.515	-0.004927
16.520	-0.004948
16.525	-0.004942
16.530	-0.004949
16.535	-0.004941
16.540	-0.004955
16.545	-0.004996
16.550	-0.004948
16.555	-0.004975
16.560	-0.004982
16.565	-0.004955
16.570	-0.004955
16.575	-0.004941
16.580	-0.004989
16.585	-0.004963
16.590	-0.004991
16.595	-0.004992
16.600	-0.005024
16.605	-0.005004
16.610	-0.005004
16.615	-0.004990
16.620	-0.005018
16.625	-0.005012
16.630	-0.005012
16.635	-0.005019
16.640	-0.005012
16.645	-0.005053
16.650	-0.005046
16.655	-0.005027
16.660	-0.005020
16.665	-0.005060
16.670	-0.005046
16.675	-0.005068
16.680	-0.005053
16.685	-0.005033
16.690	-0.005033
16.695	-0.005061
16.700	-0.005040
16.705	-0.005067
16.710	-0.005094
16.715	-0.005088
16.720	-0.005089
16.725	-0.005090
16.730	-0.005069
16.735	-0.005095
16.740	-0.005082
16.745	-0.005110
16.750	-0.005117
16.755	-0.005111
16.760	-0.005118
16.765	-0.005145
16.770	-0.005111
16.775	-0.005132
16.780	-0.005132
16.785	-0.005153
16.790	-0.005161
16.795	-0.005134
16.800	-0.005181
16.805	-0.005160
16.810	-0.005167
16.815	-0.005161
16.820	-0.005189
16.825	-0.005197
16.830	-0.005176
16.835	-0.005169
16.840	-0.005231
16.845	-0.005217
16.850	-0.005176
16.855	-0.005219
16.860	-0.005234
16.865	-0.005213
16.870	-0.005220
16.875	-0.005227
16.880	-0.005227
16.885	-0.005220
16.890	-0.005256
16.895	-0.005201
16.900	-0.005243
16.905	-0.005250
16.910	-0.005250
16.915	-0.005277
16.920	-0.005257
16.925	-0.005299
16.930	-0.005278
16.935	-0.005276
16.940	-0.005318
16.945	-0.005298
16.950	-0.005271
16.955	-0.005285
16.960	-0.005312
16.965	-0.005319
16.970	-0.005311
16.975	-0.005304
16.980	-0.005324
16.985	-0.005318
16.990	-0.005305
16.995	-0.005353
17.000	-0.005331
17.005	-0.005325
17.010	-0.005332
17.015	-0.005339
17.020	-0.005386
17.025	-0.005366
17.030	-0.005352
17.035	-0.005373
17.040	-0.005351
17.045	-0.005358
17.050	-0.005378
17.055	-0.005386
17.060	-0.005386
17.065	-0.005378
17.070	-0.005370
17.075	-0.005419
17.080	-0.005418
17.085	-0.005405
17.090	-0.005411
17.095	-0.005419
17.100	-0.005384
17.105	-0.005426
17.110	-0.005411
17.115	-0.005460
17.120	-0.005434
17.125	-0.005442
17.130	-0.005475
17.135	-0.005460
17.140	-0.005466
17.145	-0.005432
17.150	-0.005453
17.155	-0.005467
17.160	-0.005439
17.165	-0.005467
17.170	-0.005480
17.175	-0.005487
17.180	-0.005466
17.185	-0.005501
17.190	-0.005474
17.195	-0.005474
17.200	-0.005472
17.205	-0.005500
17.210	-0.005500
17.215	-0.005487
17.220	-0.005507
17.225	-0.005514
17.230	-0.005535
17.235	-0.005494
17.240	-0.005556
17.245	-0.005550
17.250	-0.005515
17.255	-0.005537
17.260	-0.005544
17.265	-0.005537
17.270	-0.005550
17.275	-0.005578
17.280	-0.005578
17.285	-0.005557
17.290	-0.005584
17.295	-0.005585
17.300	-0.005592
17.305	-0.005591
17.310	-0.005604
17.315	-0.005591
17.320	-0.005599
17.325	-0.005607
17.330	-0.005633
17.335	-0.005654
17.340	-0.005626
17.345	-0.005661
17.350	-0.005633
17.355	-0.005612
17.360	-0.005627
17.365	-0.005648
17.370	-0.005648
17.375	-0.005648
17.380	-0.005647
17.385	-0.005634
17.390	-0.005676
17.395	-0.005697
17.400	-0.005668
17.405	-0.005696
17.410	-0.005676
17.415	-0.005675
17.420	-0.005682
17.425	-0.005682
17.430	-0.005703
17.435	-0.005717
17.440	-0.005743
17.445	-0.005695
17.450	-0.005709
17.455	-0.005696
17.460	-0.005704
17.465	-0.005730
17.470	-0.005743
17.475	-0.005715
17.480	-0.005729
17.485	-0.005722
17.490	-0.005756
17.495	-0.005750
17.500	-0.005756
17.505	-0.005770
17.510	-0.005777
17.515	-0.005770
17.520	-0.005779
17.525	-0.005814
17.530	-0.005799
17.535	-0.005811
17.540	-0.005839
17.545	-0.005833
17.550	-0.005798
17.555	-0.005841
17.560	-0.005807
17.565	-0.005855
17.570	-0.005813
17.575	-0.005841
17.580	-0.005840
17.585	-0.005862
17.590	-0.005876
17.595	-0.005883
17.600	-0.005860
17.605	-0.005881
17.610	-0.005853
17.615	-0.005888
17.620	-0.005881
17.625	-0.005888
17.630	-0.005915
17.635	-0.005895
17.640	-0.005908
17.645	-0.005909
17.650	-0.005916
17.655	-0.005938
17.660	-0.005945
17.665	-0.005943
17.670	-0.005963
17.675	-0.005957
17.680	-0.005977
17.685	-0.005942
17.690	-0.005970
17.695	-0.005990
17.700	-0.005990
17.705	-0.005990
17.710	-0.005997
17.715	-0.005997
17.720	-0.006018
17.725	-0.006011
17.730	-0.006038
17.735	-0.006031
17.740	-0.006037
17.745	-0.006016
17.750	-0.006031
17.755	-0.006044
17.760	-0.006050
17.765	-0.006070
17.770	-0.006077
17.775	-0.006057
17.780	-0.006077
17.785	-0.006085
17.790	-0.006099
17.795	-0.006079
17.800	-0.006091
17.805	-0.006117
17.810	-0.006103
17.815	-0.006138
17.820	-0.006131
17.825	-0.006138
17.830	-0.006144
17.835	-0.006115
17.840	-0.006150
17.845	-0.006163
17.850	-0.006156
17.855	-0.006178
17.860	-0.006192
17.865	-0.006184
17.870	-0.006204
17.875	-0.006182
17.880	-0.006168
17.885	-0.006182
17.890	-0.006168
17.895	-0.006209
17.900	-0.006223
17.905	-0.006208
17.910	-0.006153
17.915	-0.006236
17.920	-0.006224
17.925	-0.006238
17.930	-0.006251
17.935	-0.006257
17.940	-0.006263
17.945	-0.006257
17.950	-0.006271
17.955	-0.006271
17.960	-0.006263
17.965	-0.006271
17.970	-0.006286
17.975	-0.006306
17.980	-0.006360
17.985	-0.006347
17.990	-0.006315
17.995	-0.006322
18.000	-0.006299
18.005	-0.006334
18.010	-0.006375
18.015	-0.006354
18.020	-0.006361
18.025	-0.006347
18.030	-0.006368
18.035	-0.006383
18.040	-0.006362
18.045	-0.006376
18.050	-0.006391
18.055	-0.006385
18.060	-0.006392
18.065	-0.006412
18.070	-0.006412
18.075	-0.006398
18.080	-0.006446
18.085	-0.006453
18.090	-0.006433
18.095	-0.006419
18.100	-0.006441
18.105	-0.006447
18.110	-0.006446
18.115	-0.006460
18.120	-0.006489
18.125	-0.006497
18.130	-0.006489
18.135	-0.006480
18.140	-0.006527
18.145	-0.006480
18.150	-0.006494
18.155	-0.006515
18.160	-0.006501
18.165	-0.006508
18.170	-0.006494
18.175	-0.006550
18.180	-0.006543
18.185	-0.006558
18.190	-0.006586
18.195	-0.006566
18.200	-0.006544
18.205	-0.006586
18.210	-0.006579
18.215	-0.006600
18.220	-0.006634
18.225	-0.006559
18.230	-0.006600
18.235	-0.006634
18.240	-0.006628
18.245	-0.006641
18.250	-0.006668
18.255	-0.006664
18.260	-0.006679
18.265	-0.006622
18.270	-0.006663
18.275	-0.006697
18.280	-0.006676
18.285	-0.006676
18.290	-0.006710
18.295	-0.006683
18.300	-0.006724
18.305	-0.006718
18.310	-0.006717
18.315	-0.006760
18.320	-0.006741
18.325	-0.006749
18.330	-0.006760
18.335	-0.006760
18.340	-0.006773
18.345	-0.006780
18.350	-0.006780
18.355	-0.006773
18.360	-0.006808
18.365	-0.006815
18.370	-0.006800
18.375	-0.006814
18.380	-0.006856
18.385	-0.006844
18.390	-0.006858
18.395	-0.006872
18.400	-0.006856
18.405	-0.006870
18.410	-0.006891
18.415	-0.006877
18.420	-0.006884
18.425	-0.006877
18.430	-0.006912
18.435	-0.006892
18.440	-0.006941
18.445	-0.006941
18.450	-0.006948
18.455	-0.006950
18.460	-0.006964
18.465	-0.006969
18.470	-0.006983
18.475	-0.006977
18.480	-0.006977
18.485	-0.006984
18.490	-0.006978
18.495	-0.007000
18.500	-0.006999
18.505	-0.007013
18.510	-0.007034
18.515	-0.007000
18.520	-0.007037
18.525	-0.007058
18.530	-0.007056
18.535	-0.007043
18.540	-0.007051
18.545	-0.007057
18.550	-0.007071
18.555	-0.007105
18.560	-0.007085
18.565	-0.007080
18.570	-0.007120
18.575	-0.007149
18.580	-0.007141
18.585	-0.007150
18.590	-0.007150
18.595	-0.007144
18.600	-0.007170
18.605	-0.007198
18.610	-0.007177
18.615	-0.007197
18.620	-0.007210
18.625	-0.007204
18.630	-0.007197
18.635	-0.007247
18.640	-0.007225
18.645	-0.007254
18.650	-0.007254
18.655	-0.007255
18.660	-0.007283
18.665	-0.007247
18.670	-0.007288
18.675	-0.007295
18.680	-0.007296
18.685	-0.007297
18.690	-0.007311
18.695	-0.007318
18.700	-0.007352
18.705	-0.007358
18.710	-0.007372
18.715	-0.007346
18.720	-0.007424
18.725	-0.007348
18.730	-0.007395
18.735	-0.007407
18.740	-0.007394
18.745	-0.007394
18.750	-0.007408
18.755	-0.007423
18.760	-0.007429
18.765	-0.007429
18.770	-0.007450
18.775	-0.007491
18.780	-0.007484
18.785	-0.007457
18.790	-0.007472
18.795	-0.007493
18.800	-0.007505
18.805	-0.007526
18.810	-0.007546
18.815	-0.007539
18.820	-0.007553
18.825	-0.007547
18.830	-0.007569
18.835	-0.007563
18.840	-0.007582
18.845	-0.007596
18.850	-0.007598
18.855	-0.007614
18.860	-0.007593
18.865	-0.007646
18.870	-0.007689
18.875	-0.007655
18.880	-0.007657
18.885	-0.007692
18.890	-0.007659
18.895	-0.007686
18.900	-0.007714
18.905	-0.007696
18.910	-0.007696
18.915	-0.007724
18.920	-0.007739
18.925	-0.007740
18.930	-0.007725
18.935	-0.007760
18.940	-0.007759
18.945	-0.007778
18.950	-0.007791
18.955	-0.007819
18.960	-0.007791
18.965	-0.007805
18.970	-0.007812
18.975	-0.007800
18.980	-0.007787
18.985	-0.007851
18.990	-0.007849
18.995	-0.007818
19.000	-0.007863
19.005	-0.007883
19.010	-0.007909
19.015	-0.007887
19.020	-0.007928
19.025	-0.007943
19.030	-0.007916
19.035	-0.007922
19.040	-0.007969
19.045	-0.007989
19.050	-0.007976
19.055	-0.007985
19.060	-0.007999
19.065	-0.008024
19.070	-0.008044
19.075	-0.008072
19.080	-0.008057
19.085	-0.008043
19.090	-0.008070
19.095	-0.008050
19.100	-0.008085
19.105	-0.008091
19.110	-0.008119
19.115	-0.008134
19.120	-0.008156
19.125	-0.008157
19.130	-0.008154
19.135	-0.008176
19.140	-0.008162
19.145	-0.008204
19.150	-0.008252
19.155	-0.008233
19.160	-0.008240
19.165	-0.008254
19.170	-0.008274
19.175	-0.008258
19.180	-0.008271
19.185	-0.008273
19.190	-0.008289
19.195	-0.008352
19.200	-0.008364
19.205	-0.008352
19.210	-0.008374
19.215	-0.008375
19.220	-0.008369
19.225	-0.008397
19.230	-0.008447
19.235	-0.008449
19.240	-0.008443
19.245	-0.008466
19.250	-0.008442
19.255	-0.008485
19.260	-0.008513
19.265	-0.008518
19.270	-0.008503
19.275	-0.008509
19.280	-0.008543
19.285	-0.008531
19.290	-0.008516
19.295	-0.008579
19.300	-0.008571
19.305	-0.008585
19.310	-0.008598
19.315	-0.008619
19.320	-0.008585
19.325	-0.008634
19.330	-0.008631
19.335	-0.008650
19.340	-0.008649
19.345	-0.008649
19.350	-0.008676
19.355	-0.008710
19.360	-0.008688
19.365	-0.008702
19.370	-0.008727
19.375	-0.008761
19.380	-0.008767
19.385	-0.008755
19.390	-0.008817
19.395	-0.008808
19.400	-0.008826
19.405	-0.008800
19.410	-0.008855
19.415	-0.008849
19.420	-0.008835
19.425	-0.008904
19.430	-0.008905
19.435	-0.008925
19.440	-0.008882
19.445	-0.008908
19.450	-0.008971
19.455	-0.008959
19.460	-0.008946
19.465	-0.009000
19.470	-0.008999
19.475	-0.009054
19.480	-0.009033
19.485	-0.009034
19.490	-0.009067
19.495	-0.009076
19.500	-0.009103
19.505	-0.009083
19.510	-0.009144
19.515	-0.009128
19.520	-0.009150
19.525	-0.009145
19.530	-0.009184
19.535	-0.009185
19.540	-0.009220
19.545	-0.009194
19.550	-0.009249
19.555	-0.009236
19.560	-0.009256
19.565	-0.009237
19.570	-0.009277
19.575	-0.009291
19.580	-0.009284
19.585	-0.009307
19.590	-0.009365
19.595	-0.009351
19.600	-0.009342
19.605	-0.009372
19.610	-0.009379
19.615	-0.009392
19.620	-0.009447
19.625	-0.009448
19.630	-0.009435
19.635	-0.009464
19.640	-0.009497
19.645	-0.009489
19.650	-0.009533
19.655	-0.009556
19.660	-0.009534
19.665	-0.009566
19.670	-0.009603
19.675	-0.009599
19.680	-0.009626
19.685	-0.009614
19.690	-0.009658
19.695	-0.009628
19.700	-0.009635
19.705	-0.009658
19.710	-0.009687
19.715	-0.009710
19.720	-0.009746
19.725	-0.009740
19.730	-0.009752
19.735	-0.009795
19.740	-0.009817
19.745	-0.009822
19.750	-0.009863
19.755	-0.009854
19.760	-0.009884
19.765	-0.009899
19.770	-0.009941
19.775	-0.009942
19.780	-0.009968
19.785	-0.009985
19.790	-0.009980
19.795	-0.010035
19.800	-0.010065
19.805	-0.010067
19.810	-0.010066
19.815	-0.010066
19.820	-0.010114
19.825	-0.010122
19.830	-0.010157
19.835	-0.010165
19.840	-0.010194
19.845	-0.010194
19.850	-0.010216
19.855	-0.010238
19.860	-0.010259
19.865	-0.010307
19.870	-0.010314
19.875	-0.010340
19.880	-0.010324
19.885	-0.010371
19.890	-0.010404
19.895	-0.010409
19.900	-0.010421
19.905	-0.010453
19.910	-0.010465
19.915	-0.010458
19.920	-0.010487
19.925	-0.010520
19.930	-0.010535
19.935	-0.010561
19.940	-0.010594
19.945	-0.010594
19.950	-0.010655
19.955	-0.010635
19.960	-0.010682
19.965	-0.010695
19.970	-0.010743
19.975	-0.010755
19.980	-0.010782
19.985	-0.010785
19.990	-0.010826
19.995	-0.010851
20.000	-0.010855
20.005	-0.010870
20.010	-0.010916
20.015	-0.010916
20.020	-0.010944
20.025	-0.010979
20.030	-0.010959
20.035	-0.011015
20.040	-0.011043
20.045	-0.011052
20.050	-0.011110
20.055	-0.011146
20.060	-0.011160
20.065	-0.011171
20.070	-0.011185
20.075	-0.011219
20.080	-0.011227
20.085	-0.011265
20.090	-0.011314
20.095	-0.011323
20.100	-0.011358
20.105	-0.011385
20.110	-0.011410
20.115	-0.011417
20.120	-0.011462
20.125	-0.011463
20.130	-0.011501
20.135	-0.011531
20.140	-0.011532
20.145	-0.011580
20.150	-0.011594
20.155	-0.011608
20.160	-0.011650
20.165	-0.011666
20.170	-0.011688
20.175	-0.011703
20.180	-0.011753
20.185	-0.011723
20.190	-0.011816
20.195	-0.011857
20.200	-0.011883
20.205	-0.011914
20.210	-0.011938
20.215	-0.011967
20.220	-0.011988
20.225	-0.012011
20.230	-0.012001
20.235	-0.012040
20.240	-0.012089
20.245	-0.012118
20.250	-0.012141
20.255	-0.012153
20.260	-0.012182
20.265	-0.012207
20.270	-0.012272
20.275	-0.012300
20.280	-0.012312
20.285	-0.012354
20.290	-0.012353
20.295	-0.012401
20.300	-0.012422
20.305	-0.012492
20.310	-0.012491
20.315	-0.012521
20.320	-0.012582
20.325	-0.012619
20.330	-0.012643
20.335	-0.012679
20.340	-0.012711
20.345	-0.012729
20.350	-0.012784
20.355	-0.012798
20.360	-0.012820
20.365	-0.012833
20.370	-0.012922
20.375	-0.012929
20.380	-0.013002
20.385	-0.013003
20.390	-0.013069
20.395	-0.013112
20.400	-0.013127
20.405	-0.013138
20.410	-0.013195
20.415	-0.013221
20.420	-0.013241
20.425	-0.013303
20.430	-0.013318
20.435	-0.013351
20.440	-0.013413
20.445	-0.013430
20.450	-0.013494
20.455	-0.013538
20.460	-0.013614
20.465	-0.013626
20.470	-0.013671
20.475	-0.013728
20.480	-0.013800
20.485	-0.013865
20.490	-0.013923
20.495	-0.013953
20.500	-0.014017
20.505	-0.014043
20.510	-0.014092
20.515	-0.014126
20.520	-0.014141
20.525	-0.014200
20.530	-0.014233
20.535	-0.014252
20.540	-0.014316
20.545	-0.014341
20.550	-0.014423
20.555	-0.014438
20.560	-0.014467
20.565	-0.014524
20.570	-0.014604
20.575	-0.014611
20.580	-0.014679
20.585	-0.014672
20.590	-0.014700
20.595	-0.014786
20.600	-0.014823
20.605	-0.014856
20.610	-0.014938
20.615	-0.014936
20.620	-0.015012
20.625	-0.015083
20.630	-0.015149
20.635	-0.015200
20.640	-0.015265
20.645	-0.015354
20.650	-0.015395
20.655	-0.015476
20.660	-0.015529
20.665	-0.015573
20.670	-0.015637
20.675	-0.015689
20.680	-0.015767
20.685	-0.015798
20.690	-0.015876
20.695	-0.015923
20.700	-0.016004
20.705	-0.016006
20.710	-0.016139
20.715	-0.016197
20.720	-0.016282
20.725	-0.016359
20.730	-0.016422
20.735	-0.016478
20.740	-0.016512
20.745	-0.016572
20.750	-0.016657
20.755	-0.016696
20.760	-0.016781
20.765	-0.016889
20.770	-0.016952
20.775	-0.017075
20.780	-0.017219
20.785	-0.017267
20.790	-0.017373
20.795	-0.017448
20.800	-0.017503
20.805	-0.017626
20.810	-0.017700
20.815	-0.017775
20.820	-0.017887
20.825	-0.017952
20.830	-0.018050
20.835	-0.018189
20.840	-0.018254
20.845	-0.018364
20.850	-0.018462
20.855	-0.018569
20.860	-0.018627
20.865	-0.018763
20.870	-0.018854
20.875	-0.018953
20.880	-0.019066
20.885	-0.019207
20.890	-0.019319
20.895	-0.019403
20.900	-0.019533
20.905	-0.019613
20.910	-0.019694
20.915	-0.019795
20.920	-0.019859
20.925	-0.019960
20.930	-0.020057
20.935	-0.020149
20.940	-0.020332
20.945	-0.020436
20.950	-0.020572
20.955	-0.020683
20.960	-0.020795
20.965	-0.020960
20.970	-0.021072
20.975	-0.021198
20.980	-0.021325
20.985	-0.021422
20.990	-0.021554
20.995	-0.021663
21.000	-0.021872
21.005	-0.022056
21.010	-0.022178
21.015	-0.022336
21.020	-0.022494
21.025	-0.022665
21.030	-0.022877
21.035	-0.023051
21.040	-0.023286
21.045	-0.023471
21.050	-0.023702
21.055	-0.023927
21.060	-0.024096
21.065	-0.024296
21.070	-0.024480
21.075	-0.024759
21.080	-0.024986
21.085	-0.025245
21.090	-0.025418
21.095	-0.025651
21.100	-0.025959
21.105	-0.026257
21.110	-0.026530
21.115	-0.026813
21.120	-0.027052
21.125	-0.027363
21.130	-0.027770
21.135	-0.028133
21.140	-0.028525
21.145	-0.028952
21.150	-0.029091
21.155	-0.029190
21.160	-0.029612
21.165	-0.029823
21.170	-0.030281
21.175	-0.030954
21.180	-0.031419
21.185	-0.031892
21.190	-0.032487
21.195	-0.032984
21.200	-0.033564
21.205	-0.034203
21.210	-0.034729
21.215	-0.035197
21.220	-0.035966
21.225	-0.037066
21.230	-0.037762
21.235	-0.038853
21.240	-0.039503
21.245	-0.039673
21.250	-0.041418
21.255	-0.042749
21.260	-0.043026
21.265	-0.043989
21.270	-0.045165
21.275	-0.046401
21.280	-0.047314
21.285	-0.047847
21.290	-0.047902
21.295	-0.047752
21.300	-0.047267
21.305	-0.046324
21.310	-0.044727
21.315	-0.042452
21.320	-0.039641
21.325	-0.036236
21.330	-0.032372
21.335	-0.028472
21.340	-0.024550
21.345	-0.020373
21.350	-0.015791
21.355	-0.011289
21.360	-0.007410
21.365	-0.004478
21.370	-0.002579
21.375	-0.001406
21.380	-0.000722
21.385	-0.000445
21.390	-0.000269
21.395	-0.000189
21.400	-0.000088
21.405	-0.000074
21.410	-0.000054
21.415	-0.000000
21.420	-0.000047
21.425	-0.000000
21.430	-0.000048
21.435	-0.000000
21.440	-0.000014
21.445	-0.000041
21.450	0.000034
21.455	-0.000007
21.460	0.000027
21.465	0.000019
21.470	0.000026
21.475	-0.000008
21.480	-0.000001
21.485	0.000013
21.490	-0.000008
21.495	0.000060
21.500	0.000019
21.505	-0.000008
21.510	0.000033
21.515	0.000027
21.520	0.000007
21.525	0.000040
21.530	0.000026
21.535	0.000019
21.540	0.000040
21.545	0.000026
21.550	0.000033
21.555	0.000060
21.560	0.000060
21.565	0.000060
21.570	0.000005
21.575	0.000039
21.580	0.000053
21.585	0.000060
21.590	0.000033
21.595	0.000026
21.600	0.000025
21.605	0.000032
21.610	0.000032
21.615	0.000039
21.620	0.000019
21.625	0.000012
21.630	0.000032
21.635	0.000039
21.640	0.000012
21.645	0.000046
21.650	0.000046
21.655	0.000033
21.660	0.000012
21.665	0.000012
21.670	0.000018
21.675	0.000012
21.680	0.000032
21.685	0.000032
21.690	0.000025
21.695	0.000025
21.700	0.000052
21.705	0.000059
21.710	-0.000002
21.715	0.000059
21.720	0.000053
21.725	0.000059
21.730	0.000025
21.735	0.000038
21.740	0.000045
21.745	0.000018
21.750	0.000031
21.755	0.000032
21.760	0.000052
21.765	0.000045
21.770	0.000025
21.775	0.000031
21.780	0.000018
21.785	0.000019
21.790	0.000039
21.795	0.000038
21.800	0.000031
21.805	0.000025
21.810	0.000058
21.815	0.000011
21.820	0.000038
21.825	0.000058
21.830	0.000058
21.835	0.000045
21.840	0.000024
21.845	0.000051
21.850	0.000045
21.855	0.000059
21.860	0.000025
21.865	0.000011
21.870	0.000024
21.875	0.000031
21.880	0.000010
21.885	0.000024
21.890	0.000037
21.895	0.000044
21.900	0.000051
21.905	0.000017
21.910	0.000024
21.915	0.000045
21.920	0.000025
21.925	0.000045
21.930	0.000044
21.935	0.000031
21.940	0.000031
21.945	0.000031
21.950	0.000057
21.955	0.000037
21.960	0.000037
21.965	0.000058
21.970	0.000030
21.975	0.000044
21.980	0.000091
21.985	0.000024
21.990	0.000017
21.995	0.000044
22.000	0.000023
22.005	0.000050
22.010	0.000064
22.015	0.000023
22.020	0.000057
22.025	0.000037
22.030	0.000037
22.035	0.000030
22.040	0.000030
22.045	0.000037
22.050	0.000044
22.055	0.000024
22.060	0.000024
22.065	0.000023
22.070	0.000030
22.075	0.000016
22.080	0.000037
22.085	0.000050
22.090	0.000057
22.095	0.000050
22.100	0.000030
22.105	0.000030
22.110	0.000023
22.115	0.000044
22.120	0.000051
22.125	0.000037
22.130	0.000050
22.135	0.000030
22.140	0.000036
22.145	0.000036
22.150	0.000057
22.155	0.000043
22.160	0.000043
22.165	0.000036
22.170	0.000043
22.175	0.000056
22.180	0.000064
22.185	0.000044
22.190	0.000010
22.195	0.000022
22.200	0.000022
22.205	0.000022
22.210	0.000036
22.215	0.000036
22.220	0.000036
22.225	0.000056
22.230	0.000050
22.235	0.000043
22.240	0.000043
22.245	0.000063
22.250	0.000043
22.255	0.000023
22.260	0.000016
22.265	0.000063
22.270	0.000015
22.275	0.000069
22.280	0.000042
22.285	0.000042
22.290	0.000008
22.295	0.000042
22.300	0.000042
22.305	0.000056
22.310	0.000042
22.315	0.000002
22.320	0.000050
22.325	0.000043
22.330	0.000036
22.335	0.000035
22.340	0.000042
22.345	0.000029
22.350	0.000049
22.355	0.000022
22.360	0.000035
22.365	0.000029
22.370	0.000042
22.375	0.000056
22.380	0.000029
22.385	0.000029
22.390	0.000009
22.395	0.000028
22.400	0.000035
22.405	0.000042
22.410	0.000021
22.415	0.000069
22.420	0.000042
22.425	0.000022
22.430	0.000055
22.435	0.000055
22.440	0.000028
22.445	0.000028
22.450	0.000036
22.455	0.000029
22.460	0.000035
22.465	0.000055
22.470	0.000049
22.475	0.000021
22.480	0.000042
22.485	0.000028
22.490	0.000055
22.495	0.000062
22.500	0.000042
22.505	0.000055
22.510	0.000028
22.515	0.000028
22.520	0.000022
22.525	0.000008
22.530	0.000014
22.535	0.000061
22.540	0.000048
22.545	0.000007
22.550	0.000048
22.555	0.000028
22.560	0.000034
22.565	0.000055
22.570	0.000028
22.575	0.000027
22.580	0.000021
22.585	0.000028
22.590	0.000021
22.595	0.000027
22.600	0.000007
22.605	0.000014
22.610	0.000027
22.615	0.000027
22.620	0.000027
22.625	0.000027
22.630	0.000014
22.635	0.000034
22.640	0.000027
22.645	0.000014
22.650	0.000014
22.655	0.000041
22.660	0.000000
22.665	0.000041
22.670	0.000040
22.675	0.000047
22.680	-0.000000
22.685	-0.000000
22.690	0.000054
22.695	0.000013
22.700	0.000013
22.705	0.000013
22.710	0.000013
22.715	0.000020
22.720	0.000021
22.725	0.000007
22.730	0.000047
22.735	0.000047
22.740	0.000013
22.745	0.000020
22.750	0.000033
22.755	0.000027
22.760	0.000034
22.765	0.000040
22.770	0.000026
22.775	0.000013
22.780	0.000027
22.785	0.000054
22.790	0.000014
22.795	0.000040
22.800	0.000026
22.805	0.000046
22.810	0.000033
22.815	0.000046
22.820	0.000026
22.825	0.000020
22.830	0.000013
22.835	0.000047
22.840	0.000026
22.845	0.000006
22.850	0.000013
22.855	0.000054
22.860	0.000006
22.865	0.000006
22.870	0.000033
22.875	0.000013
22.880	-0.000001
22.885	0.000006
22.890	0.000013
22.895	0.000013
22.900	0.000013
22.905	0.000039
22.910	-0.000008
22.915	0.000019
22.920	0.000027
22.925	0.000006
22.930	0.000019
22.935	0.000006
22.940	0.000026
22.945	0.000012
22.950	0.000012
22.955	0.000019
22.960	0.000033
22.965	0.000005
22.970	0.000032
22.975	0.000032
22.980	-0.000008
22.985	0.000026
22.990	0.000033
22.995	0.000012
23.000	0.000005
23.005	0.000026
23.010	-0.000002
23.015	0.000033
23.020	0.000039
23.025	0.000026
23.030	0.000032
23.035	0.000019
23.040	0.000025
23.045	0.000012
23.050	0.000033
23.055	0.000026
23.060	0.000039
23.065	0.000012
23.070	0.000025
23.075	-0.000002
23.080	-0.000016
23.085	0.000039
23.090	0.000032
23.095	-0.000002
23.100	0.000018
23.105	0.000066
23.110	0.000018
23.115	0.000033
23.120	0.000046
23.125	0.000059
23.130	0.000011
23.135	-0.000002
23.140	0.000032
23.145	0.000032
23.150	0.000012
23.155	0.000039
23.160	0.000005
23.165	-0.000009
23.170	0.000025
23.175	-0.000009
23.180	0.000018
23.185	0.000019
23.190	0.000019
23.195	0.000018
23.200	-0.000016
23.205	0.000025
23.210	-0.000002
23.215	0.000065
23.220	0.000052
23.225	0.000038
23.230	0.000018
23.235	0.000045
23.240	0.000018
23.245	0.000045
23.250	0.000026
23.255	0.000046
23.260	0.000004
23.265	-0.000003
23.270	0.000031
23.275	0.000011
23.280	0.000011
23.285	-0.000002
23.290	0.000018
23.295	0.000018
23.300	0.000031
23.305	0.000038
23.310	0.000017
23.315	0.000038
23.320	0.000011
23.325	-0.000003
23.330	0.000017
23.335	0.000038
23.340	0.000038
23.345	0.000010
23.350	-0.000003
23.355	0.000011
23.360	0.000024
23.365	0.000024
23.370	0.000051
23.375	0.000011
23.380	0.000018
23.385	0.000032
23.390	0.000018
23.395	0.000004
23.400	0.000031
23.405	0.000010
23.410	0.000010
23.415	0.000004
23.420	0.000017
23.425	0.000024
23.430	0.000010
23.435	0.000037
23.440	0.000003
23.445	0.000010
23.450	0.000024
23.455	0.000011
23.460	0.000023
23.465	0.000057
23.470	0.000010
23.475	0.000003
23.480	-0.000011
23.485	0.000037
23.490	0.000030
23.495	-0.000010
23.500	0.000030
23.505	-0.000010
23.510	0.000030
23.515	0.000031
23.520	0.000024
23.525	0.000037
23.530	0.000037
23.535	-0.000004
23.540	0.000010
23.545	0.000023
23.550	0.000030
23.555	-0.000010
23.560	0.000003
23.565	0.000023
23.570	0.000030
23.575	0.000016
23.580	0.000030
23.585	0.000030
23.590	-0.000004
23.595	0.000023
23.600	0.000009
23.605	0.000023
23.610	0.000030
23.615	-0.000004
23.620	0.000016
23.625	0.000009
23.630	0.000030
23.635	0.000023
23.640	-0.000018
23.645	0.000016
23.650	0.000044
23.655	-0.000003
23.660	-0.000004
23.665	0.000016
23.670	0.000009
23.675	-0.000004
23.680	0.000030
23.685	0.000009
23.690	-0.000018
23.695	-0.000004
23.700	0.000023
23.705	0.000009
23.710	0.000002
23.715	0.000016
23.720	0.000010
23.725	0.000002
23.730	0.000036
23.735	-0.000011
23.740	0.000022
23.745	0.000029
23.750	0.000009
23.755	0.000029
23.760	0.000016
23.765	0.000016
23.770	0.000009
23.775	0.000009
23.780	0.000016
23.785	0.000003
23.790	0.000016
23.795	0.000029
23.800	0.000016
23.805	0.000022
23.810	0.000022
23.815	0.000036
23.820	0.000022
23.825	0.000043
23.830	0.000009
23.835	-0.000005
23.840	0.000015
23.845	0.000015
23.850	-0.000018
23.855	0.000022
23.860	-0.000005
23.865	0.000029
23.870	0.000035
23.875	0.000015
23.880	-0.000026
23.885	0.000015
23.890	0.000022
23.895	0.000008
23.900	-0.000005
23.905	0.000008
23.910	0.000022
23.915	0.000043
23.920	0.000023
23.925	0.000002
23.930	0.000022
23.935	0.000015
23.940	0.000035
23.945	-0.000026
23.950	0.000008
23.955	0.000001
23.960	0.000015
23.965	-0.000005
23.970	0.000021
23.975	0.000015
23.980	0.000015
23.985	-0.000005
23.990	-0.000005
23.995	0.000028
24.000	0.000008
24.005	0.000028
24.010	0.000014
24.015	-0.000006
24.020	0.000015
24.025	0.000022
24.030	0.000028
24.035	0.000001
24.040	-0.000006
24.045	0.000035
24.050	-0.000005
24.055	0.000001
24.060	0.000035
24.065	0.000021
24.070	0.000008
24.075	0.000015
24.080	0.000014
24.085	0.000015
24.090	0.000007
24.095	0.000001
24.100	-0.000006
24.105	0.000014
24.110	0.000008
24.115	0.000008
24.120	0.000015
24.125	-0.000019
24.130	0.000001
24.135	0.000021
24.140	0.000007
24.145	0.000027
24.150	0.000027
24.155	0.000021
24.160	0.000021
24.165	0.000028
24.170	0.000007
24.175	0.000021
24.180	0.000008
24.185	0.000015
24.190	0.000008
24.195	0.000000
24.200	0.000021
24.205	-0.000006
24.210	0.000001
24.215	0.000007
24.220	0.000014
24.225	0.000027
24.230	0.000000
24.235	-0.000013
24.240	0.000007
24.245	0.000041
24.250	0.000007
24.255	0.000001
24.260	0.000027
24.265	0.000014
24.270	-0.000000
24.275	0.000020
24.280	-0.000000
24.285	0.000014
24.290	0.000020
24.295	0.000000
24.300	-0.000007
24.305	0.000007
24.310	-0.000007
24.315	-0.000013
24.320	0.000014
24.325	0.000014
24.330	0.000027
24.335	-0.000014
24.340	0.000014
24.345	0.000020
24.350	-0.000007
24.355	-0.000000
24.360	0.000027
24.365	0.000013
24.370	0.000013
24.375	0.000020
24.380	0.000027
24.385	0.000014
24.390	0.000027
24.395	0.000013
24.400	0.000027
24.405	-0.000014
24.410	-0.000008
24.415	-0.000007
24.420	0.000020
24.425	0.000047
24.430	0.000027
24.435	0.000013
24.440	0.000020
24.445	-0.000000
24.450	0.000007
24.455	0.000027
24.460	0.000013
24.465	-0.000007
24.470	0.000027
24.475	0.000054
24.480	-0.000007
24.485	0.000013
24.490	0.000013
24.495	0.000033
24.500	0.000026
24.505	-0.000001
24.510	0.000026
24.515	0.000020
24.520	0.000027
24.525	0.000026
24.530	0.000026
24.535	0.000026
24.540	0.000040
24.545	0.000006
24.550	0.000012
24.555	-0.000015
24.560	0.000006
24.565	0.000040
24.570	0.000019
24.575	0.000006
24.580	0.000013
24.585	-0.000014
24.590	0.000012
24.595	-0.000001
24.600	0.000033
24.605	0.000012
24.610	0.000026
24.615	0.000019
24.620	0.000006
24.625	-0.000001
24.630	0.000026
24.635	0.000005
24.640	-0.000002
24.645	0.000019
24.650	0.000013
24.655	0.000006
24.660	0.000019
24.665	0.000012
24.670	0.000025
24.675	-0.000008
24.680	-0.000002
24.685	-0.000008
24.690	0.000019
24.695	-0.000002
24.700	0.000025
24.705	0.000032
24.710	0.000019
24.715	0.000006
24.720	0.000019
24.725	0.000019
24.730	0.000032
24.735	0.000019
24.740	0.000005
24.745	0.000019
24.750	0.000046
24.755	0.000025
24.760	-0.000002
24.765	0.000039
24.770	0.000018
24.775	0.000011
24.780	0.000025
24.785	0.000005
24.790	0.000019
24.795	0.000005
24.800	0.000018
24.805	0.000004
24.810	0.000018
24.815	-0.000002
24.820	0.000004
24.825	0.000025
24.830	0.000025
24.835	0.000025
24.840	0.000045
24.845	0.000025
24.850	-0.000001
24.855	0.000012
24.860	0.000018
24.865	0.000025
24.870	0.000052
24.875	-0.000003
24.880	0.000018
24.885	0.000011
24.890	0.000011
24.895	0.000011
24.900	0.000011
24.905	0.000011
24.910	-0.000016
24.915	0.000025
24.920	0.000025
24.925	0.000038
24.930	-0.000010
24.935	-0.000003
24.940	0.000011
24.945	0.000011
24.950	0.000004
24.955	0.000018
24.960	-0.000010
24.965	0.000011
24.970	0.000024
24.975	0.000031
24.980	-0.000002
24.985	-0.000002
24.990	0.000018
24.995	0.000011
25.000	0.000011
25.005	-0.000003
25.010	0.000010
25.015	0.000024
25.020	0.000011
25.025	0.000031
25.030	0.000017
25.035	-0.000010
25.040	0.000003
25.045	0.000017
25.050	-0.000009
25.055	-0.000010
25.060	0.000010
25.065	-0.000010
25.070	0.000044
25.075	0.000024
25.080	0.000037
25.085	-0.000003
25.090	0.000017
25.095	-0.000010
25.100	0.000003
25.105	0.000010
25.110	0.000024
25.115	0.000004
25.120	0.000004
25.125	-0.000010
25.130	0.000017
25.135	0.000037
25.140	-0.000004
25.145	-0.000004
25.150	0.000017
25.155	-0.000017
25.160	-0.000004
25.165	0.000017
25.170	-0.000004
25.175	-0.000011
25.180	0.000010
25.185	-0.000010
25.190	0.000010
25.195	-0.000017
25.200	0.000023
25.205	0.000037
25.210	0.000010
25.215	0.000010
25.220	-0.000024
25.225	0.000016
25.230	0.000009
25.235	0.000023
25.240	0.000016
25.245	-0.000004
25.250	-0.000003
25.255	0.000017
25.260	-0.000011
25.265	-0.000018
25.270	0.000009
25.275	0.000002
25.280	0.000002
25.285	-0.000011
25.290	0.000002
25.295	-0.000025
25.300	-0.000004
25.305	-0.000045
25.310	0.000016
25.315	-0.000010
25.320	-0.000004
25.325	0.000023
25.330	-0.000025
25.335	0.000009
25.340	0.000002
25.345	0.000016
25.350	-0.000005
25.355	-0.000011
25.360	0.000009
25.365	-0.000018
25.370	0.000002
25.375	0.000016
25.380	0.000036
25.385	-0.000004
25.390	0.000002
25.395	0.000002
25.400	0.000015
25.405	-0.000005
25.410	0.000016
25.415	-0.000018
25.420	-0.000005
25.425	0.000009
25.430	-0.000005
25.435	0.000002
25.440	0.000029
25.445	0.000009
25.450	0.000030
25.455	0.000002
25.460	0.000008
25.465	0.000015
25.470	0.000028
25.475	-0.000012
25.480	0.000015
25.485	0.000008
25.490	0.000001
25.495	0.000022
25.500	0.000035
25.505	0.000022
25.510	0.000015
25.515	0.000002
25.520	0.000016
25.525	0.000001
25.530	0.000035
25.535	0.000015
25.540	0.000008
25.545	0.000022
25.550	0.000028
25.555	0.000028
25.560	-0.000019
25.565	0.000008
25.570	-0.000013
25.575	0.000015
25.580	0.000008
25.585	-0.000005
25.590	0.000008
25.595	-0.000006
25.600	0.000001
25.605	0.000001
25.610	0.000008
25.615	0.000001
25.620	0.000028
25.625	0.000021
25.630	0.000001
25.635	0.000001
25.640	-0.000020
25.645	0.000008
25.650	-0.000012
25.655	-0.000012
25.660	0.000021
25.665	0.000007
25.670	0.000008
25.675	0.000007
25.680	-0.000006
25.685	0.000007
25.690	0.000014
25.695	-0.000006
25.700	0.000001
25.705	0.000007
25.710	0.000001
25.715	0.000008
25.720	0.000008
25.725	0.000021
25.730	0.000020
25.735	-0.000000
25.740	0.000007
25.745	-0.000007
25.750	0.000014
25.755	0.000014
25.760	0.000020
25.765	-0.000007
25.770	0.000027
25.775	0.000014
25.780	0.000014
25.785	-0.000013
25.790	0.000014
25.795	-0.000007
25.800	0.000007
25.805	0.000027
25.810	-0.000027
25.815	0.000007
25.820	0.000020
25.825	0.000013
25.830	0.000007
25.835	0.000013
25.840	-0.000007
25.845	-0.000034
25.850	0.000007
25.855	-0.000013
25.860	0.000006
25.865	0.000006
25.870	-0.000008
25.875	0.000013
25.880	0.000013
25.885	-0.000007
25.890	-0.000001
25.895	0.000013
25.900	-0.000007
25.905	0.000006
25.910	0.000020
25.915	0.000020
25.920	0.000007
25.925	-0.000007
25.930	0.000006
25.935	0.000020
25.940	-0.000007
25.945	-0.000000
25.950	-0.000001
25.955	0.000026
25.960	0.000040
25.965	-0.000008
25.970	-0.000001
25.975	0.000013
25.980	-0.000034
25.985	-0.000027
25.990	0.000006
25.995	-0.000028
26.000	-0.000015
26.005	0.000006
26.010	-0.000008
26.015	0.000040
26.020	0.000053
26.025	-0.000001
26.030	-0.000008
26.035	-0.000001
26.040	0.000006
26.045	0.000006
26.050	0.000020
26.055	0.000006
26.060	0.000012
26.065	0.000012
26.070	0.000006
26.075	-0.000001
26.080	-0.000015
26.085	-0.000015
26.090	-0.000001
26.095	-0.000001
26.100	0.000012
26.105	-0.000002
26.110	-0.000001
26.115	-0.000014
26.120	-0.000014
26.125	-0.000022
26.130	-0.000015
26.135	-0.000015
26.140	-0.000015
26.145	-0.000015
26.150	-0.000015
26.155	0.000025
26.160	0.000005
26.165	0.000012
26.170	-0.000008
26.175	0.000012
26.180	-0.000001
26.185	-0.000008
26.190	-0.000009
26.195	0.000012
26.200	0.000012
26.205	0.000012
26.210	-0.000002
26.215	-0.000029
26.220	-0.000008
26.225	-0.000002
26.230	-0.000002
26.235	0.000005
26.240	0.000005
26.245	0.000019
26.250	-0.000008
26.255	-0.000001
26.260	-0.000002
26.265	-0.000002
26.270	0.000018
26.275	-0.000036
26.280	-0.000016
26.285	0.000025
26.290	-0.000016
26.295	-0.000009
26.300	0.000011
26.305	0.000045
26.310	-0.000008
26.315	-0.000015
26.320	0.000012
26.325	0.000004
26.330	0.000004
