PK2650 Deflection Data
Z Position (mm)	110.000	W Position (deg)	72.00
Preform ID	Diameter (mm)	Time Stamp	Start Time	Operator	Serial Number
Test 1	25	03-Nov-22 18:05:01	03-Nov-22 18:07:45	[no user]	266007708
Radius (mm)	Deflection
-26.370	0.000004
-26.365	-0.000002
-26.360	0.000031
-26.355	0.000025
-26.350	0.000031
-26.345	0.000024
-26.340	-0.000002
-26.335	0.000031
-26.330	0.000025
-26.325	0.000031
-26.320	0.000024
-26.315	-0.000003
-26.310	-0.000030
-26.305	0.000011
-26.300	-0.000003
-26.295	-0.000023
-26.290	-0.000009
-26.285	-0.000037
-26.280	0.000004
-26.275	-0.000010
-26.270	0.000017
-26.265	0.000010
-26.260	0.000031
-26.255	-0.000003
-26.250	0.000024
-26.245	-0.000003
-26.240	0.000024
-26.235	-0.000017
-26.230	-0.000031
-26.225	0.000017
-26.220	0.000004
-26.215	0.000017
-26.210	0.000030
-26.205	-0.000010
-26.200	0.000003
-26.195	0.000003
-26.190	0.000023
-26.185	0.000010
-26.180	-0.000004
-26.175	-0.000018
-26.170	0.000009
-26.165	-0.000011
-26.160	0.000003
-26.155	0.000010
-26.150	0.000003
-26.145	0.000023
-26.140	0.000009
-26.135	0.000009
-26.130	0.000003
-26.125	-0.000011
-26.120	0.000030
-26.115	0.000009
-26.110	-0.000018
-26.105	-0.000004
-26.100	0.000002
-26.095	-0.000011
-26.090	0.000010
-26.085	-0.000025
-26.080	0.000016
-26.075	-0.000025
-26.070	0.000023
-26.065	-0.000005
-26.060	0.000002
-26.055	-0.000018
-26.050	0.000022
-26.045	0.000029
-26.040	0.000015
-26.035	-0.000019
-26.030	-0.000005
-26.025	-0.000032
-26.020	0.000002
-26.015	0.000015
-26.010	-0.000032
-26.005	0.000015
-26.000	0.000029
-25.995	0.000002
-25.990	-0.000005
-25.985	0.000002
-25.980	0.000008
-25.975	-0.000026
-25.970	-0.000033
-25.965	0.000015
-25.960	-0.000005
-25.955	0.000016
-25.950	-0.000019
-25.945	0.000001
-25.940	0.000008
-25.935	0.000028
-25.930	0.000035
-25.925	0.000008
-25.920	0.000008
-25.915	-0.000013
-25.910	-0.000033
-25.905	0.000015
-25.900	-0.000006
-25.895	-0.000012
-25.890	-0.000012
-25.885	0.000022
-25.880	0.000014
-25.875	-0.000013
-25.870	0.000021
-25.865	0.000008
-25.860	-0.000006
-25.855	0.000008
-25.850	-0.000013
-25.845	0.000008
-25.840	0.000007
-25.835	-0.000033
-25.830	0.000001
-25.825	0.000008
-25.820	0.000022
-25.815	0.000008
-25.810	0.000001
-25.805	-0.000013
-25.800	0.000007
-25.795	0.000014
-25.790	0.000014
-25.785	0.000000
-25.780	0.000007
-25.775	-0.000020
-25.770	-0.000013
-25.765	-0.000034
-25.760	-0.000006
-25.755	-0.000013
-25.750	0.000014
-25.745	0.000007
-25.740	0.000028
-25.735	0.000007
-25.730	0.000028
-25.725	0.000000
-25.720	0.000007
-25.715	-0.000007
-25.710	-0.000020
-25.705	-0.000020
-25.700	-0.000007
-25.695	0.000021
-25.690	-0.000027
-25.685	-0.000013
-25.680	-0.000007
-25.675	0.000014
-25.670	0.000007
-25.665	0.000014
-25.660	0.000014
-25.655	-0.000014
-25.650	-0.000021
-25.645	-0.000000
-25.640	-0.000000
-25.635	-0.000021
-25.630	-0.000014
-25.625	-0.000013
-25.620	-0.000020
-25.615	-0.000000
-25.610	-0.000027
-25.605	0.000020
-25.600	0.000013
-25.595	0.000027
-25.590	0.000006
-25.585	0.000027
-25.580	-0.000000
-25.575	0.000013
-25.570	-0.000014
-25.565	0.000013
-25.560	0.000013
-25.555	-0.000014
-25.550	0.000013
-25.545	0.000013
-25.540	0.000026
-25.535	0.000026
-25.530	0.000033
-25.525	0.000006
-25.520	-0.000028
-25.515	-0.000008
-25.510	-0.000021
-25.505	-0.000008
-25.500	-0.000008
-25.495	0.000006
-25.490	-0.000014
-25.485	-0.000007
-25.480	0.000019
-25.475	0.000013
-25.470	-0.000021
-25.465	0.000006
-25.460	-0.000007
-25.455	-0.000001
-25.450	-0.000021
-25.445	-0.000015
-25.440	-0.000028
-25.435	-0.000022
-25.430	-0.000042
-25.425	-0.000014
-25.420	0.000013
-25.415	0.000013
-25.410	-0.000008
-25.405	0.000006
-25.400	0.000006
-25.395	-0.000015
-25.390	0.000012
-25.385	-0.000022
-25.380	-0.000029
-25.375	0.000005
-25.370	-0.000042
-25.365	-0.000008
-25.360	0.000013
-25.355	0.000006
-25.350	-0.000001
-25.345	0.000012
-25.340	0.000039
-25.335	-0.000008
-25.330	0.000005
-25.325	-0.000015
-25.320	0.000019
-25.315	-0.000002
-25.310	-0.000015
-25.305	-0.000002
-25.300	-0.000029
-25.295	0.000005
-25.290	-0.000015
-25.285	-0.000008
-25.280	-0.000015
-25.275	0.000019
-25.270	0.000005
-25.265	-0.000029
-25.260	0.000005
-25.255	-0.000002
-25.250	-0.000002
-25.245	-0.000009
-25.240	-0.000016
-25.235	-0.000009
-25.230	-0.000036
-25.225	-0.000015
-25.220	-0.000022
-25.215	0.000011
-25.210	0.000005
-25.205	0.000025
-25.200	0.000005
-25.195	0.000005
-25.190	-0.000022
-25.185	-0.000002
-25.180	-0.000023
-25.175	-0.000016
-25.170	-0.000016
-25.165	0.000005
-25.160	-0.000015
-25.155	-0.000009
-25.150	0.000011
-25.145	-0.000002
-25.140	0.000011
-25.135	0.000011
-25.130	0.000025
-25.125	-0.000023
-25.120	0.000025
-25.115	-0.000003
-25.110	0.000018
-25.105	-0.000023
-25.100	-0.000023
-25.095	-0.000009
-25.090	-0.000002
-25.085	-0.000009
-25.080	0.000018
-25.075	-0.000003
-25.070	-0.000003
-25.065	0.000025
-25.060	0.000011
-25.055	0.000004
-25.050	-0.000030
-25.045	-0.000030
-25.040	-0.000009
-25.035	-0.000003
-25.030	0.000004
-25.025	-0.000023
-25.020	-0.000002
-25.015	0.000004
-25.010	0.000024
-25.005	0.000017
-25.000	-0.000010
-24.995	0.000004
-24.990	-0.000003
-24.985	0.000010
-24.980	0.000004
-24.975	-0.000003
-24.970	-0.000024
-24.965	-0.000017
-24.960	-0.000030
-24.955	-0.000030
-24.950	-0.000003
-24.945	-0.000003
-24.940	-0.000017
-24.935	0.000031
-24.930	0.000011
-24.925	-0.000010
-24.920	-0.000037
-24.915	-0.000003
-24.910	-0.000017
-24.905	-0.000030
-24.900	-0.000010
-24.895	-0.000044
-24.890	-0.000003
-24.885	-0.000010
-24.880	0.000010
-24.875	-0.000017
-24.870	0.000004
-24.865	-0.000024
-24.860	-0.000003
-24.855	-0.000010
-24.850	-0.000031
-24.845	0.000003
-24.840	-0.000017
-24.835	-0.000024
-24.830	-0.000010
-24.825	-0.000017
-24.820	-0.000010
-24.815	0.000024
-24.810	0.000017
-24.805	-0.000024
-24.800	0.000031
-24.795	-0.000003
-24.790	0.000010
-24.785	-0.000010
-24.780	-0.000003
-24.775	-0.000017
-24.770	-0.000031
-24.765	-0.000011
-24.760	-0.000044
-24.755	-0.000023
-24.750	-0.000003
-24.745	-0.000017
-24.740	0.000024
-24.735	-0.000004
-24.730	-0.000017
-24.725	0.000003
-24.720	0.000017
-24.715	0.000003
-24.710	-0.000011
-24.705	0.000010
-24.700	-0.000004
-24.695	-0.000003
-24.690	-0.000024
-24.685	0.000003
-24.680	-0.000004
-24.675	0.000003
-24.670	-0.000011
-24.665	-0.000004
-24.660	0.000003
-24.655	-0.000004
-24.650	0.000010
-24.645	0.000010
-24.640	0.000003
-24.635	-0.000011
-24.630	-0.000010
-24.625	-0.000024
-24.620	0.000010
-24.615	0.000009
-24.610	0.000037
-24.605	-0.000004
-24.600	0.000003
-24.595	-0.000004
-24.590	0.000009
-24.585	0.000002
-24.580	-0.000004
-24.575	-0.000025
-24.570	-0.000018
-24.565	0.000002
-24.560	-0.000011
-24.555	-0.000011
-24.550	0.000016
-24.545	0.000009
-24.540	0.000030
-24.535	0.000016
-24.530	0.000023
-24.525	0.000030
-24.520	-0.000004
-24.515	0.000009
-24.510	0.000009
-24.505	-0.000005
-24.500	0.000029
-24.495	-0.000004
-24.490	-0.000011
-24.485	0.000003
-24.480	0.000036
-24.475	0.000002
-24.470	0.000023
-24.465	0.000009
-24.460	0.000029
-24.455	0.000022
-24.450	0.000002
-24.445	0.000016
-24.440	-0.000012
-24.435	0.000009
-24.430	0.000016
-24.425	-0.000025
-24.420	0.000009
-24.415	0.000016
-24.410	0.000029
-24.405	0.000022
-24.400	-0.000005
-24.395	0.000009
-24.390	-0.000012
-24.385	0.000009
-24.380	-0.000032
-24.375	0.000002
-24.370	-0.000012
-24.365	0.000002
-24.360	0.000002
-24.355	0.000029
-24.350	0.000002
-24.345	0.000015
-24.340	0.000009
-24.335	0.000008
-24.330	0.000002
-24.325	0.000022
-24.320	0.000015
-24.315	0.000022
-24.310	-0.000005
-24.305	0.000015
-24.300	0.000001
-24.295	0.000009
-24.290	0.000009
-24.285	0.000022
-24.280	0.000015
-24.275	-0.000005
-24.270	0.000001
-24.265	0.000001
-24.260	0.000042
-24.255	-0.000005
-24.250	-0.000012
-24.245	-0.000012
-24.240	0.000035
-24.235	-0.000019
-24.230	-0.000012
-24.225	0.000029
-24.220	0.000022
-24.215	0.000028
-24.210	0.000028
-24.205	0.000015
-24.200	0.000021
-24.195	0.000028
-24.190	0.000008
-24.185	-0.000006
-24.180	0.000014
-24.175	-0.000006
-24.170	0.000014
-24.165	0.000021
-24.160	0.000001
-24.155	0.000015
-24.150	0.000007
-24.145	0.000021
-24.140	0.000008
-24.135	-0.000006
-24.130	0.000021
-24.125	0.000042
-24.120	0.000035
-24.115	0.000021
-24.110	-0.000013
-24.105	-0.000027
-24.100	0.000021
-24.095	0.000015
-24.090	0.000015
-24.085	-0.000013
-24.080	-0.000006
-24.075	-0.000006
-24.070	0.000028
-24.065	0.000028
-24.060	0.000007
-24.055	-0.000007
-24.050	0.000007
-24.045	0.000041
-24.040	0.000000
-24.035	-0.000007
-24.030	0.000007
-24.025	0.000001
-24.020	0.000000
-24.015	0.000000
-24.010	0.000034
-24.005	-0.000013
-24.000	0.000000
-23.995	-0.000007
-23.990	0.000000
-23.985	0.000014
-23.980	-0.000007
-23.975	0.000013
-23.970	0.000007
-23.965	0.000013
-23.960	0.000001
-23.955	0.000021
-23.950	0.000007
-23.945	0.000020
-23.940	-0.000014
-23.935	-0.000007
-23.930	-0.000007
-23.925	0.000033
-23.920	0.000006
-23.915	-0.000007
-23.910	-0.000042
-23.905	-0.000001
-23.900	-0.000008
-23.895	-0.000021
-23.890	-0.000000
-23.885	0.000006
-23.880	-0.000035
-23.875	0.000006
-23.870	0.000020
-23.865	0.000019
-23.860	0.000013
-23.855	-0.000001
-23.850	-0.000001
-23.845	-0.000001
-23.840	0.000019
-23.835	-0.000008
-23.830	-0.000007
-23.825	-0.000021
-23.820	-0.000014
-23.815	0.000012
-23.810	-0.000008
-23.805	0.000019
-23.800	0.000012
-23.795	0.000033
-23.790	0.000005
-23.785	-0.000022
-23.780	-0.000001
-23.775	-0.000002
-23.770	-0.000015
-23.765	-0.000001
-23.760	-0.000014
-23.755	-0.000001
-23.750	-0.000015
-23.745	-0.000001
-23.740	0.000012
-23.735	0.000005
-23.730	-0.000022
-23.725	-0.000022
-23.720	-0.000022
-23.715	-0.000002
-23.710	-0.000002
-23.705	-0.000043
-23.700	-0.000009
-23.695	0.000026
-23.690	-0.000001
-23.685	-0.000029
-23.680	0.000032
-23.675	-0.000009
-23.670	-0.000009
-23.665	0.000019
-23.660	-0.000016
-23.655	-0.000036
-23.650	-0.000009
-23.645	-0.000002
-23.640	0.000018
-23.635	-0.000016
-23.630	-0.000022
-23.625	0.000005
-23.620	-0.000002
-23.615	-0.000016
-23.610	-0.000009
-23.605	-0.000009
-23.600	-0.000016
-23.595	-0.000009
-23.590	-0.000050
-23.585	-0.000036
-23.580	-0.000029
-23.575	-0.000037
-23.570	-0.000037
-23.565	-0.000016
-23.560	0.000012
-23.555	-0.000009
-23.550	0.000004
-23.545	-0.000016
-23.540	0.000004
-23.535	-0.000003
-23.530	-0.000030
-23.525	-0.000044
-23.520	-0.000064
-23.515	-0.000023
-23.510	-0.000044
-23.505	-0.000057
-23.500	-0.000057
-23.495	-0.000023
-23.490	-0.000043
-23.485	-0.000085
-23.480	-0.000064
-23.475	-0.000030
-23.470	-0.000051
-23.465	-0.000071
-23.460	-0.000064
-23.455	-0.000071
-23.450	-0.000051
-23.445	-0.000071
-23.440	-0.000044
-23.435	-0.000058
-23.430	-0.000030
-23.425	-0.000050
-23.420	-0.000037
-23.415	-0.000044
-23.410	-0.000004
-23.405	-0.000031
-23.400	-0.000044
-23.395	-0.000010
-23.390	-0.000045
-23.385	-0.000058
-23.380	-0.000072
-23.375	-0.000024
-23.370	-0.000018
-23.365	-0.000051
-23.360	-0.000051
-23.355	-0.000044
-23.350	-0.000038
-23.345	-0.000031
-23.340	-0.000045
-23.335	-0.000004
-23.330	-0.000017
-23.325	-0.000045
-23.320	-0.000024
-23.315	-0.000025
-23.310	-0.000065
-23.305	-0.000038
-23.300	-0.000052
-23.295	-0.000038
-23.290	-0.000045
-23.285	-0.000025
-23.280	-0.000018
-23.275	-0.000038
-23.270	-0.000052
-23.265	-0.000045
-23.260	-0.000032
-23.255	-0.000025
-23.250	-0.000045
-23.245	-0.000018
-23.240	-0.000052
-23.235	-0.000046
-23.230	-0.000032
-23.225	-0.000045
-23.220	-0.000032
-23.215	-0.000025
-23.210	-0.000039
-23.205	-0.000012
-23.200	-0.000032
-23.195	-0.000046
-23.190	-0.000032
-23.185	-0.000039
-23.180	-0.000052
-23.175	-0.000019
-23.170	-0.000059
-23.165	-0.000025
-23.160	-0.000072
-23.155	-0.000046
-23.150	-0.000026
-23.145	-0.000039
-23.140	-0.000025
-23.135	-0.000046
-23.130	-0.000039
-23.125	-0.000060
-23.120	-0.000040
-23.115	-0.000046
-23.110	-0.000067
-23.105	-0.000046
-23.100	-0.000046
-23.095	-0.000046
-23.090	-0.000059
-23.085	-0.000060
-23.080	-0.000019
-23.075	-0.000026
-23.070	0.000001
-23.065	-0.000033
-23.060	-0.000033
-23.055	-0.000060
-23.050	-0.000053
-23.045	-0.000046
-23.040	-0.000087
-23.035	-0.000047
-23.030	-0.000066
-23.025	-0.000026
-23.020	-0.000053
-23.015	-0.000074
-23.010	-0.000013
-23.005	-0.000040
-23.000	-0.000040
-22.995	-0.000020
-22.990	-0.000026
-22.985	-0.000061
-22.980	-0.000081
-22.975	-0.000054
-22.970	-0.000061
-22.965	-0.000067
-22.960	-0.000073
-22.955	-0.000067
-22.950	-0.000047
-22.945	-0.000067
-22.940	-0.000033
-22.935	-0.000040
-22.930	-0.000026
-22.925	-0.000054
-22.920	-0.000047
-22.915	-0.000074
-22.910	-0.000040
-22.905	-0.000067
-22.900	-0.000054
-22.895	-0.000060
-22.890	-0.000047
-22.885	-0.000061
-22.880	-0.000040
-22.875	-0.000047
-22.870	-0.000054
-22.865	-0.000040
-22.860	-0.000047
-22.855	-0.000054
-22.850	-0.000054
-22.845	-0.000075
-22.840	-0.000041
-22.835	-0.000075
-22.830	-0.000047
-22.825	-0.000027
-22.820	-0.000041
-22.815	-0.000061
-22.810	-0.000041
-22.805	-0.000041
-22.800	-0.000041
-22.795	-0.000047
-22.790	-0.000075
-22.785	-0.000041
-22.780	-0.000034
-22.775	-0.000048
-22.770	-0.000068
-22.765	-0.000068
-22.760	-0.000068
-22.755	-0.000074
-22.750	-0.000068
-22.745	-0.000061
-22.740	-0.000027
-22.735	-0.000034
-22.730	-0.000048
-22.725	-0.000034
-22.720	-0.000082
-22.715	-0.000062
-22.710	-0.000048
-22.705	-0.000055
-22.700	-0.000055
-22.695	-0.000054
-22.690	-0.000055
-22.685	-0.000062
-22.680	-0.000048
-22.675	-0.000034
-22.670	-0.000041
-22.665	-0.000048
-22.660	-0.000048
-22.655	-0.000068
-22.650	-0.000055
-22.645	-0.000069
-22.640	-0.000048
-22.635	-0.000096
-22.630	-0.000061
-22.625	-0.000082
-22.620	-0.000055
-22.615	-0.000076
-22.610	-0.000042
-22.605	-0.000048
-22.600	-0.000055
-22.595	-0.000042
-22.590	-0.000082
-22.585	-0.000049
-22.580	-0.000089
-22.575	-0.000069
-22.570	-0.000069
-22.565	-0.000082
-22.560	-0.000055
-22.555	-0.000055
-22.550	-0.000056
-22.545	-0.000042
-22.540	-0.000069
-22.535	-0.000049
-22.530	-0.000056
-22.525	-0.000062
-22.520	-0.000049
-22.515	-0.000076
-22.510	-0.000063
-22.505	-0.000063
-22.500	-0.000083
-22.495	-0.000055
-22.490	-0.000049
-22.485	-0.000076
-22.480	-0.000076
-22.475	-0.000063
-22.470	-0.000056
-22.465	-0.000049
-22.460	-0.000029
-22.455	-0.000056
-22.450	-0.000076
-22.445	-0.000043
-22.440	-0.000070
-22.435	-0.000077
-22.430	-0.000076
-22.425	-0.000063
-22.420	-0.000049
-22.415	-0.000056
-22.410	-0.000063
-22.405	-0.000076
-22.400	-0.000043
-22.395	-0.000063
-22.390	-0.000090
-22.385	-0.000077
-22.380	-0.000083
-22.375	-0.000063
-22.370	-0.000077
-22.365	-0.000070
-22.360	-0.000049
-22.355	-0.000077
-22.350	-0.000036
-22.345	-0.000084
-22.340	-0.000063
-22.335	-0.000063
-22.330	-0.000036
-22.325	-0.000057
-22.320	-0.000070
-22.315	-0.000064
-22.310	-0.000084
-22.305	-0.000057
-22.300	-0.000070
-22.295	-0.000083
-22.290	-0.000083
-22.285	-0.000064
-22.280	-0.000077
-22.275	-0.000064
-22.270	-0.000050
-22.265	-0.000050
-22.260	-0.000070
-22.255	-0.000057
-22.250	-0.000070
-22.245	-0.000070
-22.240	-0.000091
-22.235	-0.000077
-22.230	-0.000084
-22.225	-0.000084
-22.220	-0.000070
-22.215	-0.000064
-22.210	-0.000050
-22.205	-0.000071
-22.200	-0.000070
-22.195	-0.000050
-22.190	-0.000071
-22.185	-0.000078
-22.180	-0.000091
-22.175	-0.000057
-22.170	-0.000091
-22.165	-0.000057
-22.160	-0.000070
-22.155	-0.000057
-22.150	-0.000084
-22.145	-0.000037
-22.140	-0.000077
-22.135	-0.000064
-22.130	-0.000050
-22.125	-0.000064
-22.120	-0.000057
-22.115	-0.000091
-22.110	-0.000091
-22.105	-0.000037
-22.100	-0.000050
-22.095	-0.000057
-22.090	-0.000071
-22.085	-0.000091
-22.080	-0.000078
-22.075	-0.000058
-22.070	-0.000051
-22.065	-0.000051
-22.060	-0.000064
-22.055	-0.000085
-22.050	-0.000085
-22.045	-0.000078
-22.040	-0.000065
-22.035	-0.000065
-22.030	-0.000077
-22.025	-0.000057
-22.020	-0.000057
-22.015	-0.000071
-22.010	-0.000064
-22.005	-0.000051
-22.000	-0.000057
-21.995	-0.000051
-21.990	-0.000071
-21.985	-0.000065
-21.980	-0.000051
-21.975	-0.000092
-21.970	-0.000065
-21.965	-0.000078
-21.960	-0.000057
-21.955	-0.000078
-21.950	-0.000031
-21.945	-0.000092
-21.940	-0.000058
-21.935	-0.000044
-21.930	-0.000065
-21.925	-0.000058
-21.920	-0.000058
-21.915	-0.000072
-21.910	-0.000065
-21.905	-0.000079
-21.900	-0.000065
-21.895	-0.000044
-21.890	-0.000071
-21.885	-0.000065
-21.880	-0.000085
-21.875	-0.000051
-21.870	-0.000044
-21.865	-0.000038
-21.860	-0.000065
-21.855	-0.000079
-21.850	-0.000099
-21.845	-0.000065
-21.840	-0.000085
-21.835	-0.000085
-21.830	-0.000105
-21.825	-0.000085
-21.820	-0.000065
-21.815	-0.000065
-21.810	-0.000058
-21.805	-0.000052
-21.800	-0.000086
-21.795	-0.000113
-21.790	-0.000072
-21.785	-0.000072
-21.780	-0.000052
-21.775	-0.000079
-21.770	-0.000045
-21.765	-0.000092
-21.760	-0.000085
-21.755	-0.000086
-21.750	-0.000052
-21.745	-0.000045
-21.740	-0.000065
-21.735	-0.000038
-21.730	-0.000065
-21.725	-0.000052
-21.720	-0.000059
-21.715	-0.000066
-21.710	-0.000038
-21.705	-0.000052
-21.700	-0.000065
-21.695	-0.000065
-21.690	-0.000045
-21.685	-0.000052
-21.680	-0.000052
-21.675	-0.000059
-21.670	-0.000093
-21.665	-0.000052
-21.660	-0.000052
-21.655	-0.000066
-21.650	-0.000079
-21.645	-0.000046
-21.640	-0.000039
-21.635	-0.000066
-21.630	-0.000024
-21.625	-0.000079
-21.620	-0.000052
-21.615	-0.000046
-21.610	-0.000066
-21.605	-0.000032
-21.600	-0.000059
-21.595	-0.000059
-21.590	-0.000046
-21.585	-0.000059
-21.580	-0.000032
-21.575	-0.000066
-21.570	-0.000046
-21.565	-0.000052
-21.560	-0.000045
-21.555	-0.000052
-21.550	-0.000039
-21.545	0.000009
-21.540	-0.000046
-21.535	-0.000012
-21.530	-0.000019
-21.525	-0.000032
-21.520	-0.000046
-21.515	-0.000046
-21.510	-0.000080
-21.505	-0.000032
-21.500	-0.000046
-21.495	-0.000052
-21.490	-0.000046
-21.485	-0.000012
-21.480	0.000008
-21.475	0.000002
-21.470	0.000009
-21.465	0.000015
-21.460	-0.000019
-21.455	0.000029
-21.450	0.000043
-21.445	0.000084
-21.440	0.000138
-21.435	0.000268
-21.430	0.000509
-21.425	0.000810
-21.420	0.001222
-21.415	0.001774
-21.410	0.002508
-21.405	0.003512
-21.400	0.004674
-21.395	0.006136
-21.390	0.007861
-21.385	0.009820
-21.380	0.012191
-21.375	0.014929
-21.370	0.017877
-21.365	0.021111
-21.360	0.024536
-21.355	0.028141
-21.350	0.031815
-21.345	0.035461
-21.340	0.039091
-21.335	0.042832
-21.330	0.046371
-21.325	0.049631
-21.320	0.050793
-21.315	0.049794
-21.310	0.049017
-21.305	0.047629
-21.300	0.045615
-21.295	0.044594
-21.290	0.043782
-21.285	0.042871
-21.280	0.042154
-21.275	0.041738
-21.270	0.040651
-21.265	0.039208
-21.260	0.038262
-21.255	0.037343
-21.250	0.036414
-21.245	0.036013
-21.240	0.035330
-21.235	0.034439
-21.230	0.034167
-21.225	0.033602
-21.220	0.033010
-21.215	0.032503
-21.210	0.032077
-21.205	0.031641
-21.200	0.031280
-21.195	0.030970
-21.190	0.030698
-21.185	0.030620
-21.180	0.030249
-21.175	0.029324
-21.170	0.028688
-21.165	0.028448
-21.160	0.028262
-21.155	0.027860
-21.150	0.027342
-21.145	0.027212
-21.140	0.027197
-21.135	0.027400
-21.130	0.027408
-21.125	0.026604
-21.120	0.025863
-21.115	0.025684
-21.110	0.025543
-21.105	0.025346
-21.100	0.025067
-21.095	0.024973
-21.090	0.024766
-21.085	0.024445
-21.080	0.024149
-21.075	0.023951
-21.070	0.023798
-21.065	0.023531
-21.060	0.023245
-21.055	0.023054
-21.050	0.022831
-21.045	0.022728
-21.040	0.022645
-21.035	0.022449
-21.030	0.022302
-21.025	0.022160
-21.020	0.022075
-21.015	0.021890
-21.010	0.021801
-21.005	0.021728
-21.000	0.021648
-20.995	0.021579
-20.990	0.021432
-20.985	0.021178
-20.980	0.020994
-20.975	0.020815
-20.970	0.020709
-20.965	0.020597
-20.960	0.020437
-20.955	0.020335
-20.950	0.020198
-20.945	0.020095
-20.940	0.019975
-20.935	0.019890
-20.930	0.019743
-20.925	0.019629
-20.920	0.019475
-20.915	0.019382
-20.910	0.019315
-20.905	0.019145
-20.900	0.019060
-20.895	0.018977
-20.890	0.018861
-20.885	0.018762
-20.880	0.018708
-20.875	0.018599
-20.870	0.018514
-20.865	0.018494
-20.860	0.018378
-20.855	0.018295
-20.850	0.018211
-20.845	0.018040
-20.840	0.017951
-20.835	0.017825
-20.830	0.017740
-20.825	0.017637
-20.820	0.017553
-20.815	0.017479
-20.810	0.017343
-20.805	0.017299
-20.800	0.017231
-20.795	0.017145
-20.790	0.017119
-20.785	0.017019
-20.780	0.016966
-20.775	0.016914
-20.770	0.016858
-20.765	0.016786
-20.760	0.016703
-20.755	0.016645
-20.750	0.016558
-20.745	0.016465
-20.740	0.016369
-20.735	0.016320
-20.730	0.016222
-20.725	0.016131
-20.720	0.016066
-20.715	0.016006
-20.710	0.015912
-20.705	0.015905
-20.700	0.015806
-20.695	0.015783
-20.690	0.015698
-20.685	0.015670
-20.680	0.015588
-20.675	0.015522
-20.670	0.015518
-20.665	0.015487
-20.660	0.015418
-20.655	0.015340
-20.650	0.015277
-20.645	0.015201
-20.640	0.015150
-20.635	0.015096
-20.630	0.015040
-20.625	0.015036
-20.620	0.014975
-20.615	0.014930
-20.610	0.014878
-20.605	0.014823
-20.600	0.014816
-20.595	0.014741
-20.590	0.014716
-20.585	0.014631
-20.580	0.014587
-20.575	0.014520
-20.570	0.014451
-20.565	0.014434
-20.560	0.014394
-20.555	0.014356
-20.550	0.014283
-20.545	0.014193
-20.540	0.014207
-20.535	0.014134
-20.530	0.014103
-20.525	0.014089
-20.520	0.013992
-20.515	0.013924
-20.510	0.013903
-20.505	0.013864
-20.500	0.013862
-20.495	0.013805
-20.490	0.013811
-20.485	0.013785
-20.480	0.013730
-20.475	0.013708
-20.470	0.013718
-20.465	0.013567
-20.460	0.013578
-20.455	0.013562
-20.450	0.013469
-20.445	0.013421
-20.440	0.013371
-20.435	0.013357
-20.430	0.013310
-20.425	0.013276
-20.420	0.013227
-20.415	0.013229
-20.410	0.013167
-20.405	0.013127
-20.400	0.013113
-20.395	0.013046
-20.390	0.013014
-20.385	0.012947
-20.380	0.012950
-20.375	0.012928
-20.370	0.012871
-20.365	0.012819
-20.360	0.012808
-20.355	0.012769
-20.350	0.012755
-20.345	0.012730
-20.340	0.012698
-20.335	0.012650
-20.330	0.012614
-20.325	0.012557
-20.320	0.012531
-20.315	0.012485
-20.310	0.012474
-20.305	0.012387
-20.300	0.012361
-20.295	0.012366
-20.290	0.012333
-20.285	0.012313
-20.280	0.012257
-20.275	0.012270
-20.270	0.012194
-20.265	0.012180
-20.260	0.012147
-20.255	0.012145
-20.250	0.012120
-20.245	0.012062
-20.240	0.012021
-20.235	0.012018
-20.230	0.012004
-20.225	0.012003
-20.220	0.011970
-20.215	0.011911
-20.210	0.011904
-20.205	0.011926
-20.200	0.011836
-20.195	0.011823
-20.190	0.011794
-20.185	0.011762
-20.180	0.011747
-20.175	0.011710
-20.170	0.011699
-20.165	0.011659
-20.160	0.011645
-20.155	0.011611
-20.150	0.011583
-20.145	0.011561
-20.140	0.011532
-20.135	0.011531
-20.130	0.011501
-20.125	0.011482
-20.120	0.011438
-20.115	0.011397
-20.110	0.011354
-20.105	0.011328
-20.100	0.011302
-20.095	0.011294
-20.090	0.011282
-20.085	0.011236
-20.080	0.011227
-20.075	0.011170
-20.070	0.011176
-20.065	0.011155
-20.060	0.011120
-20.055	0.011084
-20.050	0.011057
-20.045	0.011043
-20.040	0.010987
-20.035	0.011017
-20.030	0.010956
-20.025	0.010974
-20.020	0.010945
-20.015	0.010952
-20.010	0.010892
-20.005	0.010905
-20.000	0.010858
-19.995	0.010821
-19.990	0.010820
-19.985	0.010756
-19.980	0.010755
-19.975	0.010711
-19.970	0.010738
-19.965	0.010694
-19.960	0.010674
-19.955	0.010658
-19.950	0.010652
-19.945	0.010625
-19.940	0.010604
-19.935	0.010612
-19.930	0.010583
-19.925	0.010542
-19.920	0.010522
-19.915	0.010516
-19.910	0.010479
-19.905	0.010460
-19.900	0.010455
-19.895	0.010415
-19.890	0.010440
-19.885	0.010370
-19.880	0.010387
-19.875	0.010361
-19.870	0.010336
-19.865	0.010331
-19.860	0.010289
-19.855	0.010269
-19.850	0.010279
-19.845	0.010253
-19.840	0.010174
-19.835	0.010198
-19.830	0.010158
-19.825	0.010168
-19.820	0.010144
-19.815	0.010132
-19.810	0.010113
-19.805	0.010099
-19.800	0.010055
-19.795	0.010065
-19.790	0.010059
-19.785	0.009974
-19.780	0.009931
-19.775	0.009910
-19.770	0.009918
-19.765	0.009908
-19.760	0.009878
-19.755	0.009863
-19.750	0.009855
-19.745	0.009836
-19.740	0.009844
-19.735	0.009821
-19.730	0.009792
-19.725	0.009757
-19.720	0.009751
-19.715	0.009688
-19.710	0.009666
-19.705	0.009665
-19.700	0.009629
-19.695	0.009595
-19.690	0.009643
-19.685	0.009620
-19.680	0.009579
-19.675	0.009559
-19.670	0.009544
-19.665	0.009528
-19.660	0.009470
-19.655	0.009449
-19.650	0.009457
-19.645	0.009445
-19.640	0.009412
-19.635	0.009436
-19.630	0.009388
-19.625	0.009393
-19.620	0.009365
-19.615	0.009345
-19.610	0.009345
-19.605	0.009329
-19.600	0.009341
-19.595	0.009302
-19.590	0.009280
-19.585	0.009249
-19.580	0.009247
-19.575	0.009235
-19.570	0.009239
-19.565	0.009254
-19.560	0.009214
-19.555	0.009233
-19.550	0.009200
-19.545	0.009192
-19.540	0.009175
-19.535	0.009165
-19.530	0.009156
-19.525	0.009126
-19.520	0.009111
-19.515	0.009104
-19.510	0.009115
-19.505	0.009077
-19.500	0.009072
-19.495	0.009069
-19.490	0.009058
-19.485	0.009049
-19.480	0.009056
-19.475	0.009065
-19.470	0.009016
-19.465	0.009017
-19.460	0.009010
-19.455	0.008983
-19.450	0.008948
-19.445	0.008906
-19.440	0.008950
-19.435	0.008920
-19.430	0.008930
-19.425	0.008912
-19.420	0.008866
-19.415	0.008860
-19.410	0.008842
-19.405	0.008864
-19.400	0.008845
-19.395	0.008822
-19.390	0.008808
-19.385	0.008794
-19.380	0.008766
-19.375	0.008774
-19.370	0.008737
-19.365	0.008721
-19.360	0.008727
-19.355	0.008716
-19.350	0.008703
-19.345	0.008701
-19.340	0.008686
-19.335	0.008679
-19.330	0.008667
-19.325	0.008650
-19.320	0.008606
-19.315	0.008637
-19.310	0.008620
-19.305	0.008592
-19.300	0.008608
-19.295	0.008586
-19.290	0.008595
-19.285	0.008541
-19.280	0.008584
-19.275	0.008560
-19.270	0.008551
-19.265	0.008520
-19.260	0.008525
-19.255	0.008486
-19.250	0.008485
-19.245	0.008462
-19.240	0.008435
-19.235	0.008444
-19.230	0.008442
-19.225	0.008403
-19.220	0.008421
-19.215	0.008407
-19.210	0.008401
-19.205	0.008394
-19.200	0.008381
-19.195	0.008368
-19.190	0.008383
-19.185	0.008362
-19.180	0.008341
-19.175	0.008334
-19.170	0.008295
-19.165	0.008313
-19.160	0.008285
-19.155	0.008304
-19.150	0.008278
-19.145	0.008301
-19.140	0.008289
-19.135	0.008269
-19.130	0.008290
-19.125	0.008220
-19.120	0.008244
-19.115	0.008216
-19.110	0.008189
-19.105	0.008191
-19.100	0.008162
-19.095	0.008201
-19.090	0.008184
-19.085	0.008202
-19.080	0.008147
-19.075	0.008153
-19.070	0.008161
-19.065	0.008133
-19.060	0.008119
-19.055	0.008091
-19.050	0.008098
-19.045	0.008076
-19.040	0.008069
-19.035	0.008066
-19.030	0.008067
-19.025	0.008037
-19.020	0.008062
-19.015	0.008048
-19.010	0.008034
-19.005	0.008025
-19.000	0.008000
-18.995	0.007994
-18.990	0.007952
-18.985	0.007973
-18.980	0.007940
-18.975	0.007890
-18.970	0.007908
-18.965	0.007867
-18.960	0.007907
-18.955	0.007870
-18.950	0.007872
-18.945	0.007870
-18.940	0.007829
-18.935	0.007788
-18.930	0.007808
-18.925	0.007801
-18.920	0.007754
-18.915	0.007734
-18.910	0.007783
-18.905	0.007720
-18.900	0.007752
-18.895	0.007730
-18.890	0.007701
-18.885	0.007707
-18.880	0.007703
-18.875	0.007675
-18.870	0.007668
-18.865	0.007687
-18.860	0.007646
-18.855	0.007638
-18.850	0.007656
-18.845	0.007648
-18.840	0.007628
-18.835	0.007611
-18.830	0.007619
-18.825	0.007596
-18.820	0.007588
-18.815	0.007581
-18.810	0.007561
-18.805	0.007568
-18.800	0.007538
-18.795	0.007555
-18.790	0.007511
-18.785	0.007498
-18.780	0.007509
-18.775	0.007464
-18.770	0.007497
-18.765	0.007497
-18.760	0.007502
-18.755	0.007491
-18.750	0.007470
-18.745	0.007482
-18.740	0.007452
-18.735	0.007478
-18.730	0.007444
-18.725	0.007437
-18.720	0.007429
-18.715	0.007367
-18.710	0.007408
-18.705	0.007372
-18.700	0.007360
-18.695	0.007360
-18.690	0.007363
-18.685	0.007375
-18.680	0.007321
-18.675	0.007356
-18.670	0.007348
-18.665	0.007321
-18.660	0.007299
-18.655	0.007263
-18.650	0.007317
-18.645	0.007273
-18.640	0.007294
-18.635	0.007262
-18.630	0.007291
-18.625	0.007266
-18.620	0.007257
-18.615	0.007292
-18.610	0.007250
-18.605	0.007256
-18.600	0.007249
-18.595	0.007255
-18.590	0.007185
-18.585	0.007190
-18.580	0.007192
-18.575	0.007173
-18.570	0.007174
-18.565	0.007176
-18.560	0.007174
-18.555	0.007163
-18.550	0.007157
-18.545	0.007157
-18.540	0.007137
-18.535	0.007136
-18.530	0.007137
-18.525	0.007137
-18.520	0.007116
-18.515	0.007102
-18.510	0.007088
-18.505	0.007102
-18.500	0.007092
-18.495	0.007071
-18.490	0.007075
-18.485	0.007089
-18.480	0.007055
-18.475	0.007048
-18.470	0.007047
-18.465	0.007041
-18.460	0.007027
-18.455	0.007019
-18.450	0.007004
-18.445	0.006997
-18.440	0.006990
-18.435	0.007014
-18.430	0.006979
-18.425	0.007004
-18.420	0.006990
-18.415	0.006948
-18.410	0.006956
-18.405	0.006970
-18.400	0.006964
-18.395	0.006922
-18.390	0.006920
-18.385	0.006920
-18.380	0.006912
-18.375	0.006913
-18.370	0.006881
-18.365	0.006909
-18.360	0.006896
-18.355	0.006877
-18.350	0.006865
-18.345	0.006830
-18.340	0.006865
-18.335	0.006858
-18.330	0.006823
-18.325	0.006829
-18.320	0.006814
-18.315	0.006786
-18.310	0.006785
-18.305	0.006814
-18.300	0.006770
-18.295	0.006782
-18.290	0.006772
-18.285	0.006800
-18.280	0.006801
-18.275	0.006766
-18.270	0.006745
-18.265	0.006746
-18.260	0.006724
-18.255	0.006736
-18.250	0.006744
-18.245	0.006723
-18.240	0.006738
-18.235	0.006700
-18.230	0.006708
-18.225	0.006686
-18.220	0.006686
-18.215	0.006686
-18.210	0.006687
-18.205	0.006667
-18.200	0.006689
-18.195	0.006662
-18.190	0.006613
-18.185	0.006642
-18.180	0.006655
-18.175	0.006636
-18.170	0.006612
-18.165	0.006627
-18.160	0.006599
-18.155	0.006639
-18.150	0.006607
-18.145	0.006579
-18.140	0.006615
-18.135	0.006607
-18.130	0.006600
-18.125	0.006593
-18.120	0.006573
-18.115	0.006569
-18.110	0.006542
-18.105	0.006545
-18.100	0.006556
-18.095	0.006549
-18.090	0.006560
-18.085	0.006574
-18.080	0.006539
-18.075	0.006539
-18.070	0.006574
-18.065	0.006538
-18.060	0.006546
-18.055	0.006525
-18.050	0.006510
-18.045	0.006508
-18.040	0.006508
-18.035	0.006462
-18.030	0.006495
-18.025	0.006492
-18.020	0.006499
-18.015	0.006506
-18.010	0.006485
-18.005	0.006518
-18.000	0.006448
-17.995	0.006460
-17.990	0.006425
-17.985	0.006424
-17.980	0.006416
-17.975	0.006430
-17.970	0.006390
-17.965	0.006432
-17.960	0.006423
-17.955	0.006392
-17.950	0.006379
-17.945	0.006406
-17.940	0.006371
-17.935	0.006384
-17.930	0.006363
-17.925	0.006320
-17.920	0.006348
-17.915	0.006341
-17.910	0.006335
-17.905	0.006322
-17.900	0.006338
-17.895	0.006308
-17.890	0.006327
-17.885	0.006327
-17.880	0.006314
-17.875	0.006300
-17.870	0.006286
-17.865	0.006306
-17.860	0.006300
-17.855	0.006292
-17.850	0.006278
-17.845	0.006291
-17.840	0.006250
-17.835	0.006252
-17.830	0.006265
-17.825	0.006243
-17.820	0.006290
-17.815	0.006241
-17.810	0.006256
-17.805	0.006249
-17.800	0.006276
-17.795	0.006241
-17.790	0.006233
-17.785	0.006218
-17.780	0.006204
-17.775	0.006244
-17.770	0.006185
-17.765	0.006226
-17.760	0.006197
-17.755	0.006161
-17.750	0.006188
-17.745	0.006188
-17.740	0.006167
-17.735	0.006146
-17.730	0.006145
-17.725	0.006144
-17.720	0.006152
-17.715	0.006110
-17.710	0.006089
-17.705	0.006083
-17.700	0.006118
-17.695	0.006111
-17.690	0.006096
-17.685	0.006102
-17.680	0.006108
-17.675	0.006074
-17.670	0.006073
-17.665	0.006052
-17.660	0.006080
-17.655	0.006031
-17.650	0.006045
-17.645	0.006031
-17.640	0.005984
-17.635	0.006035
-17.630	0.006035
-17.625	0.006020
-17.620	0.006000
-17.615	0.005993
-17.610	0.005995
-17.605	0.005979
-17.600	0.006015
-17.595	0.005973
-17.590	0.005975
-17.585	0.005939
-17.580	0.005967
-17.575	0.005980
-17.570	0.005961
-17.565	0.005962
-17.560	0.005934
-17.555	0.005896
-17.550	0.005945
-17.545	0.005924
-17.540	0.005924
-17.535	0.005896
-17.530	0.005923
-17.525	0.005923
-17.520	0.005887
-17.515	0.005901
-17.510	0.005895
-17.505	0.005841
-17.500	0.005897
-17.495	0.005881
-17.490	0.005879
-17.485	0.005880
-17.480	0.005860
-17.475	0.005810
-17.470	0.005858
-17.465	0.005843
-17.460	0.005843
-17.455	0.005800
-17.450	0.005814
-17.445	0.005799
-17.440	0.005801
-17.435	0.005796
-17.430	0.005816
-17.425	0.005800
-17.420	0.005807
-17.415	0.005815
-17.410	0.005807
-17.405	0.005780
-17.400	0.005779
-17.395	0.005784
-17.390	0.005757
-17.385	0.005750
-17.380	0.005743
-17.375	0.005777
-17.370	0.005737
-17.365	0.005744
-17.360	0.005729
-17.355	0.005740
-17.350	0.005741
-17.345	0.005740
-17.340	0.005707
-17.335	0.005740
-17.330	0.005732
-17.325	0.005726
-17.320	0.005698
-17.315	0.005697
-17.310	0.005683
-17.305	0.005670
-17.300	0.005672
-17.295	0.005677
-17.290	0.005675
-17.285	0.005668
-17.280	0.005660
-17.275	0.005694
-17.270	0.005653
-17.265	0.005653
-17.260	0.005633
-17.255	0.005626
-17.250	0.005632
-17.245	0.005639
-17.240	0.005626
-17.235	0.005593
-17.230	0.005592
-17.225	0.005590
-17.220	0.005576
-17.215	0.005597
-17.210	0.005612
-17.205	0.005612
-17.200	0.005577
-17.195	0.005578
-17.190	0.005544
-17.185	0.005571
-17.180	0.005544
-17.175	0.005523
-17.170	0.005562
-17.165	0.005549
-17.160	0.005554
-17.155	0.005512
-17.150	0.005566
-17.145	0.005537
-17.140	0.005537
-17.135	0.005509
-17.130	0.005531
-17.125	0.005503
-17.120	0.005509
-17.115	0.005474
-17.110	0.005495
-17.105	0.005504
-17.100	0.005496
-17.095	0.005495
-17.090	0.005507
-17.085	0.005480
-17.080	0.005528
-17.075	0.005487
-17.070	0.005488
-17.065	0.005480
-17.060	0.005494
-17.055	0.005466
-17.050	0.005459
-17.045	0.005450
-17.040	0.005471
-17.035	0.005452
-17.030	0.005412
-17.025	0.005457
-17.020	0.005423
-17.015	0.005437
-17.010	0.005436
-17.005	0.005422
-17.000	0.005409
-16.995	0.005435
-16.990	0.005394
-16.985	0.005408
-16.980	0.005429
-16.975	0.005387
-16.970	0.005404
-16.965	0.005370
-16.960	0.005389
-16.955	0.005416
-16.950	0.005375
-16.945	0.005396
-16.940	0.005376
-16.935	0.005334
-16.930	0.005334
-16.925	0.005355
-16.920	0.005368
-16.915	0.005340
-16.910	0.005326
-16.905	0.005349
-16.900	0.005317
-16.895	0.005295
-16.890	0.005327
-16.885	0.005300
-16.880	0.005341
-16.875	0.005320
-16.870	0.005320
-16.865	0.005315
-16.860	0.005295
-16.855	0.005336
-16.850	0.005267
-16.845	0.005309
-16.840	0.005311
-16.835	0.005286
-16.830	0.005265
-16.825	0.005264
-16.820	0.005244
-16.815	0.005272
-16.810	0.005252
-16.805	0.005266
-16.800	0.005251
-16.795	0.005265
-16.790	0.005216
-16.785	0.005271
-16.780	0.005224
-16.775	0.005223
-16.770	0.005211
-16.765	0.005240
-16.760	0.005211
-16.755	0.005237
-16.750	0.005216
-16.745	0.005228
-16.740	0.005215
-16.735	0.005187
-16.730	0.005202
-16.725	0.005195
-16.720	0.005189
-16.715	0.005187
-16.710	0.005181
-16.705	0.005176
-16.700	0.005191
-16.695	0.005162
-16.690	0.005153
-16.685	0.005146
-16.680	0.005174
-16.675	0.005132
-16.670	0.005146
-16.665	0.005168
-16.660	0.005147
-16.655	0.005079
-16.650	0.005059
-16.645	0.005106
-16.640	0.005088
-16.635	0.005104
-16.630	0.005097
-16.625	0.005107
-16.620	0.005087
-16.615	0.005114
-16.610	0.005087
-16.605	0.005073
-16.600	0.005080
-16.595	0.005059
-16.590	0.005073
-16.585	0.005066
-16.580	0.005052
-16.575	0.004997
-16.570	0.005055
-16.565	0.005020
-16.560	0.005012
-16.555	0.005039
-16.550	0.005039
-16.545	0.005040
-16.540	0.005013
-16.535	0.004992
-16.530	0.005019
-16.525	0.004985
-16.520	0.005027
-16.515	0.004999
-16.510	0.004978
-16.505	0.004973
-16.500	0.004995
-16.495	0.004994
-16.490	0.005013
-16.485	0.005013
-16.480	0.004999
-16.475	0.005019
-16.470	0.004955
-16.465	0.004954
-16.460	0.004933
-16.455	0.004946
-16.450	0.004946
-16.445	0.004980
-16.440	0.004948
-16.435	0.004921
-16.430	0.004947
-16.425	0.004931
-16.420	0.004932
-16.415	0.004965
-16.410	0.004924
-16.405	0.004931
-16.400	0.004910
-16.395	0.004902
-16.390	0.004909
-16.385	0.004888
-16.380	0.004874
-16.375	0.004902
-16.370	0.004919
-16.365	0.004890
-16.360	0.004875
-16.355	0.004894
-16.350	0.004894
-16.345	0.004893
-16.340	0.004887
-16.335	0.004871
-16.330	0.004885
-16.325	0.004864
-16.320	0.004884
-16.315	0.004850
-16.310	0.004851
-16.305	0.004866
-16.300	0.004846
-16.295	0.004873
-16.290	0.004879
-16.285	0.004858
-16.280	0.004831
-16.275	0.004838
-16.270	0.004851
-16.265	0.004810
-16.260	0.004837
-16.255	0.004810
-16.250	0.004824
-16.245	0.004824
-16.240	0.004805
-16.235	0.004793
-16.230	0.004820
-16.225	0.004812
-16.220	0.004812
-16.215	0.004778
-16.210	0.004799
-16.205	0.004778
-16.200	0.004777
-16.195	0.004777
-16.190	0.004744
-16.185	0.004785
-16.180	0.004751
-16.175	0.004779
-16.170	0.004769
-16.165	0.004755
-16.160	0.004768
-16.155	0.004767
-16.150	0.004755
-16.145	0.004775
-16.140	0.004770
-16.135	0.004722
-16.130	0.004750
-16.125	0.004751
-16.120	0.004716
-16.115	0.004737
-16.110	0.004737
-16.105	0.004713
-16.100	0.004735
-16.095	0.004735
-16.090	0.004733
-16.085	0.004726
-16.080	0.004712
-16.075	0.004719
-16.070	0.004691
-16.065	0.004698
-16.060	0.004704
-16.055	0.004718
-16.050	0.004690
-16.045	0.004710
-16.040	0.004718
-16.035	0.004671
-16.030	0.004697
-16.025	0.004682
-16.020	0.004669
-16.015	0.004690
-16.010	0.004725
-16.005	0.004684
-16.000	0.004704
-15.995	0.004668
-15.990	0.004648
-15.985	0.004675
-15.980	0.004654
-15.975	0.004633
-15.970	0.004669
-15.965	0.004654
-15.960	0.004645
-15.955	0.004645
-15.950	0.004637
-15.945	0.004644
-15.940	0.004672
-15.935	0.004608
-15.930	0.004615
-15.925	0.004600
-15.920	0.004619
-15.915	0.004605
-15.910	0.004584
-15.905	0.004642
-15.900	0.004594
-15.895	0.004598
-15.890	0.004604
-15.885	0.004570
-15.880	0.004591
-15.875	0.004562
-15.870	0.004603
-15.865	0.004575
-15.860	0.004568
-15.855	0.004553
-15.850	0.004526
-15.845	0.004546
-15.840	0.004540
-15.835	0.004575
-15.830	0.004525
-15.825	0.004523
-15.820	0.004557
-15.815	0.004578
-15.810	0.004556
-15.805	0.004529
-15.800	0.004521
-15.795	0.004500
-15.790	0.004514
-15.785	0.004527
-15.780	0.004521
-15.775	0.004536
-15.770	0.004517
-15.765	0.004502
-15.760	0.004494
-15.755	0.004493
-15.750	0.004528
-15.745	0.004494
-15.740	0.004495
-15.735	0.004494
-15.730	0.004459
-15.725	0.004466
-15.720	0.004493
-15.715	0.004465
-15.710	0.004445
-15.705	0.004476
-15.700	0.004470
-15.695	0.004447
-15.690	0.004419
-15.685	0.004446
-15.680	0.004481
-15.675	0.004453
-15.670	0.004453
-15.665	0.004439
-15.660	0.004453
-15.655	0.004439
-15.650	0.004432
-15.645	0.004425
-15.640	0.004420
-15.635	0.004408
-15.630	0.004428
-15.625	0.004432
-15.620	0.004414
-15.615	0.004406
-15.610	0.004421
-15.605	0.004401
-15.600	0.004415
-15.595	0.004401
-15.590	0.004421
-15.585	0.004358
-15.580	0.004386
-15.575	0.004366
-15.570	0.004375
-15.565	0.004389
-15.560	0.004380
-15.555	0.004385
-15.550	0.004393
-15.545	0.004365
-15.540	0.004366
-15.535	0.004331
-15.530	0.004365
-15.525	0.004344
-15.520	0.004344
-15.515	0.004351
-15.510	0.004331
-15.505	0.004340
-15.500	0.004340
-15.495	0.004338
-15.490	0.004338
-15.485	0.004318
-15.480	0.004332
-15.475	0.004340
-15.470	0.004291
-15.465	0.004311
-15.460	0.004339
-15.455	0.004317
-15.450	0.004276
-15.445	0.004303
-15.440	0.004298
-15.435	0.004313
-15.430	0.004298
-15.425	0.004317
-15.420	0.004317
-15.415	0.004324
-15.410	0.004296
-15.405	0.004289
-15.400	0.004281
-15.395	0.004309
-15.390	0.004288
-15.385	0.004253
-15.380	0.004233
-15.375	0.004254
-15.370	0.004283
-15.365	0.004261
-15.360	0.004280
-15.355	0.004246
-15.350	0.004273
-15.345	0.004274
-15.340	0.004220
-15.335	0.004246
-15.330	0.004212
-15.325	0.004246
-15.320	0.004246
-15.315	0.004204
-15.310	0.004198
-15.305	0.004221
-15.300	0.004180
-15.295	0.004186
-15.290	0.004218
-15.285	0.004198
-15.280	0.004212
-15.275	0.004205
-15.270	0.004193
-15.265	0.004179
-15.260	0.004185
-15.255	0.004165
-15.250	0.004159
-15.245	0.004173
-15.240	0.004182
-15.235	0.004197
-15.230	0.004189
-15.225	0.004160
-15.220	0.004174
-15.215	0.004189
-15.210	0.004183
-15.205	0.004156
-15.200	0.004164
-15.195	0.004165
-15.190	0.004138
-15.185	0.004152
-15.180	0.004133
-15.175	0.004127
-15.170	0.004123
-15.165	0.004158
-15.160	0.004143
-15.155	0.004117
-15.150	0.004132
-15.145	0.004125
-15.140	0.004148
-15.135	0.004127
-15.130	0.004121
-15.125	0.004114
-15.120	0.004100
-15.115	0.004129
-15.110	0.004109
-15.105	0.004083
-15.100	0.004117
-15.095	0.004109
-15.090	0.004108
-15.085	0.004109
-15.080	0.004095
-15.075	0.004102
-15.070	0.004102
-15.065	0.004095
-15.060	0.004094
-15.055	0.004101
-15.050	0.004102
-15.045	0.004088
-15.040	0.004117
-15.035	0.004076
-15.030	0.004103
-15.025	0.004121
-15.020	0.004087
-15.015	0.004129
-15.010	0.004108
-15.005	0.004087
-15.000	0.004099
-14.995	0.004112
-14.990	0.004069
-14.985	0.004076
-14.980	0.004041
-14.975	0.004069
-14.970	0.004138
-14.965	0.004088
-14.960	0.004093
-14.955	0.004057
-14.950	0.004078
-14.945	0.004084
-14.940	0.004056
-14.935	0.004021
-14.930	0.004055
-14.925	0.004054
-14.920	0.004047
-14.915	0.004005
-14.910	0.004046
-14.905	0.004020
-14.900	0.004012
-14.895	0.004031
-14.890	0.004023
-14.885	0.004084
-14.880	0.004002
-14.875	0.004022
-14.870	0.004041
-14.865	0.004020
-14.860	0.003998
-14.855	0.003998
-14.850	0.004005
-14.845	0.003984
-14.840	0.003999
-14.835	0.004007
-14.830	0.003957
-14.825	0.003976
-14.820	0.004031
-14.815	0.003970
-14.810	0.003969
-14.805	0.003962
-14.800	0.003983
-14.795	0.003956
-14.790	0.003969
-14.785	0.003955
-14.780	0.003921
-14.775	0.003963
-14.770	0.003950
-14.765	0.003956
-14.760	0.003948
-14.755	0.003914
-14.750	0.003961
-14.745	0.003955
-14.740	0.003955
-14.735	0.003921
-14.730	0.003942
-14.725	0.003921
-14.720	0.003901
-14.715	0.003922
-14.710	0.003860
-14.705	0.003890
-14.700	0.003917
-14.695	0.003935
-14.690	0.003941
-14.685	0.003908
-14.680	0.003916
-14.675	0.003923
-14.670	0.003889
-14.665	0.003895
-14.660	0.003901
-14.655	0.003866
-14.650	0.003873
-14.645	0.003887
-14.640	0.003849
-14.635	0.003863
-14.630	0.003896
-14.625	0.003888
-14.620	0.003908
-14.615	0.003881
-14.610	0.003873
-14.605	0.003872
-14.600	0.003886
-14.595	0.003844
-14.590	0.003838
-14.585	0.003845
-14.580	0.003844
-14.575	0.003852
-14.570	0.003832
-14.565	0.003837
-14.560	0.003837
-14.555	0.003823
-14.550	0.003864
-14.545	0.003843
-14.540	0.003850
-14.535	0.003843
-14.530	0.003856
-14.525	0.003821
-14.520	0.003835
-14.515	0.003815
-14.510	0.003829
-14.505	0.003789
-14.500	0.003816
-14.495	0.003773
-14.490	0.003800
-14.485	0.003834
-14.480	0.003820
-14.475	0.003813
-14.470	0.003806
-14.465	0.003777
-14.460	0.003784
-14.455	0.003797
-14.450	0.003777
-14.445	0.003770
-14.440	0.003786
-14.435	0.003765
-14.430	0.003764
-14.425	0.003783
-14.420	0.003769
-14.415	0.003790
-14.410	0.003762
-14.405	0.003775
-14.400	0.003789
-14.395	0.003768
-14.390	0.003761
-14.385	0.003761
-14.380	0.003775
-14.375	0.003762
-14.370	0.003722
-14.365	0.003734
-14.360	0.003740
-14.355	0.003733
-14.350	0.003733
-14.345	0.003740
-14.340	0.003747
-14.335	0.003726
-14.330	0.003718
-14.325	0.003711
-14.320	0.003718
-14.315	0.003725
-14.310	0.003712
-14.305	0.003734
-14.300	0.003706
-14.295	0.003725
-14.290	0.003718
-14.285	0.003705
-14.280	0.003726
-14.275	0.003712
-14.270	0.003691
-14.265	0.003698
-14.260	0.003664
-14.255	0.003676
-14.250	0.003697
-14.245	0.003690
-14.240	0.003672
-14.235	0.003686
-14.230	0.003671
-14.225	0.003677
-14.220	0.003691
-14.215	0.003663
-14.210	0.003656
-14.205	0.003649
-14.200	0.003670
-14.195	0.003655
-14.190	0.003621
-14.185	0.003648
-14.180	0.003642
-14.175	0.003677
-14.170	0.003643
-14.165	0.003635
-14.160	0.003654
-14.155	0.003648
-14.150	0.003669
-14.145	0.003628
-14.140	0.003670
-14.135	0.003628
-14.130	0.003635
-14.125	0.003621
-14.120	0.003635
-14.115	0.003614
-14.110	0.003628
-14.105	0.003623
-14.100	0.003622
-14.095	0.003613
-14.090	0.003600
-14.085	0.003613
-14.080	0.003607
-14.075	0.003620
-14.070	0.003592
-14.065	0.003585
-14.060	0.003606
-14.055	0.003585
-14.050	0.003564
-14.045	0.003579
-14.040	0.003594
-14.035	0.003586
-14.030	0.003578
-14.025	0.003584
-14.020	0.003599
-14.015	0.003598
-14.010	0.003585
-14.005	0.003570
-14.000	0.003564
-13.995	0.003557
-13.990	0.003537
-13.985	0.003563
-13.980	0.003543
-13.975	0.003538
-13.970	0.003566
-13.965	0.003565
-13.960	0.003516
-13.955	0.003536
-13.950	0.003543
-13.945	0.003550
-13.940	0.003557
-13.935	0.003542
-13.930	0.003508
-13.925	0.003508
-13.920	0.003508
-13.915	0.003515
-13.910	0.003509
-13.905	0.003503
-13.900	0.003489
-13.895	0.003515
-13.890	0.003502
-13.885	0.003475
-13.880	0.003524
-13.875	0.003502
-13.870	0.003496
-13.865	0.003509
-13.860	0.003488
-13.855	0.003474
-13.850	0.003453
-13.845	0.003467
-13.840	0.003483
-13.835	0.003496
-13.830	0.003481
-13.825	0.003514
-13.820	0.003494
-13.815	0.003466
-13.810	0.003494
-13.805	0.003500
-13.800	0.003487
-13.795	0.003472
-13.790	0.003458
-13.785	0.003452
-13.780	0.003458
-13.775	0.003431
-13.770	0.003459
-13.765	0.003465
-13.760	0.003464
-13.755	0.003465
-13.750	0.003451
-13.745	0.003465
-13.740	0.003452
-13.735	0.003465
-13.730	0.003458
-13.725	0.003450
-13.720	0.003429
-13.715	0.003429
-13.710	0.003450
-13.705	0.003445
-13.700	0.003438
-13.695	0.003450
-13.690	0.003443
-13.685	0.003456
-13.680	0.003456
-13.675	0.003429
-13.670	0.003435
-13.665	0.003428
-13.660	0.003401
-13.655	0.003393
-13.650	0.003407
-13.645	0.003387
-13.640	0.003402
-13.635	0.003402
-13.630	0.003401
-13.625	0.003393
-13.620	0.003401
-13.615	0.003395
-13.610	0.003367
-13.605	0.003395
-13.600	0.003395
-13.595	0.003368
-13.590	0.003361
-13.585	0.003395
-13.580	0.003396
-13.575	0.003376
-13.570	0.003377
-13.565	0.003369
-13.560	0.003382
-13.555	0.003403
-13.550	0.003355
-13.545	0.003403
-13.540	0.003369
-13.535	0.003361
-13.530	0.003382
-13.525	0.003355
-13.520	0.003348
-13.515	0.003363
-13.510	0.003316
-13.505	0.003372
-13.500	0.003365
-13.495	0.003357
-13.490	0.003357
-13.485	0.003378
-13.480	0.003331
-13.475	0.003359
-13.470	0.003325
-13.465	0.003325
-13.460	0.003311
-13.455	0.003291
-13.450	0.003325
-13.445	0.003298
-13.440	0.003329
-13.435	0.003329
-13.430	0.003286
-13.425	0.003321
-13.420	0.003307
-13.415	0.003342
-13.410	0.003307
-13.405	0.003308
-13.400	0.003329
-13.395	0.003314
-13.390	0.003272
-13.385	0.003300
-13.380	0.003314
-13.375	0.003295
-13.370	0.003281
-13.365	0.003308
-13.360	0.003300
-13.355	0.003293
-13.350	0.003314
-13.345	0.003280
-13.340	0.003314
-13.335	0.003300
-13.330	0.003300
-13.325	0.003273
-13.320	0.003286
-13.315	0.003265
-13.310	0.003280
-13.305	0.003287
-13.300	0.003259
-13.295	0.003271
-13.290	0.003292
-13.285	0.003291
-13.280	0.003265
-13.275	0.003285
-13.270	0.003263
-13.265	0.003284
-13.260	0.003263
-13.255	0.003248
-13.250	0.003276
-13.245	0.003270
-13.240	0.003244
-13.235	0.003264
-13.230	0.003269
-13.225	0.003262
-13.220	0.003241
-13.215	0.003262
-13.210	0.003248
-13.205	0.003268
-13.200	0.003268
-13.195	0.003227
-13.190	0.003241
-13.185	0.003206
-13.180	0.003226
-13.175	0.003200
-13.170	0.003200
-13.165	0.003234
-13.160	0.003239
-13.155	0.003205
-13.150	0.003232
-13.145	0.003225
-13.140	0.003225
-13.135	0.003211
-13.130	0.003183
-13.125	0.003197
-13.120	0.003183
-13.115	0.003203
-13.110	0.003205
-13.105	0.003198
-13.100	0.003192
-13.095	0.003190
-13.090	0.003169
-13.085	0.003198
-13.080	0.003205
-13.075	0.003184
-13.070	0.003183
-13.065	0.003169
-13.060	0.003142
-13.055	0.003190
-13.050	0.003169
-13.045	0.003177
-13.040	0.003186
-13.035	0.003137
-13.030	0.003164
-13.025	0.003163
-13.020	0.003143
-13.015	0.003156
-13.010	0.003170
-13.005	0.003169
-13.000	0.003177
-12.995	0.003121
-12.990	0.003156
-12.985	0.003107
-12.980	0.003128
-12.975	0.003144
-12.970	0.003144
-12.965	0.003109
-12.960	0.003108
-12.955	0.003150
-12.950	0.003143
-12.945	0.003122
-12.940	0.003136
-12.935	0.003123
-12.930	0.003123
-12.925	0.003122
-12.920	0.003094
-12.915	0.003101
-12.910	0.003130
-12.905	0.003117
-12.900	0.003117
-12.895	0.003101
-12.890	0.003115
-12.885	0.003095
-12.880	0.003108
-12.875	0.003108
-12.870	0.003094
-12.865	0.003080
-12.860	0.003073
-12.855	0.003073
-12.850	0.003087
-12.845	0.003073
-12.840	0.003108
-12.835	0.003094
-12.830	0.003045
-12.825	0.003065
-12.820	0.003094
-12.815	0.003080
-12.810	0.003093
-12.805	0.003086
-12.800	0.003079
-12.795	0.003058
-12.790	0.003064
-12.785	0.003071
-12.780	0.003030
-12.775	0.003059
-12.770	0.003066
-12.765	0.003031
-12.760	0.003078
-12.755	0.003064
-12.750	0.003077
-12.745	0.003084
-12.740	0.003050
-12.735	0.003022
-12.730	0.003035
-12.725	0.003036
-12.720	0.003049
-12.715	0.003008
-12.710	0.003037
-12.705	0.003051
-12.700	0.003016
-12.695	0.003014
-12.690	0.003036
-12.685	0.003022
-12.680	0.003022
-12.675	0.003042
-12.670	0.003035
-12.665	0.003014
-12.660	0.003014
-12.655	0.002987
-12.650	0.003028
-12.645	0.003028
-12.640	0.003015
-12.635	0.003029
-12.630	0.003034
-12.625	0.003041
-12.620	0.003027
-12.615	0.003027
-12.610	0.002999
-12.605	0.002985
-12.600	0.002999
-12.595	0.003020
-12.590	0.002965
-12.585	0.002972
-12.580	0.002985
-12.575	0.002987
-12.570	0.002994
-12.565	0.002985
-12.560	0.002985
-12.555	0.003020
-12.550	0.003041
-12.545	0.003006
-12.540	0.002979
-12.535	0.002992
-12.530	0.002971
-12.525	0.002971
-12.520	0.002957
-12.515	0.002998
-12.510	0.002979
-12.505	0.002952
-12.500	0.002965
-12.495	0.002978
-12.490	0.002985
-12.485	0.002971
-12.480	0.002971
-12.475	0.002944
-12.470	0.002937
-12.465	0.002943
-12.460	0.002950
-12.455	0.002964
-12.450	0.002943
-12.445	0.002957
-12.440	0.002965
-12.435	0.002965
-12.430	0.002943
-12.425	0.002956
-12.420	0.002929
-12.415	0.002936
-12.410	0.002922
-12.405	0.002956
-12.400	0.002922
-12.395	0.002936
-12.390	0.002922
-12.385	0.002908
-12.380	0.002908
-12.375	0.002909
-12.370	0.002889
-12.365	0.002908
-12.360	0.002914
-12.355	0.002894
-12.350	0.002908
-12.345	0.002914
-12.340	0.002900
-12.335	0.002934
-12.330	0.002893
-12.325	0.002900
-12.320	0.002900
-12.315	0.002886
-12.310	0.002894
-12.305	0.002887
-12.300	0.002894
-12.295	0.002892
-12.290	0.002872
-12.285	0.002893
-12.280	0.002914
-12.275	0.002865
-12.270	0.002886
-12.265	0.002878
-12.260	0.002878
-12.255	0.002906
-12.250	0.002905
-12.245	0.002851
-12.240	0.002852
-12.235	0.002879
-12.230	0.002885
-12.225	0.002898
-12.220	0.002864
-12.215	0.002843
-12.210	0.002863
-12.205	0.002877
-12.200	0.002863
-12.195	0.002849
-12.190	0.002849
-12.185	0.002835
-12.180	0.002855
-12.175	0.002815
-12.170	0.002829
-12.165	0.002842
-12.160	0.002890
-12.155	0.002841
-12.150	0.002862
-12.145	0.002855
-12.140	0.002848
-12.135	0.002855
-12.130	0.002848
-12.125	0.002813
-12.120	0.002834
-12.115	0.002847
-12.110	0.002821
-12.105	0.002842
-12.100	0.002807
-12.095	0.002798
-12.090	0.002847
-12.085	0.002791
-12.080	0.002784
-12.075	0.002832
-12.070	0.002791
-12.065	0.002804
-12.060	0.002818
-12.055	0.002770
-12.050	0.002811
-12.045	0.002791
-12.040	0.002764
-12.035	0.002784
-12.030	0.002797
-12.025	0.002776
-12.020	0.002784
-12.015	0.002790
-12.010	0.002804
-12.005	0.002790
-12.000	0.002769
-11.995	0.002776
-11.990	0.002776
-11.985	0.002775
-11.980	0.002762
-11.975	0.002757
-11.970	0.002784
-11.965	0.002748
-11.960	0.002782
-11.955	0.002748
-11.950	0.002789
-11.945	0.002789
-11.940	0.002762
-11.935	0.002762
-11.930	0.002761
-11.925	0.002775
-11.920	0.002748
-11.915	0.002754
-11.910	0.002742
-11.905	0.002748
-11.900	0.002762
-11.895	0.002754
-11.890	0.002789
-11.885	0.002733
-11.880	0.002754
-11.875	0.002747
-11.870	0.002733
-11.865	0.002739
-11.860	0.002747
-11.855	0.002761
-11.850	0.002712
-11.845	0.002747
-11.840	0.002707
-11.835	0.002734
-11.830	0.002712
-11.825	0.002760
-11.820	0.002733
-11.815	0.002733
-11.810	0.002746
-11.805	0.002726
-11.800	0.002712
-11.795	0.002705
-11.790	0.002691
-11.785	0.002705
-11.780	0.002692
-11.775	0.002693
-11.770	0.002692
-11.765	0.002739
-11.760	0.002733
-11.755	0.002698
-11.750	0.002720
-11.745	0.002699
-11.740	0.002713
-11.735	0.002692
-11.730	0.002685
-11.725	0.002671
-11.720	0.002685
-11.715	0.002678
-11.710	0.002673
-11.705	0.002694
-11.700	0.002693
-11.695	0.002685
-11.690	0.002693
-11.685	0.002686
-11.680	0.002679
-11.675	0.002686
-11.670	0.002630
-11.665	0.002692
-11.660	0.002616
-11.655	0.002658
-11.650	0.002678
-11.645	0.002652
-11.640	0.002694
-11.635	0.002638
-11.630	0.002617
-11.625	0.002679
-11.620	0.002665
-11.615	0.002659
-11.610	0.002665
-11.605	0.002659
-11.600	0.002645
-11.595	0.002672
-11.590	0.002644
-11.585	0.002603
-11.580	0.002665
-11.575	0.002626
-11.570	0.002618
-11.565	0.002658
-11.560	0.002645
-11.555	0.002644
-11.550	0.002603
-11.545	0.002638
-11.540	0.002659
-11.535	0.002652
-11.530	0.002617
-11.525	0.002658
-11.520	0.002596
-11.515	0.002610
-11.510	0.002626
-11.505	0.002633
-11.500	0.002591
-11.495	0.002631
-11.490	0.002611
-11.485	0.002618
-11.480	0.002632
-11.475	0.002611
-11.470	0.002618
-11.465	0.002604
-11.460	0.002583
-11.455	0.002610
-11.450	0.002597
-11.445	0.002626
-11.440	0.002599
-11.435	0.002578
-11.430	0.002597
-11.425	0.002631
-11.420	0.002618
-11.415	0.002590
-11.410	0.002590
-11.405	0.002611
-11.400	0.002596
-11.395	0.002548
-11.390	0.002589
-11.385	0.002575
-11.380	0.002562
-11.375	0.002543
-11.370	0.002576
-11.365	0.002562
-11.360	0.002589
-11.355	0.002548
-11.350	0.002555
-11.345	0.002569
-11.340	0.002575
-11.335	0.002555
-11.330	0.002548
-11.325	0.002555
-11.320	0.002548
-11.315	0.002547
-11.310	0.002563
-11.305	0.002549
-11.300	0.002528
-11.295	0.002568
-11.290	0.002561
-11.285	0.002561
-11.280	0.002534
-11.275	0.002562
-11.270	0.002541
-11.265	0.002534
-11.260	0.002533
-11.255	0.002527
-11.250	0.002513
-11.245	0.002535
-11.240	0.002549
-11.235	0.002528
-11.230	0.002520
-11.225	0.002548
-11.220	0.002521
-11.215	0.002534
-11.210	0.002520
-11.205	0.002534
-11.200	0.002513
-11.195	0.002520
-11.190	0.002520
-11.185	0.002499
-11.180	0.002520
-11.175	0.002500
-11.170	0.002508
-11.165	0.002478
-11.160	0.002499
-11.155	0.002499
-11.150	0.002513
-11.145	0.002492
-11.140	0.002499
-11.135	0.002492
-11.130	0.002512
-11.125	0.002477
-11.120	0.002464
-11.115	0.002478
-11.110	0.002479
-11.105	0.002472
-11.100	0.002485
-11.095	0.002498
-11.090	0.002499
-11.085	0.002513
-11.080	0.002486
-11.075	0.002485
-11.070	0.002464
-11.065	0.002457
-11.060	0.002451
-11.055	0.002457
-11.050	0.002478
-11.045	0.002486
-11.040	0.002473
-11.035	0.002451
-11.030	0.002457
-11.025	0.002464
-11.020	0.002450
-11.015	0.002464
-11.010	0.002478
-11.005	0.002470
-11.000	0.002450
-10.995	0.002429
-10.990	0.002456
-10.985	0.002415
-10.980	0.002423
-10.975	0.002472
-10.970	0.002464
-10.965	0.002429
-10.960	0.002422
-10.955	0.002449
-10.950	0.002464
-10.945	0.002449
-10.940	0.002422
-10.935	0.002443
-10.930	0.002456
-10.925	0.002449
-10.920	0.002400
-10.915	0.002414
-10.910	0.002381
-10.905	0.002381
-10.900	0.002394
-10.895	0.002434
-10.890	0.002421
-10.885	0.002407
-10.880	0.002413
-10.875	0.002399
-10.870	0.002413
-10.865	0.002433
-10.860	0.002378
-10.855	0.002392
-10.850	0.002413
-10.845	0.002393
-10.840	0.002421
-10.835	0.002420
-10.830	0.002392
-10.825	0.002412
-10.820	0.002392
-10.815	0.002385
-10.810	0.002405
-10.805	0.002392
-10.800	0.002392
-10.795	0.002384
-10.790	0.002343
-10.785	0.002363
-10.780	0.002357
-10.775	0.002372
-10.770	0.002337
-10.765	0.002363
-10.760	0.002363
-10.755	0.002391
-10.750	0.002363
-10.745	0.002363
-10.740	0.002376
-10.735	0.002376
-10.730	0.002363
-10.725	0.002348
-10.720	0.002335
-10.715	0.002328
-10.710	0.002350
-10.705	0.002357
-10.700	0.002356
-10.695	0.002349
-10.690	0.002342
-10.685	0.002376
-10.680	0.002370
-10.675	0.002363
-10.670	0.002349
-10.665	0.002328
-10.660	0.002308
-10.655	0.002329
-10.650	0.002329
-10.645	0.002344
-10.640	0.002303
-10.635	0.002357
-10.630	0.002335
-10.625	0.002315
-10.620	0.002329
-10.615	0.002315
-10.610	0.002315
-10.605	0.002308
-10.600	0.002335
-10.595	0.002314
-10.590	0.002301
-10.585	0.002308
-10.580	0.002316
-10.575	0.002289
-10.570	0.002296
-10.565	0.002336
-10.560	0.002316
-10.555	0.002309
-10.550	0.002323
-10.545	0.002296
-10.540	0.002310
-10.535	0.002323
-10.530	0.002282
-10.525	0.002261
-10.520	0.002295
-10.515	0.002268
-10.510	0.002256
-10.505	0.002283
-10.500	0.002317
-10.495	0.002275
-10.490	0.002309
-10.485	0.002289
-10.480	0.002296
-10.475	0.002295
-10.470	0.002303
-10.465	0.002295
-10.460	0.002302
-10.455	0.002274
-10.450	0.002227
-10.445	0.002296
-10.440	0.002283
-10.435	0.002275
-10.430	0.002302
-10.425	0.002288
-10.420	0.002254
-10.415	0.002261
-10.410	0.002295
-10.405	0.002274
-10.400	0.002261
-10.395	0.002288
-10.390	0.002253
-10.385	0.002246
-10.380	0.002268
-10.375	0.002248
-10.370	0.002254
-10.365	0.002219
-10.360	0.002287
-10.355	0.002253
-10.350	0.002267
-10.345	0.002260
-10.340	0.002302
-10.335	0.002254
-10.330	0.002260
-10.325	0.002219
-10.320	0.002267
-10.315	0.002267
-10.310	0.002248
-10.305	0.002219
-10.300	0.002245
-10.295	0.002211
-10.290	0.002184
-10.285	0.002273
-10.280	0.002232
-10.275	0.002246
-10.270	0.002190
-10.265	0.002245
-10.260	0.002197
-10.255	0.002224
-10.250	0.002238
-10.245	0.002171
-10.240	0.002212
-10.235	0.002205
-10.230	0.002217
-10.225	0.002210
-10.220	0.002217
-10.215	0.002224
-10.210	0.002231
-10.205	0.002190
-10.200	0.002231
-10.195	0.002162
-10.190	0.002169
-10.185	0.002176
-10.180	0.002149
-10.175	0.002184
-10.170	0.002183
-10.165	0.002155
-10.160	0.002189
-10.155	0.002203
-10.150	0.002197
-10.145	0.002162
-10.140	0.002197
-10.135	0.002196
-10.130	0.002189
-10.125	0.002147
-10.120	0.002148
-10.115	0.002175
-10.110	0.002190
-10.105	0.002176
-10.100	0.002149
-10.095	0.002196
-10.090	0.002161
-10.085	0.002161
-10.080	0.002182
-10.075	0.002147
-10.070	0.002182
-10.065	0.002147
-10.060	0.002168
-10.055	0.002147
-10.050	0.002141
-10.045	0.002135
-10.040	0.002141
-10.035	0.002147
-10.030	0.002161
-10.025	0.002167
-10.020	0.002154
-10.015	0.002161
-10.010	0.002161
-10.005	0.002147
-10.000	0.002127
-9.995	0.002133
-9.990	0.002154
-9.985	0.002112
-9.980	0.002155
-9.975	0.002114
-9.970	0.002087
-9.965	0.002140
-9.960	0.002147
-9.955	0.002175
-9.950	0.002140
-9.945	0.002126
-9.940	0.002146
-9.935	0.002126
-9.930	0.002119
-9.925	0.002106
-9.920	0.002126
-9.915	0.002113
-9.910	0.002142
-9.905	0.002120
-9.900	0.002119
-9.895	0.002092
-9.890	0.002106
-9.885	0.002092
-9.880	0.002113
-9.875	0.002134
-9.870	0.002127
-9.865	0.002113
-9.860	0.002099
-9.855	0.002085
-9.850	0.002078
-9.845	0.002073
-9.840	0.002107
-9.835	0.002093
-9.830	0.002078
-9.825	0.002120
-9.820	0.002092
-9.815	0.002106
-9.810	0.002099
-9.805	0.002071
-9.800	0.002092
-9.795	0.002084
-9.790	0.002085
-9.785	0.002071
-9.780	0.002099
-9.775	0.002066
-9.770	0.002099
-9.765	0.002070
-9.760	0.002064
-9.755	0.002085
-9.750	0.002099
-9.745	0.002085
-9.740	0.002051
-9.735	0.002057
-9.730	0.002084
-9.725	0.002064
-9.720	0.002064
-9.715	0.002078
-9.710	0.002037
-9.705	0.002037
-9.700	0.002043
-9.695	0.002056
-9.690	0.002050
-9.685	0.002084
-9.680	0.002071
-9.675	0.002063
-9.670	0.002049
-9.665	0.002042
-9.660	0.002028
-9.655	0.002056
-9.650	0.002049
-9.645	0.002048
-9.640	0.002027
-9.635	0.002048
-9.630	0.002013
-9.625	0.001999
-9.620	0.002034
-9.615	0.001993
-9.610	0.001992
-9.605	0.001966
-9.600	0.002007
-9.595	0.001952
-9.590	0.001930
-9.585	0.001924
-9.580	0.001869
-9.575	0.001766
-9.570	0.001593
-9.565	0.001249
-9.560	0.000747
-9.555	-0.000031
-9.550	-0.001120
-9.545	-0.002588
-9.540	-0.004467
-9.535	-0.006827
-9.530	-0.009528
-9.525	-0.012656
-9.520	-0.016136
-9.515	-0.019774
-9.510	-0.023953
-9.505	-0.028235
-9.500	-0.032606
-9.495	-0.037019
-9.490	-0.041138
-9.485	-0.045041
-9.480	-0.048786
-9.475	-0.051915
-9.470	-0.053377
-9.465	-0.052356
-9.460	-0.049235
-9.455	-0.045080
-9.450	-0.040911
-9.445	-0.037256
-9.440	-0.034392
-9.435	-0.032049
-9.430	-0.030263
-9.425	-0.028815
-9.420	-0.027588
-9.415	-0.026514
-9.410	-0.025608
-9.405	-0.024826
-9.400	-0.024114
-9.395	-0.023405
-9.390	-0.022756
-9.385	-0.022175
-9.380	-0.021675
-9.375	-0.021188
-9.370	-0.020665
-9.365	-0.020189
-9.360	-0.019736
-9.355	-0.019286
-9.350	-0.018849
-9.345	-0.018504
-9.340	-0.018151
-9.335	-0.017806
-9.330	-0.017514
-9.325	-0.017211
-9.320	-0.016892
-9.315	-0.016593
-9.310	-0.016302
-9.305	-0.016079
-9.300	-0.015867
-9.295	-0.015650
-9.290	-0.015414
-9.285	-0.015177
-9.280	-0.014926
-9.275	-0.014709
-9.270	-0.014477
-9.265	-0.014260
-9.260	-0.014054
-9.255	-0.013830
-9.250	-0.013687
-9.245	-0.013522
-9.240	-0.013384
-9.235	-0.013190
-9.230	-0.013058
-9.225	-0.012921
-9.220	-0.012755
-9.215	-0.012601
-9.210	-0.012503
-9.205	-0.012338
-9.200	-0.012251
-9.195	-0.012090
-9.190	-0.011980
-9.185	-0.011871
-9.180	-0.011751
-9.175	-0.011633
-9.170	-0.011528
-9.165	-0.011396
-9.160	-0.011282
-9.155	-0.011191
-9.150	-0.011081
-9.145	-0.010986
-9.140	-0.010850
-9.135	-0.010761
-9.130	-0.010703
-9.125	-0.010586
-9.120	-0.010508
-9.115	-0.010425
-9.110	-0.010344
-9.105	-0.010230
-9.100	-0.010144
-9.095	-0.010067
-9.090	-0.009948
-9.085	-0.009885
-9.080	-0.009786
-9.075	-0.009718
-9.070	-0.009617
-9.065	-0.009542
-9.060	-0.009444
-9.055	-0.009423
-9.050	-0.009318
-9.045	-0.009234
-9.040	-0.009165
-9.035	-0.009087
-9.030	-0.008987
-9.025	-0.008957
-9.020	-0.008960
-9.015	-0.008852
-9.010	-0.008775
-9.005	-0.008696
-9.000	-0.008662
-8.995	-0.008558
-8.990	-0.008513
-8.985	-0.008472
-8.980	-0.008395
-8.975	-0.008353
-8.970	-0.008304
-8.965	-0.008195
-8.960	-0.008195
-8.955	-0.008134
-8.950	-0.008079
-8.945	-0.008024
-8.940	-0.008012
-8.935	-0.007923
-8.930	-0.007875
-8.925	-0.007841
-8.920	-0.007742
-8.915	-0.007627
-8.910	-0.007335
-8.905	-0.006948
-8.900	-0.007036
-8.895	-0.007523
-8.890	-0.007645
-8.885	-0.007476
-8.880	-0.007438
-8.875	-0.007362
-8.870	-0.007349
-8.865	-0.007294
-8.860	-0.007278
-8.855	-0.007202
-8.850	-0.007161
-8.845	-0.007147
-8.840	-0.007098
-8.835	-0.007043
-8.830	-0.007050
-8.825	-0.006974
-8.820	-0.006968
-8.815	-0.006954
-8.810	-0.006912
-8.805	-0.006872
-8.800	-0.006824
-8.795	-0.006775
-8.790	-0.006774
-8.785	-0.006711
-8.780	-0.006690
-8.775	-0.006656
-8.770	-0.006628
-8.765	-0.006564
-8.760	-0.006535
-8.755	-0.006488
-8.750	-0.006453
-8.745	-0.006426
-8.740	-0.006391
-8.735	-0.006336
-8.730	-0.006349
-8.725	-0.006279
-8.720	-0.006210
-8.715	-0.006224
-8.710	-0.006148
-8.705	-0.006113
-8.700	-0.006119
-8.695	-0.006084
-8.690	-0.006022
-8.685	-0.006001
-8.680	-0.005974
-8.675	-0.005940
-8.670	-0.005935
-8.665	-0.005908
-8.660	-0.005844
-8.655	-0.005809
-8.650	-0.005781
-8.645	-0.005761
-8.640	-0.005733
-8.635	-0.005699
-8.630	-0.005692
-8.625	-0.005653
-8.620	-0.005648
-8.615	-0.005595
-8.610	-0.005574
-8.605	-0.005547
-8.600	-0.005510
-8.595	-0.005459
-8.590	-0.005450
-8.585	-0.005436
-8.580	-0.005408
-8.575	-0.005367
-8.570	-0.005360
-8.565	-0.005339
-8.560	-0.005311
-8.555	-0.005297
-8.550	-0.005297
-8.545	-0.005235
-8.540	-0.005229
-8.535	-0.005216
-8.530	-0.005188
-8.525	-0.005159
-8.520	-0.005118
-8.515	-0.005056
-8.510	-0.005064
-8.505	-0.005029
-8.500	-0.005042
-8.495	-0.004994
-8.490	-0.004966
-8.485	-0.004966
-8.480	-0.004918
-8.475	-0.004884
-8.470	-0.004857
-8.465	-0.004864
-8.460	-0.004835
-8.455	-0.004814
-8.450	-0.004766
-8.445	-0.004774
-8.440	-0.004753
-8.435	-0.004712
-8.430	-0.004691
-8.425	-0.004677
-8.420	-0.004677
-8.415	-0.004657
-8.410	-0.004657
-8.405	-0.004610
-8.400	-0.004597
-8.395	-0.004589
-8.390	-0.004548
-8.385	-0.004527
-8.380	-0.004527
-8.375	-0.004492
-8.370	-0.004499
-8.365	-0.004457
-8.360	-0.004464
-8.355	-0.004464
-8.350	-0.004450
-8.345	-0.004416
-8.340	-0.004410
-8.335	-0.004376
-8.330	-0.004361
-8.325	-0.004354
-8.320	-0.004348
-8.315	-0.004321
-8.310	-0.004301
-8.305	-0.004273
-8.300	-0.004280
-8.295	-0.004267
-8.290	-0.004266
-8.285	-0.004224
-8.280	-0.004244
-8.275	-0.004218
-8.270	-0.004156
-8.265	-0.004177
-8.260	-0.004155
-8.255	-0.004135
-8.250	-0.004141
-8.245	-0.004093
-8.240	-0.004108
-8.235	-0.004052
-8.230	-0.004073
-8.225	-0.004052
-8.220	-0.004045
-8.215	-0.004032
-8.210	-0.003990
-8.205	-0.003992
-8.200	-0.003984
-8.195	-0.003956
-8.190	-0.003915
-8.185	-0.003922
-8.180	-0.003908
-8.175	-0.003874
-8.170	-0.003888
-8.165	-0.003861
-8.160	-0.003867
-8.155	-0.003853
-8.150	-0.003819
-8.145	-0.003805
-8.140	-0.003806
-8.135	-0.003806
-8.130	-0.003771
-8.125	-0.003743
-8.120	-0.003730
-8.115	-0.003737
-8.110	-0.003709
-8.105	-0.003723
-8.100	-0.003675
-8.095	-0.003661
-8.090	-0.003647
-8.085	-0.003647
-8.080	-0.003654
-8.075	-0.003628
-8.070	-0.003594
-8.065	-0.003587
-8.060	-0.003545
-8.055	-0.003553
-8.050	-0.003539
-8.045	-0.003532
-8.040	-0.003491
-8.035	-0.003519
-8.030	-0.003491
-8.025	-0.003464
-8.020	-0.003498
-8.015	-0.003484
-8.010	-0.003485
-8.005	-0.003458
-8.000	-0.003444
-7.995	-0.003410
-7.990	-0.003389
-7.985	-0.003410
-7.980	-0.003389
-7.975	-0.003403
-7.970	-0.003382
-7.965	-0.003369
-7.960	-0.003390
-7.955	-0.003383
-7.950	-0.003329
-7.945	-0.003315
-7.940	-0.003316
-7.935	-0.003337
-7.930	-0.003309
-7.925	-0.003281
-7.920	-0.003261
-7.915	-0.003289
-7.910	-0.003282
-7.905	-0.003254
-7.900	-0.003248
-7.895	-0.003213
-7.890	-0.003206
-7.885	-0.003289
-7.880	-0.003261
-7.875	-0.003227
-7.870	-0.003234
-7.865	-0.003193
-7.860	-0.003179
-7.855	-0.003199
-7.850	-0.003213
-7.845	-0.003192
-7.840	-0.003185
-7.835	-0.003157
-7.830	-0.003150
-7.825	-0.003136
-7.820	-0.003143
-7.815	-0.003136
-7.810	-0.003129
-7.805	-0.003157
-7.800	-0.003143
-7.795	-0.003108
-7.790	-0.003107
-7.785	-0.003107
-7.780	-0.003065
-7.775	-0.003051
-7.770	-0.003058
-7.765	-0.003051
-7.760	-0.003037
-7.755	-0.003044
-7.750	-0.003043
-7.745	-0.003036
-7.740	-0.003051
-7.735	-0.003016
-7.730	-0.003023
-7.725	-0.003002
-7.720	-0.003009
-7.715	-0.002981
-7.710	-0.002933
-7.705	-0.002988
-7.700	-0.002946
-7.695	-0.002960
-7.690	-0.002953
-7.685	-0.002960
-7.680	-0.002939
-7.675	-0.002933
-7.670	-0.002933
-7.665	-0.002926
-7.660	-0.002898
-7.655	-0.002878
-7.650	-0.002898
-7.645	-0.002905
-7.640	-0.002905
-7.635	-0.002891
-7.630	-0.002843
-7.625	-0.002850
-7.620	-0.002885
-7.615	-0.002836
-7.610	-0.002809
-7.605	-0.002837
-7.600	-0.002831
-7.595	-0.002830
-7.590	-0.002802
-7.585	-0.002803
-7.580	-0.002775
-7.575	-0.002768
-7.570	-0.002775
-7.565	-0.002768
-7.560	-0.002768
-7.555	-0.002720
-7.550	-0.002713
-7.545	-0.002740
-7.540	-0.002699
-7.535	-0.002693
-7.530	-0.002754
-7.525	-0.002672
-7.520	-0.002685
-7.515	-0.002630
-7.510	-0.002644
-7.505	-0.002617
-7.500	-0.002575
-7.495	-0.002624
-7.490	-0.002582
-7.485	-0.002562
-7.480	-0.002548
-7.475	-0.002548
-7.470	-0.002500
-7.465	-0.002514
-7.460	-0.002486
-7.455	-0.002534
-7.450	-0.002521
-7.445	-0.002534
-7.440	-0.002500
-7.435	-0.002507
-7.430	-0.002541
-7.425	-0.002534
-7.420	-0.002507
-7.415	-0.002507
-7.410	-0.002521
-7.405	-0.002501
-7.400	-0.002500
-7.395	-0.002528
-7.390	-0.002479
-7.385	-0.002473
-7.380	-0.002466
-7.375	-0.002452
-7.370	-0.002431
-7.365	-0.002459
-7.360	-0.002438
-7.355	-0.002424
-7.350	-0.002431
-7.345	-0.002397
-7.340	-0.002418
-7.335	-0.002418
-7.330	-0.002410
-7.325	-0.002410
-7.320	-0.002362
-7.315	-0.002383
-7.310	-0.002376
-7.305	-0.002369
-7.300	-0.002376
-7.295	-0.002376
-7.290	-0.002362
-7.285	-0.002362
-7.280	-0.002362
-7.275	-0.002383
-7.270	-0.002397
-7.265	-0.002376
-7.260	-0.002383
-7.255	-0.002355
-7.250	-0.002355
-7.245	-0.002383
-7.240	-0.002355
-7.235	-0.002348
-7.230	-0.002355
-7.225	-0.002341
-7.220	-0.002293
-7.215	-0.002314
-7.210	-0.002307
-7.205	-0.002301
-7.200	-0.002266
-7.195	-0.002252
-7.190	-0.002252
-7.185	-0.002252
-7.180	-0.002225
-7.175	-0.002232
-7.170	-0.002204
-7.165	-0.002197
-7.160	-0.002204
-7.155	-0.002245
-7.150	-0.002211
-7.145	-0.002204
-7.140	-0.002198
-7.135	-0.002204
-7.130	-0.002197
-7.125	-0.002184
-7.120	-0.002190
-7.115	-0.002156
-7.110	-0.002177
-7.105	-0.002184
-7.100	-0.002177
-7.095	-0.002204
-7.090	-0.002204
-7.085	-0.002177
-7.080	-0.002184
-7.075	-0.002191
-7.070	-0.002191
-7.065	-0.002143
-7.060	-0.002184
-7.055	-0.002156
-7.050	-0.002143
-7.045	-0.002156
-7.040	-0.002115
-7.035	-0.002156
-7.030	-0.002156
-7.025	-0.002150
-7.020	-0.002149
-7.015	-0.002150
-7.010	-0.002136
-7.005	-0.002102
-7.000	-0.002088
-6.995	-0.002115
-6.990	-0.002095
-6.985	-0.002054
-6.980	-0.002081
-6.975	-0.002081
-6.970	-0.002061
-6.965	-0.002081
-6.960	-0.002081
-6.955	-0.002054
-6.950	-0.002075
-6.945	-0.002061
-6.940	-0.002047
-6.935	-0.002020
-6.930	-0.002013
-6.925	-0.002040
-6.920	-0.002013
-6.915	-0.002013
-6.910	-0.002040
-6.905	-0.001992
-6.900	-0.001985
-6.895	-0.002006
-6.890	-0.001999
-6.885	-0.001999
-6.880	-0.002027
-6.875	-0.001986
-6.870	-0.002041
-6.865	-0.001986
-6.860	-0.002006
-6.855	-0.002000
-6.850	-0.002013
-6.845	-0.002020
-6.840	-0.002027
-6.835	-0.002034
-6.830	-0.002034
-6.825	-0.002048
-6.820	-0.002082
-6.815	-0.002069
-6.810	-0.002069
-6.805	-0.002076
-6.800	-0.002090
-6.795	-0.002069
-6.790	-0.002055
-6.785	-0.002083
-6.780	-0.002062
-6.775	-0.002048
-6.770	-0.002062
-6.765	-0.002042
-6.760	-0.002062
-6.755	-0.002042
-6.750	-0.002014
-6.745	-0.002028
-6.740	-0.002028
-6.735	-0.002035
-6.730	-0.001980
-6.725	-0.001980
-6.720	-0.001952
-6.715	-0.001932
-6.710	-0.001959
-6.705	-0.001918
-6.700	-0.001925
-6.695	-0.001897
-6.690	-0.001897
-6.685	-0.001897
-6.680	-0.001904
-6.675	-0.001905
-6.670	-0.001905
-6.665	-0.001863
-6.660	-0.001884
-6.655	-0.001863
-6.650	-0.001856
-6.645	-0.001863
-6.640	-0.001843
-6.635	-0.001850
-6.630	-0.001836
-6.625	-0.001815
-6.620	-0.001856
-6.615	-0.001829
-6.610	-0.001850
-6.605	-0.001836
-6.600	-0.001836
-6.595	-0.001850
-6.590	-0.001843
-6.585	-0.001808
-6.580	-0.001836
-6.575	-0.001836
-6.570	-0.001815
-6.565	-0.001843
-6.560	-0.001843
-6.555	-0.001829
-6.550	-0.001829
-6.545	-0.001850
-6.540	-0.001857
-6.535	-0.001857
-6.530	-0.001809
-6.525	-0.001829
-6.520	-0.001843
-6.515	-0.001795
-6.510	-0.001795
-6.505	-0.001795
-6.500	-0.001809
-6.495	-0.001823
-6.490	-0.001788
-6.485	-0.001816
-6.480	-0.001795
-6.475	-0.001782
-6.470	-0.001782
-6.465	-0.001802
-6.460	-0.001761
-6.455	-0.001747
-6.450	-0.001754
-6.445	-0.001788
-6.440	-0.001775
-6.435	-0.001768
-6.430	-0.001775
-6.425	-0.001754
-6.420	-0.001754
-6.415	-0.001754
-6.410	-0.001754
-6.405	-0.001761
-6.400	-0.001741
-6.395	-0.001727
-6.390	-0.001706
-6.385	-0.001741
-6.380	-0.001734
-6.375	-0.001713
-6.370	-0.001741
-6.365	-0.001713
-6.360	-0.001727
-6.355	-0.001734
-6.350	-0.001706
-6.345	-0.001706
-6.340	-0.001700
-6.335	-0.001727
-6.330	-0.001693
-6.325	-0.001700
-6.320	-0.001651
-6.315	-0.001693
-6.310	-0.001686
-6.305	-0.001686
-6.300	-0.001672
-6.295	-0.001672
-6.290	-0.001658
-6.285	-0.001652
-6.280	-0.001652
-6.275	-0.001679
-6.270	-0.001693
-6.265	-0.001631
-6.260	-0.001638
-6.255	-0.001659
-6.250	-0.001617
-6.245	-0.001686
-6.240	-0.001617
-6.235	-0.001631
-6.230	-0.001617
-6.225	-0.001638
-6.220	-0.001666
-6.215	-0.001659
-6.210	-0.001624
-6.205	-0.001597
-6.200	-0.001625
-6.195	-0.001590
-6.190	-0.001625
-6.185	-0.001583
-6.180	-0.001590
-6.175	-0.001618
-6.170	-0.001590
-6.165	-0.001583
-6.160	-0.001597
-6.155	-0.001583
-6.150	-0.001611
-6.145	-0.001611
-6.140	-0.001584
-6.135	-0.001577
-6.130	-0.001597
-6.125	-0.001563
-6.120	-0.001577
-6.115	-0.001570
-6.110	-0.001556
-6.105	-0.001577
-6.100	-0.001556
-6.095	-0.001584
-6.090	-0.001563
-6.085	-0.001577
-6.080	-0.001584
-6.075	-0.001542
-6.070	-0.001542
-6.065	-0.001515
-6.060	-0.001556
-6.055	-0.001529
-6.050	-0.001501
-6.045	-0.001508
-6.040	-0.001494
-6.035	-0.001501
-6.030	-0.001522
-6.025	-0.001494
-6.020	-0.001515
-6.015	-0.001515
-6.010	-0.001474
-6.005	-0.001488
-6.000	-0.001495
-5.995	-0.001453
-5.990	-0.001453
-5.985	-0.001460
-5.980	-0.001453
-5.975	-0.001488
-5.970	-0.001398
-5.965	-0.001412
-5.960	-0.001419
-5.955	-0.001412
-5.950	-0.001385
-5.945	-0.001378
-5.940	-0.001412
-5.935	-0.001371
-5.930	-0.001364
-5.925	-0.001350
-5.920	-0.001364
-5.915	-0.001337
-5.910	-0.001344
-5.905	-0.001330
-5.900	-0.001302
-5.895	-0.001323
-5.890	-0.001295
-5.885	-0.001323
-5.880	-0.001309
-5.875	-0.001296
-5.870	-0.001302
-5.865	-0.001261
-5.860	-0.001289
-5.855	-0.001261
-5.850	-0.001261
-5.845	-0.001248
-5.840	-0.001282
-5.835	-0.001268
-5.830	-0.001289
-5.825	-0.001275
-5.820	-0.001289
-5.815	-0.001296
-5.810	-0.001330
-5.805	-0.001337
-5.800	-0.001358
-5.795	-0.001385
-5.790	-0.001447
-5.785	-0.001461
-5.780	-0.001530
-5.775	-0.001592
-5.770	-0.001675
-5.765	-0.001723
-5.760	-0.001847
-5.755	-0.001923
-5.750	-0.002047
-5.745	-0.002150
-5.740	-0.002247
-5.735	-0.002357
-5.730	-0.002432
-5.725	-0.002487
-5.720	-0.002556
-5.715	-0.002618
-5.710	-0.002639
-5.705	-0.002659
-5.700	-0.002625
-5.695	-0.002563
-5.690	-0.002439
-5.685	-0.002350
-5.680	-0.002226
-5.675	-0.002116
-5.670	-0.001958
-5.665	-0.001827
-5.660	-0.001682
-5.655	-0.001538
-5.650	-0.001434
-5.645	-0.001331
-5.640	-0.001242
-5.635	-0.001173
-5.630	-0.001138
-5.625	-0.001118
-5.620	-0.001090
-5.615	-0.001090
-5.610	-0.001069
-5.605	-0.001097
-5.600	-0.001097
-5.595	-0.001056
-5.590	-0.001076
-5.585	-0.001083
-5.580	-0.001104
-5.575	-0.001104
-5.570	-0.001125
-5.565	-0.001090
-5.560	-0.001097
-5.555	-0.001145
-5.550	-0.001118
-5.545	-0.001145
-5.540	-0.001132
-5.535	-0.001111
-5.530	-0.001132
-5.525	-0.001139
-5.520	-0.001132
-5.515	-0.001111
-5.510	-0.001111
-5.505	-0.001118
-5.500	-0.001139
-5.495	-0.001104
-5.490	-0.001153
-5.485	-0.001153
-5.480	-0.001153
-5.475	-0.001146
-5.470	-0.001159
-5.465	-0.001132
-5.460	-0.001111
-5.455	-0.001043
-5.450	-0.000760
-5.445	-0.000291
-5.440	0.000529
-5.435	0.001640
-5.430	0.003214
-5.425	0.005478
-5.420	0.008276
-5.415	0.011851
-5.410	0.015563
-5.405	0.019843
-5.400	0.024925
-5.395	0.029893
-5.390	0.035408
-5.385	0.041824
-5.380	0.048166
-5.375	0.053569
-5.370	0.058929
-5.365	0.065005
-5.360	0.070589
-5.355	0.073705
-5.350	0.073565
-5.345	0.070878
-5.340	0.066940
-5.335	0.062694
-5.330	0.058616
-5.325	0.055073
-5.320	0.052026
-5.315	0.049549
-5.310	0.047386
-5.305	0.045493
-5.300	0.043723
-5.295	0.042129
-5.290	0.040748
-5.285	0.039406
-5.280	0.038291
-5.275	0.037274
-5.270	0.036325
-5.265	0.035519
-5.260	0.034804
-5.255	0.034134
-5.250	0.033480
-5.245	0.032889
-5.240	0.032338
-5.235	0.031675
-5.230	0.031054
-5.225	0.030447
-5.220	0.029859
-5.215	0.029339
-5.210	0.028855
-5.205	0.028401
-5.200	0.027915
-5.195	0.027480
-5.190	0.026990
-5.185	0.026568
-5.180	0.026160
-5.175	0.025730
-5.170	0.025320
-5.165	0.024940
-5.160	0.024601
-5.155	0.024245
-5.150	0.023925
-5.145	0.023635
-5.140	0.023334
-5.135	0.023010
-5.130	0.022681
-5.125	0.022483
-5.120	0.022266
-5.115	0.022099
-5.110	0.021922
-5.105	0.021722
-5.100	0.021569
-5.095	0.021344
-5.090	0.021191
-5.085	0.020997
-5.080	0.020825
-5.075	0.020627
-5.070	0.020484
-5.065	0.020329
-5.060	0.020158
-5.055	0.019993
-5.050	0.019839
-5.045	0.019684
-5.040	0.019462
-5.035	0.019229
-5.030	0.018997
-5.025	0.018784
-5.020	0.018674
-5.015	0.018532
-5.010	0.018380
-5.005	0.018279
-5.000	0.018116
-4.995	0.017942
-4.990	0.017757
-4.985	0.017584
-4.980	0.017431
-4.975	0.017297
-4.970	0.017099
-4.965	0.016966
-4.960	0.016804
-4.955	0.016625
-4.950	0.016542
-4.945	0.016429
-4.940	0.016307
-4.935	0.016170
-4.930	0.016043
-4.925	0.015899
-4.920	0.015809
-4.915	0.015705
-4.910	0.015670
-4.905	0.015704
-4.900	0.015606
-4.895	0.015543
-4.890	0.015517
-4.885	0.015519
-4.880	0.015487
-4.875	0.015440
-4.870	0.015336
-4.865	0.015198
-4.860	0.015107
-4.855	0.014980
-4.850	0.014923
-4.845	0.014841
-4.840	0.014800
-4.835	0.014754
-4.830	0.014691
-4.825	0.014549
-4.820	0.014447
-4.815	0.014377
-4.810	0.014303
-4.805	0.014238
-4.800	0.014060
-4.795	0.013801
-4.790	0.013692
-4.785	0.013602
-4.780	0.013585
-4.775	0.013560
-4.770	0.013523
-4.765	0.013468
-4.760	0.013379
-4.755	0.013242
-4.750	0.013206
-4.745	0.013131
-4.740	0.013121
-4.735	0.013160
-4.730	0.013156
-4.725	0.013094
-4.720	0.013055
-4.715	0.012955
-4.710	0.012908
-4.705	0.012860
-4.700	0.012824
-4.695	0.012790
-4.690	0.012769
-4.685	0.012713
-4.680	0.012569
-4.675	0.012527
-4.670	0.012492
-4.665	0.012441
-4.660	0.012401
-4.655	0.012334
-4.650	0.012175
-4.645	0.012005
-4.640	0.011879
-4.635	0.011696
-4.630	0.011529
-4.625	0.011467
-4.620	0.011489
-4.615	0.011498
-4.610	0.011435
-4.605	0.011387
-4.600	0.011402
-4.595	0.011440
-4.590	0.011528
-4.585	0.011619
-4.580	0.011574
-4.575	0.011485
-4.570	0.011396
-4.565	0.011351
-4.560	0.011291
-4.555	0.011278
-4.550	0.011247
-4.545	0.011189
-4.540	0.011199
-4.535	0.011138
-4.530	0.011088
-4.525	0.011007
-4.520	0.010957
-4.515	0.010896
-4.510	0.010828
-4.505	0.010795
-4.500	0.010679
-4.495	0.010562
-4.490	0.010465
-4.485	0.010506
-4.480	0.010506
-4.475	0.010484
-4.470	0.010443
-4.465	0.010428
-4.460	0.010325
-4.455	0.010245
-4.450	0.010143
-4.445	0.010145
-4.440	0.010133
-4.435	0.010115
-4.430	0.010117
-4.425	0.010086
-4.420	0.010014
-4.415	0.010004
-4.410	0.009968
-4.405	0.009953
-4.400	0.009938
-4.395	0.009892
-4.390	0.009807
-4.385	0.009805
-4.380	0.009723
-4.375	0.009653
-4.370	0.009630
-4.365	0.009684
-4.360	0.009696
-4.355	0.009704
-4.350	0.009691
-4.345	0.009606
-4.340	0.009529
-4.335	0.009483
-4.330	0.009511
-4.325	0.009511
-4.320	0.009491
-4.315	0.009499
-4.310	0.009396
-4.305	0.009315
-4.300	0.009209
-4.295	0.009123
-4.290	0.009064
-4.285	0.009007
-4.280	0.008965
-4.275	0.008926
-4.270	0.008944
-4.265	0.008914
-4.260	0.008938
-4.255	0.008942
-4.250	0.008995
-4.245	0.008994
-4.240	0.008954
-4.235	0.008934
-4.230	0.008887
-4.225	0.008812
-4.220	0.008839
-4.215	0.008744
-4.210	0.008727
-4.205	0.008727
-4.200	0.008758
-4.195	0.008763
-4.190	0.008762
-4.185	0.008688
-4.180	0.008634
-4.175	0.008602
-4.170	0.008490
-4.165	0.008401
-4.160	0.008306
-4.155	0.008113
-4.150	0.007846
-4.145	0.007396
-4.140	0.006806
-4.135	0.005938
-4.130	0.004725
-4.125	0.003121
-4.120	0.001027
-4.115	-0.001545
-4.110	-0.004680
-4.105	-0.008451
-4.100	-0.012770
-4.095	-0.017547
-4.090	-0.022861
-4.085	-0.028668
-4.080	-0.034788
-4.075	-0.041101
-4.070	-0.047350
-4.065	-0.053643
-4.060	-0.059567
-4.055	-0.064738
-4.050	-0.068597
-4.045	-0.070890
-4.040	-0.071319
-4.035	-0.069886
-4.030	-0.066769
-4.025	-0.062715
-4.020	-0.058409
-4.015	-0.054369
-4.010	-0.050784
-4.005	-0.047779
-4.000	-0.045219
-3.995	-0.042970
-3.990	-0.041096
-3.985	-0.039439
-3.980	-0.037893
-3.975	-0.036461
-3.970	-0.035242
-3.965	-0.034123
-3.960	-0.033170
-3.955	-0.032256
-3.950	-0.031404
-3.945	-0.030576
-3.940	-0.029872
-3.935	-0.029205
-3.930	-0.028621
-3.925	-0.028019
-3.920	-0.027436
-3.915	-0.026913
-3.910	-0.026381
-3.905	-0.025954
-3.900	-0.025482
-3.895	-0.025026
-3.890	-0.024610
-3.885	-0.024182
-3.880	-0.023734
-3.875	-0.023342
-3.870	-0.022924
-3.865	-0.022568
-3.860	-0.022228
-3.855	-0.021830
-3.850	-0.021507
-3.845	-0.021134
-3.840	-0.020814
-3.835	-0.020469
-3.830	-0.020124
-3.825	-0.019822
-3.820	-0.019544
-3.815	-0.019231
-3.810	-0.018914
-3.805	-0.018639
-3.800	-0.018392
-3.795	-0.018165
-3.790	-0.017909
-3.785	-0.017681
-3.780	-0.017420
-3.775	-0.017221
-3.770	-0.017008
-3.765	-0.016771
-3.760	-0.016609
-3.755	-0.016438
-3.750	-0.016176
-3.745	-0.016002
-3.740	-0.015776
-3.735	-0.015647
-3.730	-0.015497
-3.725	-0.015311
-3.720	-0.015126
-3.715	-0.014974
-3.710	-0.014821
-3.705	-0.014649
-3.700	-0.014461
-3.695	-0.014304
-3.690	-0.014152
-3.685	-0.013985
-3.680	-0.013871
-3.675	-0.013710
-3.670	-0.013573
-3.665	-0.013434
-3.660	-0.013332
-3.655	-0.013258
-3.650	-0.013119
-3.645	-0.012933
-3.640	-0.012813
-3.635	-0.012680
-3.630	-0.012417
-3.625	-0.012109
-3.620	-0.012060
-3.615	-0.012234
-3.610	-0.012399
-3.605	-0.012309
-3.600	-0.012005
-3.595	-0.011717
-3.590	-0.011511
-3.585	-0.011265
-3.580	-0.011080
-3.575	-0.010819
-3.570	-0.010530
-3.565	-0.010263
-3.560	-0.009912
-3.555	-0.009538
-3.550	-0.009164
-3.545	-0.008757
-3.540	-0.008310
-3.535	-0.007822
-3.530	-0.007307
-3.525	-0.006720
-3.520	-0.006100
-3.515	-0.005446
-3.510	-0.004814
-3.505	-0.004162
-3.500	-0.003474
-3.495	-0.002896
-3.490	-0.002270
-3.485	-0.001678
-3.480	-0.001162
-3.475	-0.000660
-3.470	-0.000275
-3.465	0.000103
-3.460	0.000398
-3.455	0.000597
-3.450	0.000728
-3.445	0.000831
-3.440	0.000838
-3.435	0.000872
-3.430	0.000892
-3.425	0.000851
-3.420	0.000864
-3.415	0.000912
-3.410	0.001002
-3.405	0.001248
-3.400	0.001593
-3.395	0.002050
-3.390	0.002582
-3.385	0.003254
-3.380	0.003970
-3.375	0.004768
-3.370	0.005727
-3.365	0.006717
-3.360	0.007819
-3.355	0.008847
-3.350	0.009883
-3.345	0.010974
-3.340	0.011859
-3.335	0.012389
-3.330	0.012488
-3.325	0.012136
-3.320	0.011620
-3.315	0.011055
-3.310	0.010511
-3.305	0.010078
-3.300	0.009823
-3.295	0.009561
-3.290	0.009394
-3.285	0.009258
-3.280	0.009161
-3.275	0.009081
-3.270	0.008981
-3.265	0.008923
-3.260	0.008930
-3.255	0.008862
-3.250	0.008861
-3.245	0.008876
-3.240	0.008951
-3.235	0.008999
-3.230	0.009033
-3.225	0.009125
-3.220	0.009234
-3.215	0.009304
-3.210	0.009341
-3.205	0.009352
-3.200	0.009383
-3.195	0.009430
-3.190	0.009496
-3.185	0.009682
-3.180	0.009824
-3.175	0.010001
-3.170	0.010165
-3.165	0.010281
-3.160	0.010349
-3.155	0.010392
-3.150	0.010476
-3.145	0.010584
-3.140	0.010651
-3.135	0.010694
-3.130	0.010781
-3.125	0.010858
-3.120	0.010962
-3.115	0.011060
-3.110	0.011102
-3.105	0.011198
-3.100	0.011284
-3.095	0.011333
-3.090	0.011428
-3.085	0.011522
-3.080	0.011603
-3.075	0.011602
-3.070	0.011649
-3.065	0.011713
-3.060	0.011816
-3.055	0.011901
-3.050	0.011984
-3.045	0.012061
-3.040	0.012110
-3.035	0.012136
-3.030	0.012148
-3.025	0.012228
-3.020	0.012394
-3.015	0.012626
-3.010	0.012690
-3.005	0.012796
-3.000	0.012848
-2.995	0.012945
-2.990	0.013007
-2.985	0.013041
-2.980	0.013084
-2.975	0.013220
-2.970	0.013323
-2.965	0.013373
-2.960	0.013387
-2.955	0.013420
-2.950	0.013451
-2.945	0.013504
-2.940	0.013570
-2.935	0.013678
-2.930	0.013763
-2.925	0.013853
-2.920	0.014103
-2.915	0.014240
-2.910	0.014359
-2.905	0.014457
-2.900	0.014520
-2.895	0.014581
-2.890	0.014659
-2.885	0.014731
-2.880	0.014790
-2.875	0.014874
-2.870	0.014965
-2.865	0.015016
-2.860	0.015158
-2.855	0.015274
-2.850	0.015404
-2.845	0.015496
-2.840	0.015524
-2.835	0.015625
-2.830	0.015622
-2.825	0.015628
-2.820	0.015605
-2.815	0.015625
-2.810	0.015668
-2.805	0.015722
-2.800	0.015760
-2.795	0.015763
-2.790	0.015758
-2.785	0.015740
-2.780	0.015714
-2.775	0.015718
-2.770	0.015745
-2.765	0.015747
-2.760	0.015800
-2.755	0.015954
-2.750	0.016068
-2.745	0.016224
-2.740	0.016245
-2.735	0.016294
-2.730	0.016311
-2.725	0.016325
-2.720	0.016389
-2.715	0.016479
-2.710	0.016578
-2.705	0.016751
-2.700	0.016874
-2.695	0.017005
-2.690	0.017073
-2.685	0.017183
-2.680	0.017288
-2.675	0.017278
-2.670	0.017316
-2.665	0.017398
-2.660	0.017523
-2.655	0.017582
-2.650	0.017704
-2.645	0.017798
-2.640	0.017903
-2.635	0.018005
-2.630	0.018126
-2.625	0.018113
-2.620	0.018077
-2.615	0.018037
-2.610	0.018022
-2.605	0.018003
-2.600	0.017979
-2.595	0.017976
-2.590	0.017978
-2.585	0.018051
-2.580	0.018013
-2.575	0.018023
-2.570	0.018053
-2.565	0.018126
-2.560	0.018159
-2.555	0.018190
-2.550	0.018247
-2.545	0.018314
-2.540	0.018436
-2.535	0.018524
-2.530	0.018608
-2.525	0.018664
-2.520	0.018711
-2.515	0.018729
-2.510	0.018761
-2.505	0.018701
-2.500	0.018721
-2.495	0.018712
-2.490	0.018733
-2.485	0.018665
-2.480	0.018714
-2.475	0.018673
-2.470	0.018676
-2.465	0.018604
-2.460	0.018620
-2.455	0.018690
-2.450	0.018767
-2.445	0.018855
-2.440	0.018920
-2.435	0.018975
-2.430	0.018980
-2.425	0.018877
-2.420	0.018942
-2.415	0.019032
-2.410	0.019115
-2.405	0.019174
-2.400	0.019245
-2.395	0.019266
-2.390	0.019312
-2.385	0.019387
-2.380	0.019465
-2.375	0.019490
-2.370	0.019534
-2.365	0.019581
-2.360	0.019668
-2.355	0.019745
-2.350	0.019725
-2.345	0.019735
-2.340	0.019733
-2.335	0.019736
-2.330	0.019740
-2.325	0.019762
-2.320	0.019778
-2.315	0.019783
-2.310	0.019758
-2.305	0.019784
-2.300	0.019789
-2.295	0.019774
-2.290	0.019707
-2.285	0.019617
-2.280	0.019525
-2.275	0.019467
-2.270	0.019423
-2.265	0.019430
-2.260	0.019424
-2.255	0.019421
-2.250	0.019633
-2.245	0.019780
-2.240	0.019805
-2.235	0.019763
-2.230	0.019704
-2.225	0.019606
-2.220	0.019590
-2.215	0.019553
-2.210	0.019574
-2.205	0.019550
-2.200	0.019576
-2.195	0.019611
-2.190	0.019650
-2.185	0.019678
-2.180	0.019727
-2.175	0.019771
-2.170	0.019728
-2.165	0.019676
-2.160	0.019638
-2.155	0.019574
-2.150	0.019515
-2.145	0.019385
-2.140	0.019237
-2.135	0.019170
-2.130	0.019157
-2.125	0.019241
-2.120	0.019338
-2.115	0.019441
-2.110	0.019584
-2.105	0.019745
-2.100	0.019877
-2.095	0.020026
-2.090	0.020104
-2.085	0.020165
-2.080	0.020216
-2.075	0.020301
-2.070	0.020373
-2.065	0.020409
-2.060	0.020379
-2.055	0.020339
-2.050	0.020289
-2.045	0.020199
-2.040	0.020115
-2.035	0.020052
-2.030	0.019891
-2.025	0.019751
-2.020	0.019606
-2.015	0.019542
-2.010	0.019494
-2.005	0.019477
-2.000	0.019419
-1.995	0.019418
-1.990	0.019393
-1.985	0.019438
-1.980	0.019545
-1.975	0.019639
-1.970	0.019647
-1.965	0.019725
-1.960	0.019808
-1.955	0.019907
-1.950	0.019928
-1.945	0.019949
-1.940	0.019978
-1.935	0.019987
-1.930	0.019946
-1.925	0.019949
-1.920	0.019874
-1.915	0.019815
-1.910	0.019805
-1.905	0.019801
-1.900	0.019780
-1.895	0.019822
-1.890	0.019814
-1.885	0.019726
-1.880	0.019606
-1.875	0.019505
-1.870	0.019407
-1.865	0.019257
-1.860	0.019158
-1.855	0.019030
-1.850	0.018923
-1.845	0.018822
-1.840	0.018780
-1.835	0.018665
-1.830	0.018641
-1.825	0.018572
-1.820	0.018482
-1.815	0.018430
-1.810	0.018444
-1.805	0.018553
-1.800	0.018622
-1.795	0.018686
-1.790	0.018800
-1.785	0.018988
-1.780	0.019092
-1.775	0.019271
-1.770	0.019387
-1.765	0.019395
-1.760	0.019393
-1.755	0.019381
-1.750	0.019250
-1.745	0.019154
-1.740	0.019082
-1.735	0.019101
-1.730	0.019192
-1.725	0.019234
-1.720	0.019187
-1.715	0.019117
-1.710	0.018992
-1.705	0.018856
-1.700	0.018732
-1.695	0.018579
-1.690	0.018450
-1.685	0.018232
-1.680	0.018160
-1.675	0.018056
-1.670	0.017953
-1.665	0.017884
-1.660	0.017834
-1.655	0.017852
-1.650	0.017858
-1.645	0.017833
-1.640	0.017807
-1.635	0.017765
-1.630	0.017753
-1.625	0.017778
-1.620	0.017819
-1.615	0.017863
-1.610	0.017904
-1.605	0.018029
-1.600	0.018111
-1.595	0.018187
-1.590	0.018226
-1.585	0.018263
-1.580	0.018311
-1.575	0.018390
-1.570	0.018373
-1.565	0.018308
-1.560	0.018259
-1.555	0.018240
-1.550	0.018214
-1.545	0.018140
-1.540	0.018131
-1.535	0.018119
-1.530	0.018073
-1.525	0.018032
-1.520	0.017922
-1.515	0.017862
-1.510	0.017753
-1.505	0.017651
-1.500	0.017549
-1.495	0.017451
-1.490	0.017340
-1.485	0.017209
-1.480	0.017025
-1.475	0.016894
-1.470	0.016768
-1.465	0.016585
-1.460	0.016461
-1.455	0.016339
-1.450	0.016181
-1.445	0.016055
-1.440	0.015941
-1.435	0.015864
-1.430	0.015759
-1.425	0.015690
-1.420	0.015686
-1.415	0.015738
-1.410	0.015732
-1.405	0.015833
-1.400	0.015910
-1.395	0.015966
-1.390	0.016054
-1.385	0.016131
-1.380	0.016082
-1.375	0.016071
-1.370	0.016084
-1.365	0.016063
-1.360	0.016051
-1.355	0.016017
-1.350	0.016015
-1.345	0.015939
-1.340	0.015902
-1.335	0.015833
-1.330	0.015789
-1.325	0.015773
-1.320	0.015766
-1.315	0.015762
-1.310	0.015775
-1.305	0.015771
-1.300	0.015717
-1.295	0.015727
-1.290	0.015658
-1.285	0.015604
-1.280	0.015597
-1.275	0.015515
-1.270	0.015384
-1.265	0.015306
-1.260	0.015199
-1.255	0.015122
-1.250	0.014990
-1.245	0.014888
-1.240	0.014737
-1.235	0.014600
-1.230	0.014513
-1.225	0.014440
-1.220	0.014328
-1.215	0.014284
-1.210	0.014260
-1.205	0.014203
-1.200	0.014157
-1.195	0.014102
-1.190	0.014068
-1.185	0.014048
-1.180	0.014059
-1.175	0.013977
-1.170	0.014059
-1.165	0.014074
-1.160	0.014122
-1.155	0.014150
-1.150	0.014216
-1.145	0.014273
-1.140	0.014288
-1.135	0.014366
-1.130	0.014385
-1.125	0.014409
-1.120	0.014368
-1.115	0.014315
-1.110	0.014234
-1.105	0.014126
-1.100	0.013981
-1.095	0.013847
-1.090	0.013744
-1.085	0.013609
-1.080	0.013470
-1.075	0.013327
-1.070	0.013200
-1.065	0.013076
-1.060	0.012974
-1.055	0.012879
-1.050	0.012810
-1.045	0.012777
-1.040	0.012769
-1.035	0.012775
-1.030	0.012789
-1.025	0.012796
-1.020	0.012775
-1.015	0.012795
-1.010	0.012818
-1.005	0.012788
-1.000	0.012826
-0.995	0.012827
-0.990	0.012828
-0.985	0.012763
-0.980	0.012784
-0.975	0.012756
-0.970	0.012688
-0.965	0.012561
-0.960	0.012519
-0.955	0.012382
-0.950	0.012309
-0.945	0.012141
-0.940	0.012036
-0.935	0.011901
-0.930	0.011785
-0.925	0.011683
-0.920	0.011586
-0.915	0.011498
-0.910	0.011422
-0.905	0.011354
-0.900	0.011308
-0.895	0.011170
-0.890	0.011157
-0.885	0.011124
-0.880	0.011081
-0.875	0.011129
-0.870	0.011098
-0.865	0.011051
-0.860	0.011052
-0.855	0.011061
-0.850	0.011054
-0.845	0.011034
-0.840	0.011025
-0.835	0.010944
-0.830	0.010910
-0.825	0.010820
-0.820	0.010785
-0.815	0.010741
-0.810	0.010687
-0.805	0.010600
-0.800	0.010555
-0.795	0.010459
-0.790	0.010404
-0.785	0.010292
-0.780	0.010196
-0.775	0.010100
-0.770	0.009990
-0.765	0.009893
-0.760	0.009805
-0.755	0.009709
-0.750	0.009587
-0.745	0.009473
-0.740	0.009394
-0.735	0.009232
-0.730	0.009148
-0.725	0.009100
-0.720	0.008989
-0.715	0.008927
-0.710	0.008864
-0.705	0.008789
-0.700	0.008706
-0.695	0.008664
-0.690	0.008629
-0.685	0.008676
-0.680	0.008651
-0.675	0.008689
-0.670	0.008698
-0.665	0.008717
-0.660	0.008703
-0.655	0.008736
-0.650	0.008721
-0.645	0.008695
-0.640	0.008728
-0.635	0.008706
-0.630	0.008692
-0.625	0.008685
-0.620	0.008623
-0.615	0.008553
-0.610	0.008531
-0.605	0.008449
-0.600	0.008372
-0.595	0.008283
-0.590	0.008195
-0.585	0.008127
-0.580	0.008052
-0.575	0.007941
-0.570	0.007790
-0.565	0.007673
-0.560	0.007581
-0.555	0.007498
-0.550	0.007396
-0.545	0.007294
-0.540	0.007196
-0.535	0.007090
-0.530	0.007020
-0.525	0.006945
-0.520	0.006849
-0.515	0.006731
-0.510	0.006643
-0.505	0.006560
-0.500	0.006477
-0.495	0.006409
-0.490	0.006327
-0.485	0.006268
-0.480	0.006222
-0.475	0.006180
-0.470	0.006107
-0.465	0.006022
-0.460	0.006000
-0.455	0.005944
-0.450	0.005908
-0.445	0.005852
-0.440	0.005838
-0.435	0.005743
-0.430	0.005704
-0.425	0.005616
-0.420	0.005507
-0.415	0.005470
-0.410	0.005414
-0.405	0.005398
-0.400	0.005348
-0.395	0.005300
-0.390	0.005307
-0.385	0.005299
-0.380	0.005244
-0.375	0.005217
-0.370	0.005182
-0.365	0.005119
-0.360	0.005106
-0.355	0.005010
-0.350	0.004964
-0.345	0.004952
-0.340	0.004923
-0.335	0.004895
-0.330	0.004806
-0.325	0.004738
-0.320	0.004704
-0.315	0.004689
-0.310	0.004640
-0.305	0.004577
-0.300	0.004535
-0.295	0.004493
-0.290	0.004457
-0.285	0.004409
-0.280	0.004310
-0.275	0.004235
-0.270	0.004166
-0.265	0.004070
-0.260	0.004014
-0.255	0.003910
-0.250	0.003800
-0.245	0.003691
-0.240	0.003587
-0.235	0.003498
-0.230	0.003368
-0.225	0.003306
-0.220	0.003229
-0.215	0.003167
-0.210	0.003098
-0.205	0.003001
-0.200	0.002870
-0.195	0.002734
-0.190	0.002679
-0.185	0.002623
-0.180	0.002622
-0.175	0.002553
-0.170	0.002497
-0.165	0.002416
-0.160	0.002279
-0.155	0.002238
-0.150	0.002230
-0.145	0.002190
-0.140	0.002094
-0.135	0.002004
-0.130	0.001982
-0.125	0.001954
-0.120	0.001830
-0.115	0.001783
-0.110	0.001721
-0.105	0.001707
-0.100	0.001829
-0.095	0.001849
-0.090	0.001836
-0.085	0.001810
-0.080	0.001962
-0.075	0.002175
-0.070	0.002394
-0.065	0.002670
-0.060	0.002809
-0.055	0.002912
-0.050	0.003021
-0.045	0.003136
-0.040	0.003196
-0.035	0.003011
-0.030	0.002592
-0.025	0.002098
-0.020	0.001582
-0.015	0.000859
-0.010	-0.000070
-0.005	-0.001185
0.000	-0.002419
0.005	-0.003452
0.010	-0.004341
0.015	-0.005096
0.020	-0.005527
0.025	-0.005574
0.030	-0.005237
0.035	-0.004403
0.040	-0.003067
0.045	-0.001440
0.050	0.000467
0.055	0.002369
0.060	0.003996
0.065	0.005294
0.070	0.006183
0.075	0.006659
0.080	0.006451
0.085	0.005560
0.090	0.004234
0.095	0.002677
0.100	0.001050
0.105	-0.000593
0.110	-0.001937
0.115	-0.002991
0.120	-0.003791
0.125	-0.004301
0.130	-0.004466
0.135	-0.004287
0.140	-0.003949
0.145	-0.003577
0.150	-0.003122
0.155	-0.002674
0.160	-0.002412
0.165	-0.002268
0.170	-0.002164
0.175	-0.002103
0.180	-0.002075
0.185	-0.002158
0.190	-0.002262
0.195	-0.002399
0.200	-0.002529
0.205	-0.002598
0.210	-0.002571
0.215	-0.002571
0.220	-0.002606
0.225	-0.002688
0.230	-0.002805
0.235	-0.002887
0.240	-0.002901
0.245	-0.002915
0.250	-0.002902
0.255	-0.002916
0.260	-0.002923
0.265	-0.002992
0.270	-0.003019
0.275	-0.003095
0.280	-0.003177
0.285	-0.003281
0.290	-0.003390
0.295	-0.003431
0.300	-0.003432
0.305	-0.003473
0.310	-0.003467
0.315	-0.003529
0.320	-0.003578
0.325	-0.003654
0.330	-0.003695
0.335	-0.003763
0.340	-0.003846
0.345	-0.003887
0.350	-0.003943
0.355	-0.004026
0.360	-0.004108
0.365	-0.004197
0.370	-0.004252
0.375	-0.004321
0.380	-0.004404
0.385	-0.004454
0.390	-0.004489
0.395	-0.004550
0.400	-0.004584
0.405	-0.004639
0.410	-0.004756
0.415	-0.004852
0.420	-0.004982
0.425	-0.005050
0.430	-0.005098
0.435	-0.005182
0.440	-0.005237
0.445	-0.005298
0.450	-0.005335
0.455	-0.005356
0.460	-0.005459
0.465	-0.005541
0.470	-0.005623
0.475	-0.005698
0.480	-0.005719
0.485	-0.005817
0.490	-0.005852
0.495	-0.005887
0.500	-0.005942
0.505	-0.005957
0.510	-0.006053
0.515	-0.006171
0.520	-0.006275
0.525	-0.006342
0.530	-0.006423
0.535	-0.006493
0.540	-0.006589
0.545	-0.006658
0.550	-0.006789
0.555	-0.006884
0.560	-0.006994
0.565	-0.007092
0.570	-0.007203
0.575	-0.007294
0.580	-0.007382
0.585	-0.007475
0.590	-0.007578
0.595	-0.007665
0.600	-0.007762
0.605	-0.007866
0.610	-0.007947
0.615	-0.008009
0.620	-0.008078
0.625	-0.008167
0.630	-0.008236
0.635	-0.008277
0.640	-0.008311
0.645	-0.008327
0.650	-0.008343
0.655	-0.008384
0.660	-0.008383
0.665	-0.008400
0.670	-0.008414
0.675	-0.008415
0.680	-0.008448
0.685	-0.008461
0.690	-0.008468
0.695	-0.008512
0.700	-0.008525
0.705	-0.008527
0.710	-0.008554
0.715	-0.008507
0.720	-0.008514
0.725	-0.008528
0.730	-0.008590
0.735	-0.008605
0.740	-0.008600
0.745	-0.008620
0.750	-0.008640
0.755	-0.008674
0.760	-0.008715
0.765	-0.008743
0.770	-0.008784
0.775	-0.008804
0.780	-0.008798
0.785	-0.008856
0.790	-0.008946
0.795	-0.009060
0.800	-0.009163
0.805	-0.009239
0.810	-0.009390
0.815	-0.009542
0.820	-0.009673
0.825	-0.009831
0.830	-0.010016
0.835	-0.010190
0.840	-0.010314
0.845	-0.010480
0.850	-0.010648
0.855	-0.010759
0.860	-0.010895
0.865	-0.011003
0.870	-0.011123
0.875	-0.011173
0.880	-0.011304
0.885	-0.011353
0.890	-0.011416
0.895	-0.011445
0.900	-0.011431
0.905	-0.011424
0.910	-0.011454
0.915	-0.011472
0.920	-0.011499
0.925	-0.011526
0.930	-0.011493
0.935	-0.011521
0.940	-0.011549
0.945	-0.011569
0.950	-0.011601
0.955	-0.011671
0.960	-0.011713
0.965	-0.011802
0.970	-0.011876
0.975	-0.011974
0.980	-0.012106
0.985	-0.012192
0.990	-0.012294
0.995	-0.012430
1.000	-0.012527
1.005	-0.012613
1.010	-0.012684
1.015	-0.012763
1.020	-0.012874
1.025	-0.012921
1.030	-0.012935
1.035	-0.012936
1.040	-0.012954
1.045	-0.012891
1.050	-0.012893
1.055	-0.012866
1.060	-0.012841
1.065	-0.012803
1.070	-0.012760
1.075	-0.012760
1.080	-0.012724
1.085	-0.012680
1.090	-0.012728
1.095	-0.012725
1.100	-0.012759
1.105	-0.012766
1.110	-0.012835
1.115	-0.012874
1.120	-0.012926
1.125	-0.013064
1.130	-0.013156
1.135	-0.013247
1.140	-0.013371
1.145	-0.013490
1.150	-0.013706
1.155	-0.013825
1.160	-0.014018
1.165	-0.014080
1.170	-0.014204
1.175	-0.014300
1.180	-0.014380
1.185	-0.014467
1.190	-0.014543
1.195	-0.014608
1.200	-0.014669
1.205	-0.014673
1.210	-0.014706
1.215	-0.014726
1.220	-0.014746
1.225	-0.014755
1.230	-0.014801
1.235	-0.014841
1.240	-0.014848
1.245	-0.014916
1.250	-0.014899
1.255	-0.014980
1.260	-0.014977
1.265	-0.015017
1.270	-0.015022
1.275	-0.014994
1.280	-0.015041
1.285	-0.015080
1.290	-0.015127
1.295	-0.015232
1.300	-0.015306
1.305	-0.015395
1.310	-0.015407
1.315	-0.015475
1.320	-0.015520
1.325	-0.015539
1.330	-0.015485
1.335	-0.015486
1.340	-0.015417
1.345	-0.015388
1.350	-0.015408
1.355	-0.015402
1.360	-0.015386
1.365	-0.015359
1.370	-0.015358
1.375	-0.015415
1.380	-0.015437
1.385	-0.015474
1.390	-0.015586
1.395	-0.015646
1.400	-0.015774
1.405	-0.015888
1.410	-0.015985
1.415	-0.016074
1.420	-0.016162
1.425	-0.016211
1.430	-0.016357
1.435	-0.016396
1.440	-0.016426
1.445	-0.016504
1.450	-0.016534
1.455	-0.016589
1.460	-0.016633
1.465	-0.016691
1.470	-0.016730
1.475	-0.016754
1.480	-0.016805
1.485	-0.016889
1.490	-0.016939
1.495	-0.016946
1.500	-0.017021
1.505	-0.017074
1.510	-0.017061
1.515	-0.017160
1.520	-0.017189
1.525	-0.017248
1.530	-0.017304
1.535	-0.017402
1.540	-0.017426
1.545	-0.017437
1.550	-0.017462
1.555	-0.017451
1.560	-0.017388
1.565	-0.017346
1.570	-0.017323
1.575	-0.017324
1.580	-0.017359
1.585	-0.017357
1.590	-0.017413
1.595	-0.017442
1.600	-0.017559
1.605	-0.017678
1.610	-0.017790
1.615	-0.017934
1.620	-0.018036
1.625	-0.018182
1.630	-0.018340
1.635	-0.018453
1.640	-0.018532
1.645	-0.018610
1.650	-0.018712
1.655	-0.018791
1.660	-0.018869
1.665	-0.018876
1.670	-0.018876
1.675	-0.018901
1.680	-0.018917
1.685	-0.018916
1.690	-0.018874
1.695	-0.018860
1.700	-0.018808
1.705	-0.018762
1.710	-0.018706
1.715	-0.018634
1.720	-0.018551
1.725	-0.018477
1.730	-0.018428
1.735	-0.018435
1.740	-0.018417
1.745	-0.018443
1.750	-0.018523
1.755	-0.018563
1.760	-0.018624
1.765	-0.018650
1.770	-0.018693
1.775	-0.018692
1.780	-0.018717
1.785	-0.018698
1.790	-0.018738
1.795	-0.018821
1.800	-0.018880
1.805	-0.018950
1.810	-0.019032
1.815	-0.019160
1.820	-0.019261
1.825	-0.019330
1.830	-0.019425
1.835	-0.019392
1.840	-0.019401
1.845	-0.019379
1.850	-0.019395
1.855	-0.019433
1.860	-0.019403
1.865	-0.019454
1.870	-0.019452
1.875	-0.019512
1.880	-0.019566
1.885	-0.019654
1.890	-0.019686
1.895	-0.019721
1.900	-0.019684
1.905	-0.019624
1.910	-0.019563
1.915	-0.019570
1.920	-0.019589
1.925	-0.019528
1.930	-0.019537
1.935	-0.019442
1.940	-0.019341
1.945	-0.019256
1.950	-0.019254
1.955	-0.019278
1.960	-0.019289
1.965	-0.019358
1.970	-0.019405
1.975	-0.019487
1.980	-0.019543
1.985	-0.019663
1.990	-0.019778
1.995	-0.019856
2.000	-0.019958
2.005	-0.020019
2.010	-0.020061
2.015	-0.020055
2.020	-0.020075
2.025	-0.020139
2.030	-0.020144
2.035	-0.020185
2.040	-0.020197
2.045	-0.020170
2.050	-0.020162
2.055	-0.020161
2.060	-0.020143
2.065	-0.020114
2.070	-0.020122
2.075	-0.020121
2.080	-0.020102
2.085	-0.020163
2.090	-0.020236
2.095	-0.020192
2.100	-0.020096
2.105	-0.019986
2.110	-0.019922
2.115	-0.019851
2.120	-0.019815
2.125	-0.019780
2.130	-0.019720
2.135	-0.019668
2.140	-0.019621
2.145	-0.019630
2.150	-0.019622
2.155	-0.019589
2.160	-0.019513
2.165	-0.019520
2.170	-0.019490
2.175	-0.019544
2.180	-0.019642
2.185	-0.019716
2.190	-0.019821
2.195	-0.019936
2.200	-0.020024
2.205	-0.020061
2.210	-0.020136
2.215	-0.020194
2.220	-0.020130
2.225	-0.020125
2.230	-0.020084
2.235	-0.020027
2.240	-0.019926
2.245	-0.019790
2.250	-0.019697
2.255	-0.019557
2.260	-0.019466
2.265	-0.019384
2.270	-0.019352
2.275	-0.019359
2.280	-0.019407
2.285	-0.019477
2.290	-0.019484
2.295	-0.019571
2.300	-0.019600
2.305	-0.019657
2.310	-0.019701
2.315	-0.019749
2.320	-0.019808
2.325	-0.019901
2.330	-0.019980
2.335	-0.020095
2.340	-0.020194
2.345	-0.020309
2.350	-0.020310
2.355	-0.020256
2.360	-0.020275
2.365	-0.020266
2.370	-0.020269
2.375	-0.020264
2.380	-0.020124
2.385	-0.019933
2.390	-0.019744
2.395	-0.019602
2.400	-0.019485
2.405	-0.019385
2.410	-0.019352
2.415	-0.019350
2.420	-0.019236
2.425	-0.019199
2.430	-0.019171
2.435	-0.019133
2.440	-0.019092
2.445	-0.019030
2.450	-0.018951
2.455	-0.018879
2.460	-0.018925
2.465	-0.019025
2.470	-0.019057
2.475	-0.019082
2.480	-0.019096
2.485	-0.019104
2.490	-0.019234
2.495	-0.019192
2.500	-0.019108
2.505	-0.019092
2.510	-0.019096
2.515	-0.019108
2.520	-0.019075
2.525	-0.018964
2.530	-0.018846
2.535	-0.018820
2.540	-0.018722
2.545	-0.018646
2.550	-0.018582
2.555	-0.018527
2.560	-0.018447
2.565	-0.018430
2.570	-0.018455
2.575	-0.018406
2.580	-0.018336
2.585	-0.018243
2.590	-0.018216
2.595	-0.018229
2.600	-0.018245
2.605	-0.018245
2.610	-0.018215
2.615	-0.018275
2.620	-0.018272
2.625	-0.018306
2.630	-0.018358
2.635	-0.018455
2.640	-0.018457
2.645	-0.018399
2.650	-0.018323
2.655	-0.018251
2.660	-0.018086
2.665	-0.017918
2.670	-0.017811
2.675	-0.017671
2.680	-0.017618
2.685	-0.017518
2.690	-0.017405
2.695	-0.017299
2.700	-0.017201
2.705	-0.017152
2.710	-0.017078
2.715	-0.016944
2.720	-0.016914
2.725	-0.016890
2.730	-0.016927
2.735	-0.016928
2.740	-0.016944
2.745	-0.016991
2.750	-0.016952
2.755	-0.016890
2.760	-0.016675
2.765	-0.016418
2.770	-0.016291
2.775	-0.016181
2.780	-0.016026
2.785	-0.015903
2.790	-0.015794
2.795	-0.015744
2.800	-0.015691
2.805	-0.015681
2.810	-0.015651
2.815	-0.015580
2.820	-0.015559
2.825	-0.015564
2.830	-0.015512
2.835	-0.015569
2.840	-0.015653
2.845	-0.015755
2.850	-0.015844
2.855	-0.015947
2.860	-0.015899
2.865	-0.015858
2.870	-0.015726
2.875	-0.015603
2.880	-0.015388
2.885	-0.015294
2.890	-0.015172
2.895	-0.015132
2.900	-0.014934
2.905	-0.014765
2.910	-0.014612
2.915	-0.014486
2.920	-0.014326
2.925	-0.014198
2.930	-0.014042
2.935	-0.014023
2.940	-0.013993
2.945	-0.013976
2.950	-0.014022
2.955	-0.014030
2.960	-0.013945
2.965	-0.013778
2.970	-0.013630
2.975	-0.013605
2.980	-0.013513
2.985	-0.013336
2.990	-0.013219
2.995	-0.013135
3.000	-0.013124
3.005	-0.013010
3.010	-0.012940
3.015	-0.012916
3.020	-0.012879
3.025	-0.012752
3.030	-0.012605
3.035	-0.012459
3.040	-0.012375
3.045	-0.012321
3.050	-0.012261
3.055	-0.012227
3.060	-0.012180
3.065	-0.012068
3.070	-0.011959
3.075	-0.011844
3.080	-0.011762
3.085	-0.011717
3.090	-0.011684
3.095	-0.011586
3.100	-0.011501
3.105	-0.011397
3.110	-0.011243
3.115	-0.011102
3.120	-0.011052
3.125	-0.010984
3.130	-0.010908
3.135	-0.010840
3.140	-0.010813
3.145	-0.010762
3.150	-0.010672
3.155	-0.010607
3.160	-0.010525
3.165	-0.010506
3.170	-0.010410
3.175	-0.010274
3.180	-0.010181
3.185	-0.010127
3.190	-0.010021
3.195	-0.009956
3.200	-0.009860
3.205	-0.009729
3.210	-0.009576
3.215	-0.009398
3.220	-0.009301
3.225	-0.009258
3.230	-0.009140
3.235	-0.009019
3.240	-0.008876
3.245	-0.008712
3.250	-0.008692
3.255	-0.008752
3.260	-0.008790
3.265	-0.008805
3.270	-0.008792
3.275	-0.008821
3.280	-0.008868
3.285	-0.008821
3.290	-0.008841
3.295	-0.008918
3.300	-0.009090
3.305	-0.009234
3.310	-0.009461
3.315	-0.009678
3.320	-0.009952
3.325	-0.010243
3.330	-0.010534
3.335	-0.010772
3.340	-0.010954
3.345	-0.010993
3.350	-0.010949
3.355	-0.010812
3.360	-0.010583
3.365	-0.010180
3.370	-0.009754
3.375	-0.009098
3.380	-0.008365
3.385	-0.007533
3.390	-0.006395
3.395	-0.005019
3.400	-0.003480
3.405	-0.002152
3.410	-0.001174
3.415	-0.000556
3.420	-0.000240
3.425	-0.000150
3.430	-0.000219
3.435	-0.000287
3.440	-0.000363
3.445	-0.000480
3.450	-0.000583
3.455	-0.000611
3.460	-0.000584
3.465	-0.000549
3.470	-0.000392
3.475	-0.000199
3.480	0.000069
3.485	0.000399
3.490	0.000763
3.495	0.001251
3.500	0.001760
3.505	0.002351
3.510	0.002962
3.515	0.003563
3.520	0.004285
3.525	0.004894
3.530	0.005615
3.535	0.006318
3.540	0.006943
3.545	0.007562
3.550	0.008161
3.555	0.008664
3.560	0.009172
3.565	0.009600
3.570	0.010012
3.575	0.010335
3.580	0.010651
3.585	0.010968
3.590	0.011222
3.595	0.011473
3.600	0.011681
3.605	0.011943
3.610	0.012107
3.615	0.012247
3.620	0.012334
3.625	0.012369
3.630	0.012531
3.635	0.012702
3.640	0.012931
3.645	0.013095
3.650	0.013242
3.655	0.013301
3.660	0.013315
3.665	0.013277
3.670	0.013378
3.675	0.013603
3.680	0.013781
3.685	0.013954
3.690	0.014125
3.695	0.014254
3.700	0.014377
3.705	0.014523
3.710	0.014629
3.715	0.014789
3.720	0.014939
3.725	0.015127
3.730	0.015281
3.735	0.015540
3.740	0.015710
3.745	0.015917
3.750	0.016067
3.755	0.016227
3.760	0.016429
3.765	0.016592
3.770	0.016789
3.775	0.017009
3.780	0.017248
3.785	0.017475
3.790	0.017707
3.795	0.017957
3.800	0.018138
3.805	0.018371
3.810	0.018665
3.815	0.018926
3.820	0.019190
3.825	0.019459
3.830	0.019731
3.835	0.020031
3.840	0.020372
3.845	0.020689
3.850	0.020998
3.855	0.021341
3.860	0.021730
3.865	0.022093
3.870	0.022492
3.875	0.022860
3.880	0.023260
3.885	0.023633
3.890	0.024021
3.895	0.024420
3.900	0.024822
3.905	0.025281
3.910	0.025718
3.915	0.026175
3.920	0.026705
3.925	0.027229
3.930	0.027812
3.935	0.028372
3.940	0.028944
3.945	0.029596
3.950	0.030290
3.955	0.031081
3.960	0.031883
3.965	0.032794
3.970	0.033727
3.975	0.034812
3.980	0.036018
3.985	0.037394
3.990	0.039026
3.995	0.040754
4.000	0.042821
4.005	0.045087
4.010	0.047625
4.015	0.050304
4.020	0.053219
4.025	0.056067
4.030	0.058773
4.035	0.061218
4.040	0.063180
4.045	0.064657
4.050	0.065612
4.055	0.065825
4.060	0.065041
4.065	0.063367
4.070	0.060812
4.075	0.057248
4.080	0.052346
4.085	0.046008
4.090	0.038297
4.095	0.030055
4.100	0.021661
4.105	0.013832
4.110	0.007083
4.115	0.001957
4.120	-0.001618
4.125	-0.003983
4.130	-0.005451
4.135	-0.006312
4.140	-0.006946
4.145	-0.007297
4.150	-0.007572
4.155	-0.007828
4.160	-0.008049
4.165	-0.008208
4.170	-0.008283
4.175	-0.008386
4.180	-0.008450
4.185	-0.008517
4.190	-0.008576
4.195	-0.008667
4.200	-0.008765
4.205	-0.008767
4.210	-0.008810
4.215	-0.008852
4.220	-0.008884
4.225	-0.008924
4.230	-0.008895
4.235	-0.008916
4.240	-0.008965
4.245	-0.009022
4.250	-0.008987
4.255	-0.008932
4.260	-0.008842
4.265	-0.008724
4.270	-0.008786
4.275	-0.008849
4.280	-0.008964
4.285	-0.008992
4.290	-0.009049
4.295	-0.009090
4.300	-0.009167
4.305	-0.009258
4.310	-0.009320
4.315	-0.009405
4.320	-0.009474
4.325	-0.009508
4.330	-0.009487
4.335	-0.009516
4.340	-0.009509
4.345	-0.009483
4.350	-0.009501
4.355	-0.009521
4.360	-0.009562
4.365	-0.009591
4.370	-0.009625
4.375	-0.009654
4.380	-0.009739
4.385	-0.009773
4.390	-0.009826
4.395	-0.009929
4.400	-0.009943
4.405	-0.009944
4.410	-0.009924
4.415	-0.009945
4.420	-0.009902
4.425	-0.009895
4.430	-0.009943
4.435	-0.010059
4.440	-0.010127
4.445	-0.010179
4.450	-0.010208
4.455	-0.010234
4.460	-0.010302
4.465	-0.010336
4.470	-0.010438
4.475	-0.010500
4.480	-0.010583
4.485	-0.010605
4.490	-0.010583
4.495	-0.010568
4.500	-0.010615
4.505	-0.010627
4.510	-0.010689
4.515	-0.010800
4.520	-0.010841
4.525	-0.010831
4.530	-0.010840
4.535	-0.010958
4.540	-0.011097
4.545	-0.011166
4.550	-0.011248
4.555	-0.011344
4.560	-0.011412
4.565	-0.011417
4.570	-0.011416
4.575	-0.011416
4.580	-0.011378
4.585	-0.011400
4.590	-0.011446
4.595	-0.011424
4.600	-0.011399
4.605	-0.011435
4.610	-0.011455
4.615	-0.011532
4.620	-0.011627
4.625	-0.011708
4.630	-0.011767
4.635	-0.011782
4.640	-0.011776
4.645	-0.011892
4.650	-0.011998
4.655	-0.012121
4.660	-0.012214
4.665	-0.012360
4.670	-0.012457
4.675	-0.012510
4.680	-0.012612
4.685	-0.012716
4.690	-0.012779
4.695	-0.012836
4.700	-0.012906
4.705	-0.012930
4.710	-0.012961
4.715	-0.012949
4.720	-0.012904
4.725	-0.012957
4.730	-0.013038
4.735	-0.013039
4.740	-0.013102
4.745	-0.013088
4.750	-0.013121
4.755	-0.013170
4.760	-0.013293
4.765	-0.013397
4.770	-0.013582
4.775	-0.013666
4.780	-0.013769
4.785	-0.013831
4.790	-0.013932
4.795	-0.014029
4.800	-0.014167
4.805	-0.014270
4.810	-0.014303
4.815	-0.014328
4.820	-0.014347
4.825	-0.014437
4.830	-0.014520
4.835	-0.014673
4.840	-0.014804
4.845	-0.014942
4.850	-0.015088
4.855	-0.015190
4.860	-0.015252
4.865	-0.015259
4.870	-0.015303
4.875	-0.015329
4.880	-0.015363
4.885	-0.015374
4.890	-0.015379
4.895	-0.015447
4.900	-0.015524
4.905	-0.015623
4.910	-0.015795
4.915	-0.015917
4.920	-0.016039
4.925	-0.016096
4.930	-0.016145
4.935	-0.016266
4.940	-0.016389
4.945	-0.016520
4.950	-0.016649
4.955	-0.016777
4.960	-0.016845
4.965	-0.017004
4.970	-0.017154
4.975	-0.017362
4.980	-0.017554
4.985	-0.017713
4.990	-0.017887
4.995	-0.018107
5.000	-0.018306
5.005	-0.018426
5.010	-0.018560
5.015	-0.018722
5.020	-0.018870
5.025	-0.019010
5.030	-0.019117
5.035	-0.019297
5.040	-0.019508
5.045	-0.019675
5.050	-0.019849
5.055	-0.020004
5.060	-0.020234
5.065	-0.020438
5.070	-0.020689
5.075	-0.020954
5.080	-0.021135
5.085	-0.021311
5.090	-0.021442
5.095	-0.021538
5.100	-0.021665
5.105	-0.021801
5.110	-0.021988
5.115	-0.022203
5.120	-0.022405
5.125	-0.022709
5.130	-0.023005
5.135	-0.023247
5.140	-0.023588
5.145	-0.023909
5.150	-0.024208
5.155	-0.024527
5.160	-0.024886
5.165	-0.025251
5.170	-0.025653
5.175	-0.026112
5.180	-0.026535
5.185	-0.026915
5.190	-0.027324
5.195	-0.027766
5.200	-0.028189
5.205	-0.028719
5.210	-0.029287
5.215	-0.029842
5.220	-0.030421
5.225	-0.031029
5.230	-0.031639
5.235	-0.032235
5.240	-0.032871
5.245	-0.033495
5.250	-0.034075
5.255	-0.034854
5.260	-0.035599
5.265	-0.036485
5.270	-0.037477
5.275	-0.038492
5.280	-0.039637
5.285	-0.040897
5.290	-0.042383
5.295	-0.044109
5.300	-0.046128
5.305	-0.048404
5.310	-0.050942
5.315	-0.053399
5.320	-0.056078
5.325	-0.058544
5.330	-0.060789
5.335	-0.062541
5.340	-0.063706
5.345	-0.064650
5.350	-0.064619
5.355	-0.063837
5.360	-0.062768
5.365	-0.060290
5.370	-0.056073
5.375	-0.051274
5.380	-0.046151
5.385	-0.039590
5.390	-0.030832
5.395	-0.021186
5.400	-0.012758
5.405	-0.006617
5.410	-0.002762
5.415	-0.000571
5.420	0.000523
5.425	0.000998
5.430	0.001217
5.435	0.001293
5.440	0.001348
5.445	0.001383
5.450	0.001383
5.455	0.001362
5.460	0.001348
5.465	0.001348
5.470	0.001348
5.475	0.001341
5.480	0.001307
5.485	0.001313
5.490	0.001313
5.495	0.001327
5.500	0.001320
5.505	0.001306
5.510	0.001300
5.515	0.001259
5.520	0.001307
5.525	0.001334
5.530	0.001334
5.535	0.001307
5.540	0.001320
5.545	0.001320
5.550	0.001313
5.555	0.001306
5.560	0.001320
5.565	0.001306
5.570	0.001271
5.575	0.001307
5.580	0.001307
5.585	0.001321
5.590	0.001327
5.595	0.001285
5.600	0.001299
5.605	0.001299
5.610	0.001347
5.615	0.001354
5.620	0.001354
5.625	0.001443
5.630	0.001457
5.635	0.001553
5.640	0.001629
5.645	0.001726
5.650	0.001905
5.655	0.001980
5.660	0.002124
5.665	0.002289
5.670	0.002393
5.675	0.002551
5.680	0.002660
5.685	0.002730
5.690	0.002813
5.695	0.002882
5.700	0.002909
5.705	0.002943
5.710	0.002876
5.715	0.002821
5.720	0.002744
5.725	0.002640
5.730	0.002536
5.735	0.002420
5.740	0.002276
5.745	0.002152
5.750	0.002070
5.755	0.001940
5.760	0.001830
5.765	0.001781
5.770	0.001692
5.775	0.001672
5.780	0.001597
5.785	0.001562
5.790	0.001547
5.795	0.001561
5.800	0.001541
5.805	0.001500
5.810	0.001534
5.815	0.001499
5.820	0.001499
5.825	0.001492
5.830	0.001533
5.835	0.001458
5.840	0.001485
5.845	0.001507
5.850	0.001513
5.855	0.001485
5.860	0.001498
5.865	0.001560
5.870	0.001525
5.875	0.001532
5.880	0.001525
5.885	0.001540
5.890	0.001567
5.895	0.001539
5.900	0.001532
5.905	0.001574
5.910	0.001609
5.915	0.001596
5.920	0.001602
5.925	0.001622
5.930	0.001595
5.935	0.001616
5.940	0.001650
5.945	0.001637
5.950	0.001650
5.955	0.001650
5.960	0.001643
5.965	0.001685
5.970	0.001657
5.975	0.001665
5.980	0.001673
5.985	0.001666
5.990	0.001685
5.995	0.001699
6.000	0.001692
6.005	0.001726
6.010	0.001699
6.015	0.001712
6.020	0.001726
6.025	0.001719
6.030	0.001726
6.035	0.001740
6.040	0.001720
6.045	0.001741
6.050	0.001741
6.055	0.001720
6.060	0.001768
6.065	0.001748
6.070	0.001755
6.075	0.001776
6.080	0.001741
6.085	0.001776
6.090	0.001741
6.095	0.001762
6.100	0.001748
6.105	0.001783
6.110	0.001742
6.115	0.001756
6.120	0.001790
6.125	0.001776
6.130	0.001789
6.135	0.001831
6.140	0.001796
6.145	0.001830
6.150	0.001830
6.155	0.001830
6.160	0.001823
6.165	0.001802
6.170	0.001822
6.175	0.001823
6.180	0.001810
6.185	0.001844
6.190	0.001836
6.195	0.001836
6.200	0.001837
6.205	0.001850
6.210	0.001843
6.215	0.001822
6.220	0.001822
6.225	0.001842
6.230	0.001843
6.235	0.001822
6.240	0.001822
6.245	0.001837
6.250	0.001850
6.255	0.001877
6.260	0.001821
6.265	0.001849
6.270	0.001828
6.275	0.001862
6.280	0.001855
6.285	0.001862
6.290	0.001862
6.295	0.001862
6.300	0.001883
6.305	0.001856
6.310	0.001905
6.315	0.001871
6.320	0.001904
6.325	0.001876
6.330	0.001911
6.335	0.001905
6.340	0.001871
6.345	0.001933
6.350	0.001893
6.355	0.001866
6.360	0.001901
6.365	0.001910
6.370	0.001897
6.375	0.001880
6.380	0.001888
6.385	0.001876
6.390	0.001883
6.395	0.001926
6.400	0.001949
6.405	0.001937
6.410	0.001926
6.415	0.001928
6.420	0.001951
6.425	0.001953
6.430	0.001968
6.435	0.001982
6.440	0.001995
6.445	0.001994
6.450	0.002005
6.455	0.001979
6.460	0.002004
6.465	0.002016
6.470	0.002006
6.475	0.002051
6.480	0.002015
6.485	0.002034
6.490	0.001992
6.495	0.001990
6.500	0.001996
6.505	0.002002
6.510	0.001975
6.515	0.001976
6.520	0.002002
6.525	0.002001
6.530	0.002028
6.535	0.002014
6.540	0.002034
6.545	0.002034
6.550	0.002075
6.555	0.002013
6.560	0.002054
6.565	0.002040
6.570	0.002081
6.575	0.002060
6.580	0.002102
6.585	0.002094
6.590	0.002113
6.595	0.002072
6.600	0.002093
6.605	0.002099
6.610	0.002099
6.615	0.002147
6.620	0.002098
6.625	0.002146
6.630	0.002132
6.635	0.002118
6.640	0.002098
6.645	0.002154
6.650	0.002146
6.655	0.002138
6.660	0.002103
6.665	0.002117
6.670	0.002144
6.675	0.002165
6.680	0.002172
6.685	0.002165
6.690	0.002143
6.695	0.002130
6.700	0.002157
6.705	0.002130
6.710	0.002138
6.715	0.002158
6.720	0.002164
6.725	0.002197
6.730	0.002191
6.735	0.002212
6.740	0.002205
6.745	0.002239
6.750	0.002225
6.755	0.002232
6.760	0.002232
6.765	0.002246
6.770	0.002266
6.775	0.002253
6.780	0.002288
6.785	0.002253
6.790	0.002286
6.795	0.002280
6.800	0.002293
6.805	0.002293
6.810	0.002273
6.815	0.002287
6.820	0.002272
6.825	0.002273
6.830	0.002286
6.835	0.002280
6.840	0.002245
6.845	0.002253
6.850	0.002267
6.855	0.002231
6.860	0.002258
6.865	0.002265
6.870	0.002272
6.875	0.002238
6.880	0.002265
6.885	0.002244
6.890	0.002264
6.895	0.002251
6.900	0.002244
6.905	0.002244
6.910	0.002272
6.915	0.002239
6.920	0.002272
6.925	0.002265
6.930	0.002257
6.935	0.002306
6.940	0.002298
6.945	0.002285
6.950	0.002299
6.955	0.002298
6.960	0.002291
6.965	0.002305
6.970	0.002292
6.975	0.002293
6.980	0.002321
6.985	0.002313
6.990	0.002306
6.995	0.002361
7.000	0.002320
7.005	0.002321
7.010	0.002389
7.015	0.002348
7.020	0.002341
7.025	0.002341
7.030	0.002376
7.035	0.002368
7.040	0.002328
7.045	0.002350
7.050	0.002377
7.055	0.002369
7.060	0.002397
7.065	0.002418
7.070	0.002418
7.075	0.002439
7.080	0.002452
7.085	0.002411
7.090	0.002453
7.095	0.002439
7.100	0.002411
7.105	0.002467
7.110	0.002427
7.115	0.002489
7.120	0.002461
7.125	0.002487
7.130	0.002467
7.135	0.002495
7.140	0.002468
7.145	0.002502
7.150	0.002488
7.155	0.002488
7.160	0.002481
7.165	0.002502
7.170	0.002523
7.175	0.002517
7.180	0.002545
7.185	0.002524
7.190	0.002543
7.195	0.002516
7.200	0.002543
7.205	0.002571
7.210	0.002544
7.215	0.002557
7.220	0.002571
7.225	0.002558
7.230	0.002564
7.235	0.002558
7.240	0.002531
7.245	0.002560
7.250	0.002559
7.255	0.002551
7.260	0.002571
7.265	0.002599
7.270	0.002586
7.275	0.002579
7.280	0.002607
7.285	0.002606
7.290	0.002627
7.295	0.002614
7.300	0.002628
7.305	0.002641
7.310	0.002650
7.315	0.002657
7.320	0.002697
7.325	0.002662
7.330	0.002683
7.335	0.002676
7.340	0.002683
7.345	0.002703
7.350	0.002676
7.355	0.002683
7.360	0.002710
7.365	0.002717
7.370	0.002683
7.375	0.002733
7.380	0.002740
7.385	0.002698
7.390	0.002752
7.395	0.002725
7.400	0.002739
7.405	0.002745
7.410	0.002766
7.415	0.002780
7.420	0.002765
7.425	0.002792
7.430	0.002793
7.435	0.002792
7.440	0.002793
7.445	0.002849
7.450	0.002855
7.455	0.002882
7.460	0.002895
7.465	0.002915
7.470	0.002943
7.475	0.002970
7.480	0.002943
7.485	0.002963
7.490	0.002962
7.495	0.002976
7.500	0.002983
7.505	0.002963
7.510	0.002999
7.515	0.003006
7.520	0.002990
7.525	0.002989
7.530	0.003030
7.535	0.002997
7.540	0.002990
7.545	0.002997
7.550	0.003003
7.555	0.002969
7.560	0.003017
7.565	0.002989
7.570	0.003010
7.575	0.003011
7.580	0.002991
7.585	0.003066
7.590	0.003058
7.595	0.003079
7.600	0.003038
7.605	0.003093
7.610	0.003065
7.615	0.003093
7.620	0.003113
7.625	0.003093
7.630	0.003106
7.635	0.003093
7.640	0.003136
7.645	0.003130
7.650	0.003136
7.655	0.003155
7.660	0.003168
7.665	0.003175
7.670	0.003189
7.675	0.003189
7.680	0.003189
7.685	0.003202
7.690	0.003209
7.695	0.003222
7.700	0.003222
7.705	0.003236
7.710	0.003231
7.715	0.003259
7.720	0.003278
7.725	0.003285
7.730	0.003291
7.735	0.003333
7.740	0.003347
7.745	0.003306
7.750	0.003319
7.755	0.003333
7.760	0.003311
7.765	0.003359
7.770	0.003332
7.775	0.003354
7.780	0.003381
7.785	0.003380
7.790	0.003386
7.795	0.003407
7.800	0.003400
7.805	0.003435
7.810	0.003442
7.815	0.003442
7.820	0.003435
7.825	0.003475
7.830	0.003496
7.835	0.003475
7.840	0.003483
7.845	0.003498
7.850	0.003490
7.855	0.003509
7.860	0.003530
7.865	0.003530
7.870	0.003516
7.875	0.003571
7.880	0.003543
7.885	0.003550
7.890	0.003605
7.895	0.003626
7.900	0.003591
7.905	0.003605
7.910	0.003621
7.915	0.003607
7.920	0.003627
7.925	0.003592
7.930	0.003656
7.935	0.003656
7.940	0.003650
7.945	0.003699
7.950	0.003699
7.955	0.003699
7.960	0.003761
7.965	0.003699
7.970	0.003725
7.975	0.003781
7.980	0.003774
7.985	0.003757
7.990	0.003769
7.995	0.003817
8.000	0.003823
8.005	0.003844
8.010	0.003816
8.015	0.003836
8.020	0.003829
8.025	0.003850
8.030	0.003857
8.035	0.003890
8.040	0.003885
8.045	0.003921
8.050	0.003919
8.055	0.003946
8.060	0.003946
8.065	0.003966
8.070	0.003987
8.075	0.004029
8.080	0.003987
8.085	0.004001
8.090	0.004028
8.095	0.004008
8.100	0.004035
8.105	0.004056
8.110	0.004051
8.115	0.004058
8.120	0.004104
8.125	0.004145
8.130	0.004124
8.135	0.004137
8.140	0.004151
8.145	0.004192
8.150	0.004178
8.155	0.004192
8.160	0.004219
8.165	0.004220
8.170	0.004254
8.175	0.004257
8.180	0.004270
8.185	0.004289
8.190	0.004336
8.195	0.004324
8.200	0.004351
8.205	0.004366
8.210	0.004352
8.215	0.004414
8.220	0.004393
8.225	0.004414
8.230	0.004429
8.235	0.004449
8.240	0.004480
8.245	0.004476
8.250	0.004476
8.255	0.004518
8.260	0.004519
8.265	0.004554
8.270	0.004561
8.275	0.004595
8.280	0.004602
8.285	0.004598
8.290	0.004600
8.295	0.004678
8.300	0.004694
8.305	0.004687
8.310	0.004707
8.315	0.004681
8.320	0.004763
8.325	0.004761
8.330	0.004808
8.335	0.004835
8.340	0.004863
8.345	0.004863
8.350	0.004877
8.355	0.004885
8.360	0.004894
8.365	0.004889
8.370	0.004942
8.375	0.004936
8.380	0.004961
8.385	0.005018
8.390	0.005004
8.395	0.005032
8.400	0.005049
8.405	0.005113
8.410	0.005132
8.415	0.005138
8.420	0.005165
8.425	0.005152
8.430	0.005200
8.435	0.005234
8.440	0.005237
8.445	0.005251
8.450	0.005265
8.455	0.005298
8.460	0.005286
8.465	0.005338
8.470	0.005363
8.475	0.005370
8.480	0.005384
8.485	0.005404
8.490	0.005444
8.495	0.005472
8.500	0.005447
8.505	0.005501
8.510	0.005468
8.515	0.005562
8.520	0.005580
8.525	0.005614
8.530	0.005627
8.535	0.005662
8.540	0.005676
8.545	0.005696
8.550	0.005711
8.555	0.005725
8.560	0.005766
8.565	0.005801
8.570	0.005780
8.575	0.005852
8.580	0.005887
8.585	0.005905
8.590	0.005959
8.595	0.005967
8.600	0.005988
8.605	0.006031
8.610	0.006045
8.615	0.006047
8.620	0.006079
8.625	0.006108
8.630	0.006141
8.635	0.006167
8.640	0.006246
8.645	0.006269
8.650	0.006310
8.655	0.006367
8.660	0.006347
8.665	0.006364
8.670	0.006426
8.675	0.006446
8.680	0.006494
8.685	0.006522
8.690	0.006556
8.695	0.006570
8.700	0.006578
8.705	0.006655
8.710	0.006678
8.715	0.006719
8.720	0.006758
8.725	0.006827
8.730	0.006821
8.735	0.006871
8.740	0.006912
8.745	0.006933
8.750	0.006982
8.755	0.007030
8.760	0.007057
8.765	0.007105
8.770	0.007141
8.775	0.007213
8.780	0.007205
8.785	0.007244
8.790	0.007292
8.795	0.007354
8.800	0.007395
8.805	0.007438
8.810	0.007450
8.815	0.007526
8.820	0.007546
8.825	0.007596
8.830	0.007644
8.835	0.007664
8.840	0.007748
8.845	0.007791
8.850	0.007817
8.855	0.007870
8.860	0.007905
8.865	0.007989
8.870	0.008037
8.875	0.008071
8.880	0.008127
8.885	0.008176
8.890	0.008223
8.895	0.008280
8.900	0.008332
8.905	0.008394
8.910	0.008447
8.915	0.008424
8.920	0.008542
8.925	0.008599
8.930	0.008732
8.935	0.008801
8.940	0.008863
8.945	0.008932
8.950	0.009001
8.955	0.009056
8.960	0.009119
8.965	0.009223
8.970	0.009255
8.975	0.009348
8.980	0.009806
8.985	0.010671
8.990	0.010511
8.995	0.009303
9.000	0.006227
9.005	0.006069
9.010	0.008637
9.015	0.009830
9.020	0.010058
9.025	0.010197
9.030	0.010288
9.035	0.010345
9.040	0.010445
9.045	0.010545
9.050	0.010646
9.055	0.010752
9.060	0.010861
9.065	0.010972
9.070	0.011054
9.075	0.011144
9.080	0.011267
9.085	0.011411
9.090	0.011509
9.095	0.011594
9.100	0.011744
9.105	0.011844
9.110	0.011997
9.115	0.012105
9.120	0.012224
9.125	0.012394
9.130	0.012523
9.135	0.012690
9.140	0.012813
9.145	0.012991
9.150	0.013127
9.155	0.013280
9.160	0.013500
9.165	0.013616
9.170	0.013815
9.175	0.013994
9.180	0.014209
9.185	0.014417
9.190	0.014614
9.195	0.014902
9.200	0.015087
9.205	0.015342
9.210	0.015575
9.215	0.015837
9.220	0.016098
9.225	0.016372
9.230	0.016622
9.235	0.016940
9.240	0.017244
9.245	0.017531
9.250	0.017841
9.255	0.018200
9.260	0.018503
9.265	0.018904
9.270	0.019246
9.275	0.019645
9.280	0.020042
9.285	0.020557
9.290	0.020985
9.295	0.021506
9.300	0.022051
9.305	0.022649
9.310	0.023333
9.315	0.024066
9.320	0.024835
9.325	0.025762
9.330	0.026769
9.335	0.027950
9.340	0.029372
9.345	0.031071
9.350	0.033079
9.355	0.035314
9.360	0.037777
9.365	0.040215
9.370	0.042348
9.375	0.044392
9.380	0.046218
9.385	0.047281
9.390	0.047870
9.395	0.048044
9.400	0.047586
9.405	0.046285
9.410	0.044181
9.415	0.041461
9.420	0.037873
9.425	0.033080
9.430	0.026789
9.435	0.019727
9.440	0.012900
9.445	0.007398
9.450	0.003438
9.455	0.000964
9.460	-0.000443
9.465	-0.001154
9.470	-0.001492
9.475	-0.001664
9.480	-0.001768
9.485	-0.001830
9.490	-0.001830
9.495	-0.001892
9.500	-0.001919
9.505	-0.001899
9.510	-0.001871
9.515	-0.001899
9.520	-0.001899
9.525	-0.001933
9.530	-0.001933
9.535	-0.001926
9.540	-0.001920
9.545	-0.001940
9.550	-0.001940
9.555	-0.001968
9.560	-0.001940
9.565	-0.001968
9.570	-0.001968
9.575	-0.001954
9.580	-0.001940
9.585	-0.001975
9.590	-0.001954
9.595	-0.001968
9.600	-0.001954
9.605	-0.001982
9.610	-0.001940
9.615	-0.001968
9.620	-0.001961
9.625	-0.001961
9.630	-0.002003
9.635	-0.001996
9.640	-0.001968
9.645	-0.002010
9.650	-0.001966
9.655	-0.002008
9.660	-0.002001
9.665	-0.001974
9.670	-0.002015
9.675	-0.001973
9.680	-0.001953
9.685	-0.001973
9.690	-0.001987
9.695	-0.002001
9.700	-0.001974
9.705	-0.001980
9.710	-0.002001
9.715	-0.001994
9.720	-0.002015
9.725	-0.001994
9.730	-0.002001
9.735	-0.002008
9.740	-0.002015
9.745	-0.002001
9.750	-0.001994
9.755	-0.001988
9.760	-0.001994
9.765	-0.002001
9.770	-0.002015
9.775	-0.002008
9.780	-0.002008
9.785	-0.002008
9.790	-0.002022
9.795	-0.002029
9.800	-0.002029
9.805	-0.002009
9.810	-0.002022
9.815	-0.002002
9.820	-0.002029
9.825	-0.002009
9.830	-0.002036
9.835	-0.002002
9.840	-0.002009
9.845	-0.001995
9.850	-0.002050
9.855	-0.002037
9.860	-0.002016
9.865	-0.002051
9.870	-0.002044
9.875	-0.002030
9.880	-0.002023
9.885	-0.001995
9.890	-0.002016
9.895	-0.002051
9.900	-0.002023
9.905	-0.002002
9.910	-0.002058
9.915	-0.002023
9.920	-0.002037
9.925	-0.002079
9.930	-0.002003
9.935	-0.002044
9.940	-0.002031
9.945	-0.001996
9.950	-0.002065
9.955	-0.002051
9.960	-0.002045
9.965	-0.002010
9.970	-0.002038
9.975	-0.002045
9.980	-0.002038
9.985	-0.002052
9.990	-0.002052
9.995	-0.002059
10.000	-0.002038
10.005	-0.002045
10.010	-0.002052
10.015	-0.002017
10.020	-0.002045
10.025	-0.002059
10.030	-0.002018
10.035	-0.002045
10.040	-0.002094
10.045	-0.002045
10.050	-0.002073
10.055	-0.002073
10.060	-0.002066
10.065	-0.002046
10.070	-0.002073
10.075	-0.002052
10.080	-0.002045
10.085	-0.002073
10.090	-0.002053
10.095	-0.002073
10.100	-0.002066
10.105	-0.002080
10.110	-0.002080
10.115	-0.002025
10.120	-0.002067
10.125	-0.002060
10.130	-0.002108
10.135	-0.002088
10.140	-0.002074
10.145	-0.002081
10.150	-0.002053
10.155	-0.002081
10.160	-0.002081
10.165	-0.002081
10.170	-0.002108
10.175	-0.002081
10.180	-0.002115
10.185	-0.002081
10.190	-0.002108
10.195	-0.002109
10.200	-0.002067
10.205	-0.002115
10.210	-0.002074
10.215	-0.002115
10.220	-0.002109
10.225	-0.002102
10.230	-0.002102
10.235	-0.002102
10.240	-0.002102
10.245	-0.002067
10.250	-0.002095
10.255	-0.002129
10.260	-0.002150
10.265	-0.002116
10.270	-0.002130
10.275	-0.002102
10.280	-0.002122
10.285	-0.002129
10.290	-0.002143
10.295	-0.002122
10.300	-0.002136
10.305	-0.002122
10.310	-0.002136
10.315	-0.002143
10.320	-0.002129
10.325	-0.002143
10.330	-0.002171
10.335	-0.002136
10.340	-0.002157
10.345	-0.002178
10.350	-0.002143
10.355	-0.002157
10.360	-0.002157
10.365	-0.002164
10.370	-0.002171
10.375	-0.002164
10.380	-0.002164
10.385	-0.002171
10.390	-0.002178
10.395	-0.002171
10.400	-0.002192
10.405	-0.002178
10.410	-0.002198
10.415	-0.002184
10.420	-0.002205
10.425	-0.002171
10.430	-0.002191
10.435	-0.002185
10.440	-0.002212
10.445	-0.002185
10.450	-0.002192
10.455	-0.002233
10.460	-0.002212
10.465	-0.002192
10.470	-0.002206
10.475	-0.002219
10.480	-0.002212
10.485	-0.002226
10.490	-0.002205
10.495	-0.002198
10.500	-0.002198
10.505	-0.002226
10.510	-0.002212
10.515	-0.002247
10.520	-0.002254
10.525	-0.002198
10.530	-0.002254
10.535	-0.002261
10.540	-0.002241
10.545	-0.002206
10.550	-0.002214
10.555	-0.002192
10.560	-0.002233
10.565	-0.002247
10.570	-0.002254
10.575	-0.002247
10.580	-0.002254
10.585	-0.002274
10.590	-0.002254
10.595	-0.002247
10.600	-0.002282
10.605	-0.002275
10.610	-0.002247
10.615	-0.002261
10.620	-0.002247
10.625	-0.002261
10.630	-0.002302
10.635	-0.002296
10.640	-0.002268
10.645	-0.002289
10.650	-0.002275
10.655	-0.002289
10.660	-0.002296
10.665	-0.002303
10.670	-0.002296
10.675	-0.002296
10.680	-0.002303
10.685	-0.002323
10.690	-0.002323
10.695	-0.002289
10.700	-0.002289
10.705	-0.002296
10.710	-0.002303
10.715	-0.002316
10.720	-0.002323
10.725	-0.002296
10.730	-0.002317
10.735	-0.002317
10.740	-0.002310
10.745	-0.002317
10.750	-0.002330
10.755	-0.002317
10.760	-0.002310
10.765	-0.002303
10.770	-0.002324
10.775	-0.002344
10.780	-0.002351
10.785	-0.002337
10.790	-0.002337
10.795	-0.002345
10.800	-0.002338
10.805	-0.002338
10.810	-0.002358
10.815	-0.002331
10.820	-0.002324
10.825	-0.002324
10.830	-0.002379
10.835	-0.002351
10.840	-0.002331
10.845	-0.002358
10.850	-0.002358
10.855	-0.002358
10.860	-0.002365
10.865	-0.002379
10.870	-0.002359
10.875	-0.002386
10.880	-0.002352
10.885	-0.002379
10.890	-0.002400
10.895	-0.002393
10.900	-0.002373
10.905	-0.002379
10.910	-0.002407
10.915	-0.002366
10.920	-0.002387
10.925	-0.002380
10.930	-0.002415
10.935	-0.002387
10.940	-0.002401
10.945	-0.002366
10.950	-0.002407
10.955	-0.002366
10.960	-0.002415
10.965	-0.002394
10.970	-0.002408
10.975	-0.002414
10.980	-0.002408
10.985	-0.002394
10.990	-0.002401
10.995	-0.002401
11.000	-0.002429
11.005	-0.002422
11.010	-0.002408
11.015	-0.002408
11.020	-0.002394
11.025	-0.002415
11.030	-0.002415
11.035	-0.002436
11.040	-0.002422
11.045	-0.002436
11.050	-0.002463
11.055	-0.002415
11.060	-0.002443
11.065	-0.002409
11.070	-0.002429
11.075	-0.002409
11.080	-0.002429
11.085	-0.002409
11.090	-0.002422
11.095	-0.002443
11.100	-0.002436
11.105	-0.002457
11.110	-0.002416
11.115	-0.002437
11.120	-0.002478
11.125	-0.002437
11.130	-0.002465
11.135	-0.002458
11.140	-0.002430
11.145	-0.002472
11.150	-0.002472
11.155	-0.002458
11.160	-0.002444
11.165	-0.002451
11.170	-0.002479
11.175	-0.002472
11.180	-0.002458
11.185	-0.002437
11.190	-0.002486
11.195	-0.002451
11.200	-0.002472
11.205	-0.002479
11.210	-0.002458
11.215	-0.002458
11.220	-0.002458
11.225	-0.002472
11.230	-0.002465
11.235	-0.002458
11.240	-0.002445
11.245	-0.002458
11.250	-0.002493
11.255	-0.002465
11.260	-0.002514
11.265	-0.002501
11.270	-0.002480
11.275	-0.002479
11.280	-0.002507
11.285	-0.002521
11.290	-0.002480
11.295	-0.002507
11.300	-0.002480
11.305	-0.002487
11.310	-0.002480
11.315	-0.002494
11.320	-0.002494
11.325	-0.002487
11.330	-0.002508
11.335	-0.002494
11.340	-0.002501
11.345	-0.002487
11.350	-0.002487
11.355	-0.002501
11.360	-0.002507
11.365	-0.002480
11.370	-0.002507
11.375	-0.002507
11.380	-0.002507
11.385	-0.002500
11.390	-0.002494
11.395	-0.002508
11.400	-0.002529
11.405	-0.002508
11.410	-0.002494
11.415	-0.002521
11.420	-0.002494
11.425	-0.002528
11.430	-0.002542
11.435	-0.002528
11.440	-0.002515
11.445	-0.002515
11.450	-0.002549
11.455	-0.002535
11.460	-0.002549
11.465	-0.002515
11.470	-0.002536
11.475	-0.002529
11.480	-0.002515
11.485	-0.002542
11.490	-0.002556
11.495	-0.002529
11.500	-0.002536
11.505	-0.002563
11.510	-0.002494
11.515	-0.002563
11.520	-0.002556
11.525	-0.002536
11.530	-0.002550
11.535	-0.002564
11.540	-0.002564
11.545	-0.002577
11.550	-0.002577
11.555	-0.002570
11.560	-0.002564
11.565	-0.002564
11.570	-0.002570
11.575	-0.002571
11.580	-0.002571
11.585	-0.002564
11.590	-0.002571
11.595	-0.002564
11.600	-0.002557
11.605	-0.002571
11.610	-0.002550
11.615	-0.002571
11.620	-0.002578
11.625	-0.002564
11.630	-0.002571
11.635	-0.002584
11.640	-0.002557
11.645	-0.002591
11.650	-0.002571
11.655	-0.002598
11.660	-0.002578
11.665	-0.002571
11.670	-0.002585
11.675	-0.002578
11.680	-0.002585
11.685	-0.002599
11.690	-0.002578
11.695	-0.002585
11.700	-0.002613
11.705	-0.002571
11.710	-0.002599
11.715	-0.002613
11.720	-0.002592
11.725	-0.002599
11.730	-0.002627
11.735	-0.002565
11.740	-0.002606
11.745	-0.002564
11.750	-0.002592
11.755	-0.002585
11.760	-0.002599
11.765	-0.002592
11.770	-0.002586
11.775	-0.002620
11.780	-0.002627
11.785	-0.002627
11.790	-0.002627
11.795	-0.002621
11.800	-0.002628
11.805	-0.002620
11.810	-0.002613
11.815	-0.002627
11.820	-0.002634
11.825	-0.002620
11.830	-0.002607
11.835	-0.002627
11.840	-0.002634
11.845	-0.002620
11.850	-0.002600
11.855	-0.002634
11.860	-0.002635
11.865	-0.002635
11.870	-0.002621
11.875	-0.002641
11.880	-0.002614
11.885	-0.002641
11.890	-0.002635
11.895	-0.002641
11.900	-0.002635
11.905	-0.002635
11.910	-0.002648
11.915	-0.002648
11.920	-0.002662
11.925	-0.002635
11.930	-0.002663
11.935	-0.002670
11.940	-0.002642
11.945	-0.002655
11.950	-0.002656
11.955	-0.002663
11.960	-0.002663
11.965	-0.002677
11.970	-0.002649
11.975	-0.002670
11.980	-0.002670
11.985	-0.002684
11.990	-0.002656
11.995	-0.002677
12.000	-0.002684
12.005	-0.002684
12.010	-0.002656
12.015	-0.002690
12.020	-0.002642
12.025	-0.002677
12.030	-0.002684
12.035	-0.002691
12.040	-0.002677
12.045	-0.002705
12.050	-0.002677
12.055	-0.002677
12.060	-0.002705
12.065	-0.002719
12.070	-0.002712
12.075	-0.002719
12.080	-0.002684
12.085	-0.002747
12.090	-0.002712
12.095	-0.002692
12.100	-0.002733
12.105	-0.002719
12.110	-0.002677
12.115	-0.002719
12.120	-0.002705
12.125	-0.002733
12.130	-0.002740
12.135	-0.002719
12.140	-0.002712
12.145	-0.002732
12.150	-0.002753
12.155	-0.002712
12.160	-0.002726
12.165	-0.002740
12.170	-0.002712
12.175	-0.002760
12.180	-0.002726
12.185	-0.002760
12.190	-0.002760
12.195	-0.002754
12.200	-0.002747
12.205	-0.002767
12.210	-0.002712
12.215	-0.002733
12.220	-0.002754
12.225	-0.002753
12.230	-0.002733
12.235	-0.002753
12.240	-0.002788
12.245	-0.002753
12.250	-0.002760
12.255	-0.002767
12.260	-0.002788
12.265	-0.002768
12.270	-0.002774
12.275	-0.002732
12.280	-0.002781
12.285	-0.002767
12.290	-0.002760
12.295	-0.002795
12.300	-0.002781
12.305	-0.002767
12.310	-0.002767
12.315	-0.002822
12.320	-0.002822
12.325	-0.002808
12.330	-0.002774
12.335	-0.002795
12.340	-0.002774
12.345	-0.002794
12.350	-0.002781
12.355	-0.002795
12.360	-0.002801
12.365	-0.002808
12.370	-0.002836
12.375	-0.002815
12.380	-0.002808
12.385	-0.002822
12.390	-0.002822
12.395	-0.002815
12.400	-0.002829
12.405	-0.002829
12.410	-0.002836
12.415	-0.002829
12.420	-0.002836
12.425	-0.002836
12.430	-0.002829
12.435	-0.002835
12.440	-0.002870
12.445	-0.002842
12.450	-0.002835
12.455	-0.002835
12.460	-0.002836
12.465	-0.002863
12.470	-0.002842
12.475	-0.002828
12.480	-0.002863
12.485	-0.002821
12.490	-0.002863
12.495	-0.002890
12.500	-0.002842
12.505	-0.002849
12.510	-0.002842
12.515	-0.002890
12.520	-0.002911
12.525	-0.002877
12.530	-0.002891
12.535	-0.002898
12.540	-0.002849
12.545	-0.002876
12.550	-0.002862
12.555	-0.002883
12.560	-0.002883
12.565	-0.002876
12.570	-0.002876
12.575	-0.002890
12.580	-0.002890
12.585	-0.002917
12.590	-0.002917
12.595	-0.002897
12.600	-0.002904
12.605	-0.002911
12.610	-0.002897
12.615	-0.002911
12.620	-0.002897
12.625	-0.002904
12.630	-0.002897
12.635	-0.002938
12.640	-0.002911
12.645	-0.002925
12.650	-0.002917
12.655	-0.002959
12.660	-0.002952
12.665	-0.002925
12.670	-0.002918
12.675	-0.002945
12.680	-0.002890
12.685	-0.002952
12.690	-0.002938
12.695	-0.002945
12.700	-0.002952
12.705	-0.002910
12.710	-0.002945
12.715	-0.002952
12.720	-0.002952
12.725	-0.002952
12.730	-0.002952
12.735	-0.002980
12.740	-0.002945
12.745	-0.002986
12.750	-0.002979
12.755	-0.002966
12.760	-0.002966
12.765	-0.002972
12.770	-0.002993
12.775	-0.002986
12.780	-0.002993
12.785	-0.002986
12.790	-0.002993
12.795	-0.003000
12.800	-0.002994
12.805	-0.002973
12.810	-0.002986
12.815	-0.002993
12.820	-0.002959
12.825	-0.002986
12.830	-0.003020
12.835	-0.003020
12.840	-0.003027
12.845	-0.002993
12.850	-0.003027
12.855	-0.003027
12.860	-0.003014
12.865	-0.003035
12.870	-0.003014
12.875	-0.003041
12.880	-0.003034
12.885	-0.003034
12.890	-0.003034
12.895	-0.003027
12.900	-0.003035
12.905	-0.003035
12.910	-0.003041
12.915	-0.003062
12.920	-0.003041
12.925	-0.003055
12.930	-0.003035
12.935	-0.003076
12.940	-0.003041
12.945	-0.003069
12.950	-0.003041
12.955	-0.003055
12.960	-0.003069
12.965	-0.003034
12.970	-0.003069
12.975	-0.003048
12.980	-0.003055
12.985	-0.003062
12.990	-0.003083
12.995	-0.003083
13.000	-0.003083
13.005	-0.003096
13.010	-0.003069
13.015	-0.003103
13.020	-0.003090
13.025	-0.003096
13.030	-0.003062
13.035	-0.003096
13.040	-0.003096
13.045	-0.003110
13.050	-0.003110
13.055	-0.003117
13.060	-0.003111
13.065	-0.003111
13.070	-0.003097
13.075	-0.003103
13.080	-0.003117
13.085	-0.003110
13.090	-0.003110
13.095	-0.003090
13.100	-0.003090
13.105	-0.003097
13.110	-0.003110
13.115	-0.003104
13.120	-0.003110
13.125	-0.003111
13.130	-0.003118
13.135	-0.003104
13.140	-0.003138
13.145	-0.003152
13.150	-0.003138
13.155	-0.003124
13.160	-0.003125
13.165	-0.003166
13.170	-0.003118
13.175	-0.003145
13.180	-0.003139
13.185	-0.003159
13.190	-0.003125
13.195	-0.003146
13.200	-0.003160
13.205	-0.003173
13.210	-0.003139
13.215	-0.003146
13.220	-0.003181
13.225	-0.003181
13.230	-0.003174
13.235	-0.003167
13.240	-0.003174
13.245	-0.003188
13.250	-0.003202
13.255	-0.003188
13.260	-0.003182
13.265	-0.003189
13.270	-0.003175
13.275	-0.003167
13.280	-0.003161
13.285	-0.003181
13.290	-0.003189
13.295	-0.003195
13.300	-0.003202
13.305	-0.003189
13.310	-0.003230
13.315	-0.003189
13.320	-0.003182
13.325	-0.003230
13.330	-0.003204
13.335	-0.003231
13.340	-0.003203
13.345	-0.003203
13.350	-0.003182
13.355	-0.003210
13.360	-0.003217
13.365	-0.003203
13.370	-0.003238
13.375	-0.003238
13.380	-0.003245
13.385	-0.003231
13.390	-0.003224
13.395	-0.003225
13.400	-0.003232
13.405	-0.003238
13.410	-0.003252
13.415	-0.003238
13.420	-0.003211
13.425	-0.003218
13.430	-0.003239
13.435	-0.003273
13.440	-0.003218
13.445	-0.003245
13.450	-0.003252
13.455	-0.003259
13.460	-0.003239
13.465	-0.003246
13.470	-0.003260
13.475	-0.003266
13.480	-0.003266
13.485	-0.003273
13.490	-0.003267
13.495	-0.003239
13.500	-0.003259
13.505	-0.003280
13.510	-0.003308
13.515	-0.003294
13.520	-0.003274
13.525	-0.003267
13.530	-0.003295
13.535	-0.003274
13.540	-0.003260
13.545	-0.003301
13.550	-0.003302
13.555	-0.003302
13.560	-0.003281
13.565	-0.003267
13.570	-0.003302
13.575	-0.003322
13.580	-0.003308
13.585	-0.003329
13.590	-0.003329
13.595	-0.003316
13.600	-0.003303
13.605	-0.003336
13.610	-0.003336
13.615	-0.003309
13.620	-0.003329
13.625	-0.003309
13.630	-0.003343
13.635	-0.003329
13.640	-0.003357
13.645	-0.003322
13.650	-0.003322
13.655	-0.003350
13.660	-0.003357
13.665	-0.003316
13.670	-0.003364
13.675	-0.003329
13.680	-0.003336
13.685	-0.003350
13.690	-0.003364
13.695	-0.003378
13.700	-0.003412
13.705	-0.003384
13.710	-0.003370
13.715	-0.003384
13.720	-0.003350
13.725	-0.003343
13.730	-0.003378
13.735	-0.003343
13.740	-0.003370
13.745	-0.003405
13.750	-0.003412
13.755	-0.003391
13.760	-0.003377
13.765	-0.003377
13.770	-0.003425
13.775	-0.003411
13.780	-0.003432
13.785	-0.003425
13.790	-0.003377
13.795	-0.003426
13.800	-0.003398
13.805	-0.003432
13.810	-0.003411
13.815	-0.003425
13.820	-0.003411
13.825	-0.003418
13.830	-0.003418
13.835	-0.003439
13.840	-0.003432
13.845	-0.003411
13.850	-0.003425
13.855	-0.003446
13.860	-0.003426
13.865	-0.003439
13.870	-0.003425
13.875	-0.003432
13.880	-0.003446
13.885	-0.003418
13.890	-0.003438
13.895	-0.003480
13.900	-0.003439
13.905	-0.003466
13.910	-0.003459
13.915	-0.003466
13.920	-0.003459
13.925	-0.003474
13.930	-0.003467
13.935	-0.003466
13.940	-0.003466
13.945	-0.003514
13.950	-0.003466
13.955	-0.003487
13.960	-0.003494
13.965	-0.003501
13.970	-0.003459
13.975	-0.003501
13.980	-0.003487
13.985	-0.003494
13.990	-0.003508
13.995	-0.003522
14.000	-0.003488
14.005	-0.003487
14.010	-0.003515
14.015	-0.003522
14.020	-0.003473
14.025	-0.003487
14.030	-0.003508
14.035	-0.003480
14.040	-0.003528
14.045	-0.003508
14.050	-0.003535
14.055	-0.003528
14.060	-0.003515
14.065	-0.003495
14.070	-0.003494
14.075	-0.003535
14.080	-0.003508
14.085	-0.003522
14.090	-0.003542
14.095	-0.003522
14.100	-0.003557
14.105	-0.003563
14.110	-0.003542
14.115	-0.003549
14.120	-0.003522
14.125	-0.003577
14.130	-0.003537
14.135	-0.003564
14.140	-0.003522
14.145	-0.003564
14.150	-0.003570
14.155	-0.003549
14.160	-0.003577
14.165	-0.003570
14.170	-0.003529
14.175	-0.003563
14.180	-0.003563
14.185	-0.003556
14.190	-0.003584
14.195	-0.003550
14.200	-0.003591
14.205	-0.003556
14.210	-0.003591
14.215	-0.003577
14.220	-0.003584
14.225	-0.003591
14.230	-0.003598
14.235	-0.003584
14.240	-0.003605
14.245	-0.003605
14.250	-0.003639
14.255	-0.003625
14.260	-0.003606
14.265	-0.003599
14.270	-0.003605
14.275	-0.003605
14.280	-0.003605
14.285	-0.003633
14.290	-0.003619
14.295	-0.003632
14.300	-0.003619
14.305	-0.003653
14.310	-0.003653
14.315	-0.003653
14.320	-0.003640
14.325	-0.003682
14.330	-0.003668
14.335	-0.003633
14.340	-0.003674
14.345	-0.003647
14.350	-0.003647
14.355	-0.003668
14.360	-0.003647
14.365	-0.003668
14.370	-0.003654
14.375	-0.003668
14.380	-0.003695
14.385	-0.003647
14.390	-0.003716
14.395	-0.003668
14.400	-0.003682
14.405	-0.003675
14.410	-0.003668
14.415	-0.003702
14.420	-0.003688
14.425	-0.003682
14.430	-0.003716
14.435	-0.003716
14.440	-0.003716
14.445	-0.003730
14.450	-0.003689
14.455	-0.003716
14.460	-0.003738
14.465	-0.003724
14.470	-0.003730
14.475	-0.003737
14.480	-0.003730
14.485	-0.003723
14.490	-0.003717
14.495	-0.003737
14.500	-0.003696
14.505	-0.003710
14.510	-0.003717
14.515	-0.003751
14.520	-0.003744
14.525	-0.003738
14.530	-0.003759
14.535	-0.003745
14.540	-0.003730
14.545	-0.003758
14.550	-0.003779
14.555	-0.003772
14.560	-0.003758
14.565	-0.003758
14.570	-0.003765
14.575	-0.003751
14.580	-0.003765
14.585	-0.003786
14.590	-0.003807
14.595	-0.003794
14.600	-0.003780
14.605	-0.003786
14.610	-0.003793
14.615	-0.003780
14.620	-0.003787
14.625	-0.003814
14.630	-0.003807
14.635	-0.003807
14.640	-0.003787
14.645	-0.003835
14.650	-0.003828
14.655	-0.003849
14.660	-0.003808
14.665	-0.003815
14.670	-0.003828
14.675	-0.003835
14.680	-0.003856
14.685	-0.003814
14.690	-0.003835
14.695	-0.003815
14.700	-0.003822
14.705	-0.003856
14.710	-0.003808
14.715	-0.003815
14.720	-0.003829
14.725	-0.003892
14.730	-0.003844
14.735	-0.003891
14.740	-0.003830
14.745	-0.003850
14.750	-0.003878
14.755	-0.003871
14.760	-0.003906
14.765	-0.003878
14.770	-0.003892
14.775	-0.003899
14.780	-0.003892
14.785	-0.003872
14.790	-0.003927
14.795	-0.003887
14.800	-0.003880
14.805	-0.003886
14.810	-0.003879
14.815	-0.003879
14.820	-0.003907
14.825	-0.003893
14.830	-0.003914
14.835	-0.003928
14.840	-0.003928
14.845	-0.003928
14.850	-0.003949
14.855	-0.003935
14.860	-0.003909
14.865	-0.003936
14.870	-0.003901
14.875	-0.003901
14.880	-0.003901
14.885	-0.003943
14.890	-0.003929
14.895	-0.003936
14.900	-0.003950
14.905	-0.003929
14.910	-0.003950
14.915	-0.003936
14.920	-0.003956
14.925	-0.003957
14.930	-0.003958
14.935	-0.003936
14.940	-0.003950
14.945	-0.003956
14.950	-0.003942
14.955	-0.003970
14.960	-0.003963
14.965	-0.003977
14.970	-0.003998
14.975	-0.003949
14.980	-0.003983
14.985	-0.004004
14.990	-0.004025
14.995	-0.003984
15.000	-0.003984
15.005	-0.003949
15.010	-0.003983
15.015	-0.003970
15.020	-0.003990
15.025	-0.004018
15.030	-0.003998
15.035	-0.004032
15.040	-0.003990
15.045	-0.004018
15.050	-0.004025
15.055	-0.004018
15.060	-0.004012
15.065	-0.004026
15.070	-0.004032
15.075	-0.004018
15.080	-0.004032
15.085	-0.004011
15.090	-0.004025
15.095	-0.004045
15.100	-0.004059
15.105	-0.004066
15.110	-0.004032
15.115	-0.004045
15.120	-0.004066
15.125	-0.004046
15.130	-0.004060
15.135	-0.004066
15.140	-0.004066
15.145	-0.004073
15.150	-0.004080
15.155	-0.004060
15.160	-0.004032
15.165	-0.004122
15.170	-0.004081
15.175	-0.004081
15.180	-0.004074
15.185	-0.004108
15.190	-0.004081
15.195	-0.004096
15.200	-0.004102
15.205	-0.004129
15.210	-0.004123
15.215	-0.004109
15.220	-0.004095
15.225	-0.004102
15.230	-0.004130
15.235	-0.004081
15.240	-0.004123
15.245	-0.004150
15.250	-0.004137
15.255	-0.004137
15.260	-0.004152
15.265	-0.004145
15.270	-0.004165
15.275	-0.004165
15.280	-0.004193
15.285	-0.004152
15.290	-0.004165
15.295	-0.004152
15.300	-0.004145
15.305	-0.004173
15.310	-0.004152
15.315	-0.004173
15.320	-0.004193
15.325	-0.004174
15.330	-0.004174
15.335	-0.004180
15.340	-0.004166
15.345	-0.004194
15.350	-0.004173
15.355	-0.004208
15.360	-0.004201
15.365	-0.004195
15.370	-0.004222
15.375	-0.004215
15.380	-0.004250
15.385	-0.004209
15.390	-0.004216
15.395	-0.004286
15.400	-0.004237
15.405	-0.004215
15.410	-0.004209
15.415	-0.004271
15.420	-0.004237
15.425	-0.004244
15.430	-0.004244
15.435	-0.004230
15.440	-0.004258
15.445	-0.004258
15.450	-0.004251
15.455	-0.004238
15.460	-0.004252
15.465	-0.004259
15.470	-0.004258
15.475	-0.004244
15.480	-0.004272
15.485	-0.004251
15.490	-0.004279
15.495	-0.004264
15.500	-0.004285
15.505	-0.004313
15.510	-0.004265
15.515	-0.004299
15.520	-0.004300
15.525	-0.004280
15.530	-0.004300
15.535	-0.004321
15.540	-0.004306
15.545	-0.004286
15.550	-0.004327
15.555	-0.004286
15.560	-0.004300
15.565	-0.004314
15.570	-0.004328
15.575	-0.004334
15.580	-0.004307
15.585	-0.004341
15.590	-0.004328
15.595	-0.004376
15.600	-0.004314
15.605	-0.004341
15.610	-0.004348
15.615	-0.004355
15.620	-0.004368
15.625	-0.004362
15.630	-0.004355
15.635	-0.004375
15.640	-0.004341
15.645	-0.004361
15.650	-0.004368
15.655	-0.004382
15.660	-0.004390
15.665	-0.004403
15.670	-0.004375
15.675	-0.004347
15.680	-0.004389
15.685	-0.004382
15.690	-0.004375
15.695	-0.004396
15.700	-0.004437
15.705	-0.004416
15.710	-0.004395
15.715	-0.004409
15.720	-0.004395
15.725	-0.004424
15.730	-0.004431
15.735	-0.004437
15.740	-0.004416
15.745	-0.004423
15.750	-0.004409
15.755	-0.004388
15.760	-0.004409
15.765	-0.004423
15.770	-0.004416
15.775	-0.004423
15.780	-0.004444
15.785	-0.004457
15.790	-0.004472
15.795	-0.004444
15.800	-0.004444
15.805	-0.004415
15.810	-0.004450
15.815	-0.004484
15.820	-0.004430
15.825	-0.004478
15.830	-0.004465
15.835	-0.004478
15.840	-0.004492
15.845	-0.004526
15.850	-0.004491
15.855	-0.004485
15.860	-0.004479
15.865	-0.004465
15.870	-0.004492
15.875	-0.004471
15.880	-0.004498
15.885	-0.004484
15.890	-0.004512
15.895	-0.004539
15.900	-0.004512
15.905	-0.004519
15.910	-0.004505
15.915	-0.004526
15.920	-0.004526
15.925	-0.004548
15.930	-0.004527
15.935	-0.004547
15.940	-0.004574
15.945	-0.004560
15.950	-0.004554
15.955	-0.004554
15.960	-0.004534
15.965	-0.004554
15.970	-0.004588
15.975	-0.004567
15.980	-0.004596
15.985	-0.004568
15.990	-0.004589
15.995	-0.004583
16.000	-0.004561
16.005	-0.004582
16.010	-0.004575
16.015	-0.004582
16.020	-0.004589
16.025	-0.004596
16.030	-0.004610
16.035	-0.004596
16.040	-0.004609
16.045	-0.004609
16.050	-0.004630
16.055	-0.004617
16.060	-0.004625
16.065	-0.004624
16.070	-0.004603
16.075	-0.004623
16.080	-0.004638
16.085	-0.004638
16.090	-0.004618
16.095	-0.004632
16.100	-0.004659
16.105	-0.004673
16.110	-0.004652
16.115	-0.004645
16.120	-0.004687
16.125	-0.004640
16.130	-0.004681
16.135	-0.004680
16.140	-0.004680
16.145	-0.004673
16.150	-0.004673
16.155	-0.004652
16.160	-0.004687
16.165	-0.004666
16.170	-0.004708
16.175	-0.004693
16.180	-0.004673
16.185	-0.004735
16.190	-0.004722
16.195	-0.004722
16.200	-0.004749
16.205	-0.004714
16.210	-0.004701
16.215	-0.004715
16.220	-0.004701
16.225	-0.004735
16.230	-0.004736
16.235	-0.004770
16.240	-0.004736
16.245	-0.004742
16.250	-0.004729
16.255	-0.004743
16.260	-0.004758
16.265	-0.004751
16.270	-0.004784
16.275	-0.004777
16.280	-0.004771
16.285	-0.004764
16.290	-0.004792
16.295	-0.004799
16.300	-0.004785
16.305	-0.004778
16.310	-0.004820
16.315	-0.004827
16.320	-0.004800
16.325	-0.004807
16.330	-0.004807
16.335	-0.004834
16.340	-0.004841
16.345	-0.004806
16.350	-0.004834
16.355	-0.004827
16.360	-0.004856
16.365	-0.004848
16.370	-0.004862
16.375	-0.004883
16.380	-0.004862
16.385	-0.004835
16.390	-0.004864
16.395	-0.004899
16.400	-0.004870
16.405	-0.004835
16.410	-0.004877
16.415	-0.004877
16.420	-0.004870
16.425	-0.004877
16.430	-0.004870
16.435	-0.004883
16.440	-0.004897
16.445	-0.004890
16.450	-0.004883
16.455	-0.004898
16.460	-0.004906
16.465	-0.004870
16.470	-0.004911
16.475	-0.004897
16.480	-0.004939
16.485	-0.004911
16.490	-0.004905
16.495	-0.004918
16.500	-0.004925
16.505	-0.004918
16.510	-0.004946
16.515	-0.004959
16.520	-0.004953
16.525	-0.004940
16.530	-0.004974
16.535	-0.004925
16.540	-0.004952
16.545	-0.004959
16.550	-0.004965
16.555	-0.004966
16.560	-0.005000
16.565	-0.004965
16.570	-0.004993
16.575	-0.004972
16.580	-0.004959
16.585	-0.004986
16.590	-0.005001
16.595	-0.005008
16.600	-0.005008
16.605	-0.004993
16.610	-0.005035
16.615	-0.004979
16.620	-0.005008
16.625	-0.005001
16.630	-0.005015
16.635	-0.005049
16.640	-0.005022
16.645	-0.005029
16.650	-0.005049
16.655	-0.005050
16.660	-0.005045
16.665	-0.005072
16.670	-0.005070
16.675	-0.005050
16.680	-0.005071
16.685	-0.005043
16.690	-0.005078
16.695	-0.005085
16.700	-0.005051
16.705	-0.005085
16.710	-0.005099
16.715	-0.005085
16.720	-0.005113
16.725	-0.005107
16.730	-0.005135
16.735	-0.005127
16.740	-0.005134
16.745	-0.005135
16.750	-0.005108
16.755	-0.005129
16.760	-0.005129
16.765	-0.005129
16.770	-0.005136
16.775	-0.005172
16.780	-0.005158
16.785	-0.005158
16.790	-0.005173
16.795	-0.005159
16.800	-0.005173
16.805	-0.005200
16.810	-0.005152
16.815	-0.005166
16.820	-0.005194
16.825	-0.005188
16.830	-0.005187
16.835	-0.005208
16.840	-0.005188
16.845	-0.005208
16.850	-0.005257
16.855	-0.005238
16.860	-0.005218
16.865	-0.005218
16.870	-0.005238
16.875	-0.005253
16.880	-0.005246
16.885	-0.005240
16.890	-0.005261
16.895	-0.005227
16.900	-0.005269
16.905	-0.005262
16.910	-0.005276
16.915	-0.005290
16.920	-0.005276
16.925	-0.005284
16.930	-0.005298
16.935	-0.005317
16.940	-0.005276
16.945	-0.005269
16.950	-0.005318
16.955	-0.005318
16.960	-0.005311
16.965	-0.005359
16.970	-0.005324
16.975	-0.005317
16.980	-0.005323
16.985	-0.005323
16.990	-0.005352
16.995	-0.005359
17.000	-0.005393
17.005	-0.005379
17.010	-0.005324
17.015	-0.005365
17.020	-0.005379
17.025	-0.005364
17.030	-0.005392
17.035	-0.005378
17.040	-0.005378
17.045	-0.005392
17.050	-0.005426
17.055	-0.005419
17.060	-0.005420
17.065	-0.005426
17.070	-0.005424
17.075	-0.005452
17.080	-0.005418
17.085	-0.005411
17.090	-0.005438
17.095	-0.005438
17.100	-0.005445
17.105	-0.005438
17.110	-0.005452
17.115	-0.005466
17.120	-0.005474
17.125	-0.005454
17.130	-0.005487
17.135	-0.005479
17.140	-0.005472
17.145	-0.005507
17.150	-0.005500
17.155	-0.005459
17.160	-0.005487
17.165	-0.005486
17.170	-0.005508
17.175	-0.005493
17.180	-0.005507
17.185	-0.005513
17.190	-0.005508
17.195	-0.005542
17.200	-0.005534
17.205	-0.005520
17.210	-0.005486
17.215	-0.005534
17.220	-0.005555
17.225	-0.005541
17.230	-0.005568
17.235	-0.005589
17.240	-0.005555
17.245	-0.005576
17.250	-0.005576
17.255	-0.005563
17.260	-0.005585
17.265	-0.005612
17.270	-0.005576
17.275	-0.005597
17.280	-0.005590
17.285	-0.005604
17.290	-0.005590
17.295	-0.005618
17.300	-0.005639
17.305	-0.005618
17.310	-0.005646
17.315	-0.005638
17.320	-0.005612
17.325	-0.005648
17.330	-0.005654
17.335	-0.005680
17.340	-0.005646
17.345	-0.005646
17.350	-0.005654
17.355	-0.005674
17.360	-0.005681
17.365	-0.005688
17.370	-0.005688
17.375	-0.005688
17.380	-0.005709
17.385	-0.005716
17.390	-0.005717
17.395	-0.005703
17.400	-0.005688
17.405	-0.005703
17.410	-0.005716
17.415	-0.005702
17.420	-0.005730
17.425	-0.005744
17.430	-0.005737
17.435	-0.005722
17.440	-0.005757
17.445	-0.005770
17.450	-0.005750
17.455	-0.005758
17.460	-0.005759
17.465	-0.005786
17.470	-0.005784
17.475	-0.005804
17.480	-0.005770
17.485	-0.005798
17.490	-0.005804
17.495	-0.005804
17.500	-0.005811
17.505	-0.005811
17.510	-0.005825
17.515	-0.005825
17.520	-0.005812
17.525	-0.005848
17.530	-0.005832
17.535	-0.005852
17.540	-0.005846
17.545	-0.005860
17.550	-0.005832
17.555	-0.005867
17.560	-0.005875
17.565	-0.005895
17.570	-0.005888
17.575	-0.005867
17.580	-0.005909
17.585	-0.005889
17.590	-0.005925
17.595	-0.005924
17.600	-0.005910
17.605	-0.005909
17.610	-0.005923
17.615	-0.005902
17.620	-0.005930
17.625	-0.005929
17.630	-0.005922
17.635	-0.005949
17.640	-0.005943
17.645	-0.005984
17.650	-0.005984
17.655	-0.005993
17.660	-0.005986
17.665	-0.005957
17.670	-0.006005
17.675	-0.005991
17.680	-0.005998
17.685	-0.005998
17.690	-0.006053
17.695	-0.006052
17.700	-0.006066
17.705	-0.006045
17.710	-0.006067
17.715	-0.006059
17.720	-0.006040
17.725	-0.006061
17.730	-0.006060
17.735	-0.006099
17.740	-0.006100
17.745	-0.006100
17.750	-0.006106
17.755	-0.006106
17.760	-0.006120
17.765	-0.006105
17.770	-0.006119
17.775	-0.006125
17.780	-0.006119
17.785	-0.006125
17.790	-0.006148
17.795	-0.006126
17.800	-0.006152
17.805	-0.006151
17.810	-0.006159
17.815	-0.006173
17.820	-0.006179
17.825	-0.006165
17.830	-0.006186
17.835	-0.006192
17.840	-0.006178
17.845	-0.006170
17.850	-0.006219
17.855	-0.006185
17.860	-0.006220
17.865	-0.006232
17.870	-0.006225
17.875	-0.006244
17.880	-0.006258
17.885	-0.006244
17.890	-0.006243
17.895	-0.006244
17.900	-0.006264
17.905	-0.006264
17.910	-0.006297
17.915	-0.006257
17.920	-0.006292
17.925	-0.006279
17.930	-0.006306
17.935	-0.006290
17.940	-0.006333
17.945	-0.006312
17.950	-0.006333
17.955	-0.006333
17.960	-0.006347
17.965	-0.006354
17.970	-0.006361
17.975	-0.006375
17.980	-0.006368
17.985	-0.006375
17.990	-0.006392
17.995	-0.006392
18.000	-0.006396
18.005	-0.006396
18.010	-0.006369
18.015	-0.006431
18.020	-0.006389
18.025	-0.006417
18.030	-0.006424
18.035	-0.006458
18.040	-0.006425
18.045	-0.006474
18.050	-0.006459
18.055	-0.006434
18.060	-0.006454
18.065	-0.006475
18.070	-0.006488
18.075	-0.006461
18.080	-0.006475
18.085	-0.006489
18.090	-0.006503
18.095	-0.006509
18.100	-0.006489
18.105	-0.006517
18.110	-0.006530
18.115	-0.006557
18.120	-0.006538
18.125	-0.006539
18.130	-0.006579
18.135	-0.006557
18.140	-0.006551
18.145	-0.006551
18.150	-0.006570
18.155	-0.006598
18.160	-0.006605
18.165	-0.006598
18.170	-0.006557
18.175	-0.006586
18.180	-0.006593
18.185	-0.006607
18.190	-0.006622
18.195	-0.006615
18.200	-0.006635
18.205	-0.006642
18.210	-0.006642
18.215	-0.006656
18.220	-0.006657
18.225	-0.006650
18.230	-0.006698
18.235	-0.006677
18.240	-0.006691
18.245	-0.006698
18.250	-0.006699
18.255	-0.006722
18.260	-0.006742
18.265	-0.006713
18.270	-0.006719
18.275	-0.006719
18.280	-0.006762
18.285	-0.006783
18.290	-0.006755
18.295	-0.006760
18.300	-0.006774
18.305	-0.006809
18.310	-0.006795
18.315	-0.006781
18.320	-0.006811
18.325	-0.006839
18.330	-0.006825
18.335	-0.006823
18.340	-0.006844
18.345	-0.006846
18.350	-0.006844
18.355	-0.006837
18.360	-0.006844
18.365	-0.006865
18.370	-0.006900
18.375	-0.006892
18.380	-0.006893
18.385	-0.006935
18.390	-0.006936
18.395	-0.006929
18.400	-0.006914
18.405	-0.006921
18.410	-0.006921
18.415	-0.006942
18.420	-0.006943
18.425	-0.006935
18.430	-0.006977
18.435	-0.006970
18.440	-0.006998
18.445	-0.006991
18.450	-0.007054
18.455	-0.006994
18.460	-0.007008
18.465	-0.007021
18.470	-0.007041
18.475	-0.007049
18.480	-0.007057
18.485	-0.007043
18.490	-0.007070
18.495	-0.007043
18.500	-0.007051
18.505	-0.007100
18.510	-0.007073
18.515	-0.007100
18.520	-0.007102
18.525	-0.007124
18.530	-0.007103
18.535	-0.007129
18.540	-0.007089
18.545	-0.007123
18.550	-0.007179
18.555	-0.007137
18.560	-0.007165
18.565	-0.007166
18.570	-0.007180
18.575	-0.007152
18.580	-0.007214
18.585	-0.007181
18.590	-0.007203
18.595	-0.007209
18.600	-0.007201
18.605	-0.007243
18.610	-0.007243
18.615	-0.007216
18.620	-0.007243
18.625	-0.007243
18.630	-0.007257
18.635	-0.007312
18.640	-0.007292
18.645	-0.007305
18.650	-0.007313
18.655	-0.007330
18.660	-0.007317
18.665	-0.007322
18.670	-0.007287
18.675	-0.007376
18.680	-0.007369
18.685	-0.007341
18.690	-0.007378
18.695	-0.007384
18.700	-0.007398
18.705	-0.007405
18.710	-0.007426
18.715	-0.007412
18.720	-0.007422
18.725	-0.007423
18.730	-0.007469
18.735	-0.007433
18.740	-0.007440
18.745	-0.007481
18.750	-0.007469
18.755	-0.007448
18.760	-0.007497
18.765	-0.007511
18.770	-0.007510
18.775	-0.007517
18.780	-0.007531
18.785	-0.007538
18.790	-0.007513
18.795	-0.007560
18.800	-0.007580
18.805	-0.007559
18.810	-0.007580
18.815	-0.007574
18.820	-0.007603
18.825	-0.007609
18.830	-0.007638
18.835	-0.007650
18.840	-0.007624
18.845	-0.007680
18.850	-0.007645
18.855	-0.007647
18.860	-0.007674
18.865	-0.007680
18.870	-0.007709
18.875	-0.007683
18.880	-0.007685
18.885	-0.007720
18.890	-0.007741
18.895	-0.007748
18.900	-0.007714
18.905	-0.007737
18.910	-0.007731
18.915	-0.007759
18.920	-0.007761
18.925	-0.007763
18.930	-0.007810
18.935	-0.007809
18.940	-0.007836
18.945	-0.007820
18.950	-0.007812
18.955	-0.007847
18.960	-0.007842
18.965	-0.007814
18.970	-0.007863
18.975	-0.007877
18.980	-0.007885
18.985	-0.007871
18.990	-0.007897
18.995	-0.007909
19.000	-0.007892
19.005	-0.007939
19.010	-0.007939
19.015	-0.007957
19.020	-0.007922
19.025	-0.007965
19.030	-0.007973
19.035	-0.007993
19.040	-0.008013
19.045	-0.008026
19.050	-0.008004
19.055	-0.008014
19.060	-0.008035
19.065	-0.008019
19.070	-0.008101
19.075	-0.008080
19.080	-0.008100
19.085	-0.008100
19.090	-0.008114
19.095	-0.008120
19.100	-0.008114
19.105	-0.008134
19.110	-0.008182
19.115	-0.008147
19.120	-0.008191
19.125	-0.008226
19.130	-0.008211
19.135	-0.008204
19.140	-0.008233
19.145	-0.008219
19.150	-0.008253
19.155	-0.008276
19.160	-0.008276
19.165	-0.008289
19.170	-0.008295
19.175	-0.008328
19.180	-0.008273
19.185	-0.008324
19.190	-0.008327
19.195	-0.008368
19.200	-0.008345
19.205	-0.008374
19.210	-0.008389
19.215	-0.008403
19.220	-0.008427
19.225	-0.008421
19.230	-0.008470
19.235	-0.008492
19.240	-0.008480
19.245	-0.008508
19.250	-0.008517
19.255	-0.008514
19.260	-0.008522
19.265	-0.008528
19.270	-0.008555
19.275	-0.008562
19.280	-0.008568
19.285	-0.008569
19.290	-0.008610
19.295	-0.008616
19.300	-0.008588
19.305	-0.008607
19.310	-0.008615
19.315	-0.008636
19.320	-0.008639
19.325	-0.008659
19.330	-0.008671
19.335	-0.008681
19.340	-0.008688
19.345	-0.008695
19.350	-0.008708
19.355	-0.008734
19.360	-0.008755
19.365	-0.008767
19.370	-0.008801
19.375	-0.008790
19.380	-0.008803
19.385	-0.008805
19.390	-0.008807
19.395	-0.008805
19.400	-0.008858
19.405	-0.008830
19.410	-0.008844
19.415	-0.008873
19.420	-0.008895
19.425	-0.008909
19.430	-0.008937
19.435	-0.008935
19.440	-0.008969
19.445	-0.008969
19.450	-0.008969
19.455	-0.008971
19.460	-0.008999
19.465	-0.008997
19.470	-0.009018
19.475	-0.009039
19.480	-0.009054
19.485	-0.009101
19.490	-0.009100
19.495	-0.009129
19.500	-0.009130
19.505	-0.009136
19.510	-0.009143
19.515	-0.009123
19.520	-0.009169
19.525	-0.009218
19.530	-0.009190
19.535	-0.009203
19.540	-0.009246
19.545	-0.009219
19.550	-0.009268
19.555	-0.009276
19.560	-0.009318
19.565	-0.009304
19.570	-0.009325
19.575	-0.009312
19.580	-0.009352
19.585	-0.009340
19.590	-0.009337
19.595	-0.009372
19.600	-0.009426
19.605	-0.009413
19.610	-0.009421
19.615	-0.009399
19.620	-0.009462
19.625	-0.009481
19.630	-0.009497
19.635	-0.009518
19.640	-0.009539
19.645	-0.009516
19.650	-0.009490
19.655	-0.009534
19.660	-0.009588
19.665	-0.009613
19.670	-0.009581
19.675	-0.009586
19.680	-0.009624
19.685	-0.009617
19.690	-0.009596
19.695	-0.009679
19.700	-0.009671
19.705	-0.009685
19.710	-0.009729
19.715	-0.009745
19.720	-0.009769
19.725	-0.009782
19.730	-0.009767
19.735	-0.009815
19.740	-0.009824
19.745	-0.009837
19.750	-0.009880
19.755	-0.009898
19.760	-0.009905
19.765	-0.009926
19.770	-0.009943
19.775	-0.009985
19.780	-0.009998
19.785	-0.010062
19.790	-0.010035
19.795	-0.010042
19.800	-0.010050
19.805	-0.010074
19.810	-0.010111
19.815	-0.010089
19.820	-0.010152
19.825	-0.010152
19.830	-0.010209
19.835	-0.010217
19.840	-0.010245
19.845	-0.010245
19.850	-0.010260
19.855	-0.010270
19.860	-0.010297
19.865	-0.010343
19.870	-0.010330
19.875	-0.010357
19.880	-0.010369
19.885	-0.010409
19.890	-0.010450
19.895	-0.010454
19.900	-0.010445
19.905	-0.010491
19.910	-0.010483
19.915	-0.010537
19.920	-0.010546
19.925	-0.010572
19.930	-0.010617
19.935	-0.010641
19.940	-0.010612
19.945	-0.010667
19.950	-0.010679
19.955	-0.010679
19.960	-0.010721
19.965	-0.010734
19.970	-0.010720
19.975	-0.010787
19.980	-0.010816
19.985	-0.010797
19.990	-0.010846
19.995	-0.010905
20.000	-0.010882
20.005	-0.010895
20.010	-0.010908
20.015	-0.010963
20.020	-0.010977
20.025	-0.011006
20.030	-0.011047
20.035	-0.011068
20.040	-0.011083
20.045	-0.011111
20.050	-0.011148
20.055	-0.011165
20.060	-0.011178
20.065	-0.011205
20.070	-0.011232
20.075	-0.011247
20.080	-0.011284
20.085	-0.011342
20.090	-0.011323
20.095	-0.011384
20.100	-0.011426
20.105	-0.011419
20.110	-0.011447
20.115	-0.011445
20.120	-0.011462
20.125	-0.011498
20.130	-0.011525
20.135	-0.011544
20.140	-0.011559
20.145	-0.011596
20.150	-0.011623
20.155	-0.011685
20.160	-0.011691
20.165	-0.011714
20.170	-0.011716
20.175	-0.011752
20.180	-0.011774
20.185	-0.011807
20.190	-0.011831
20.195	-0.011857
20.200	-0.011919
20.205	-0.011915
20.210	-0.011968
20.215	-0.011976
20.220	-0.012005
20.225	-0.012027
20.230	-0.012065
20.235	-0.012082
20.240	-0.012147
20.245	-0.012148
20.250	-0.012200
20.255	-0.012218
20.260	-0.012243
20.265	-0.012255
20.270	-0.012273
20.275	-0.012305
20.280	-0.012347
20.285	-0.012365
20.290	-0.012399
20.295	-0.012426
20.300	-0.012489
20.305	-0.012497
20.310	-0.012545
20.315	-0.012601
20.320	-0.012615
20.325	-0.012630
20.330	-0.012690
20.335	-0.012725
20.340	-0.012756
20.345	-0.012796
20.350	-0.012825
20.355	-0.012845
20.360	-0.012869
20.365	-0.012941
20.370	-0.012982
20.375	-0.012976
20.380	-0.013044
20.385	-0.013052
20.390	-0.013098
20.395	-0.013148
20.400	-0.013149
20.405	-0.013196
20.410	-0.013241
20.415	-0.013276
20.420	-0.013296
20.425	-0.013363
20.430	-0.013375
20.435	-0.013429
20.440	-0.013464
20.445	-0.013510
20.450	-0.013561
20.455	-0.013583
20.460	-0.013676
20.465	-0.013661
20.470	-0.013722
20.475	-0.013805
20.480	-0.013878
20.485	-0.013900
20.490	-0.013939
20.495	-0.013973
20.500	-0.014023
20.505	-0.014118
20.510	-0.014145
20.515	-0.014166
20.520	-0.014189
20.525	-0.014203
20.530	-0.014274
20.535	-0.014284
20.540	-0.014357
20.545	-0.014378
20.550	-0.014412
20.555	-0.014512
20.560	-0.014554
20.565	-0.014568
20.570	-0.014613
20.575	-0.014669
20.580	-0.014695
20.585	-0.014739
20.590	-0.014794
20.595	-0.014800
20.600	-0.014853
20.605	-0.014901
20.610	-0.014943
20.615	-0.015020
20.620	-0.015069
20.625	-0.015151
20.630	-0.015200
20.635	-0.015258
20.640	-0.015325
20.645	-0.015426
20.650	-0.015475
20.655	-0.015531
20.660	-0.015560
20.665	-0.015615
20.670	-0.015707
20.675	-0.015746
20.680	-0.015815
20.685	-0.015878
20.690	-0.015945
20.695	-0.016022
20.700	-0.016035
20.705	-0.016122
20.710	-0.016219
20.715	-0.016275
20.720	-0.016349
20.725	-0.016416
20.730	-0.016444
20.735	-0.016499
20.740	-0.016547
20.745	-0.016613
20.750	-0.016710
20.755	-0.016735
20.760	-0.016842
20.765	-0.016870
20.770	-0.017030
20.775	-0.017099
20.780	-0.017213
20.785	-0.017339
20.790	-0.017400
20.795	-0.017526
20.800	-0.017559
20.805	-0.017693
20.810	-0.017728
20.815	-0.017837
20.820	-0.017949
20.825	-0.018058
20.830	-0.018138
20.835	-0.018254
20.840	-0.018295
20.845	-0.018414
20.850	-0.018515
20.855	-0.018641
20.860	-0.018691
20.865	-0.018776
20.870	-0.018859
20.875	-0.018973
20.880	-0.019091
20.885	-0.019246
20.890	-0.019343
20.895	-0.019473
20.900	-0.019592
20.905	-0.019662
20.910	-0.019750
20.915	-0.019823
20.920	-0.019922
20.925	-0.020013
20.930	-0.020058
20.935	-0.020223
20.940	-0.020322
20.945	-0.020437
20.950	-0.020565
20.955	-0.020727
20.960	-0.020852
20.965	-0.020967
20.970	-0.021096
20.975	-0.021211
20.980	-0.021340
20.985	-0.021454
20.990	-0.021575
20.995	-0.021696
21.000	-0.021884
21.005	-0.022088
21.010	-0.022228
21.015	-0.022347
21.020	-0.022510
21.025	-0.022722
21.030	-0.022907
21.035	-0.023085
21.040	-0.023277
21.045	-0.023503
21.050	-0.023726
21.055	-0.023944
21.060	-0.024126
21.065	-0.024281
21.070	-0.024433
21.075	-0.024734
21.080	-0.025002
21.085	-0.025214
21.090	-0.025434
21.095	-0.025655
21.100	-0.025921
21.105	-0.026187
21.110	-0.026510
21.115	-0.026781
21.120	-0.027030
21.125	-0.027303
21.130	-0.027709
21.135	-0.028112
21.140	-0.028444
21.145	-0.028845
21.150	-0.029088
21.155	-0.029242
21.160	-0.029624
21.165	-0.029861
21.170	-0.030051
21.175	-0.030726
21.180	-0.031253
21.185	-0.031718
21.190	-0.032298
21.195	-0.032825
21.200	-0.033358
21.205	-0.033972
21.210	-0.034598
21.215	-0.035001
21.220	-0.035630
21.225	-0.036595
21.230	-0.037486
21.235	-0.038471
21.240	-0.039482
21.245	-0.039729
21.250	-0.040488
21.255	-0.042346
21.260	-0.042911
21.265	-0.043737
21.270	-0.044816
21.275	-0.046077
21.280	-0.047193
21.285	-0.047859
21.290	-0.047978
21.295	-0.047932
21.300	-0.047707
21.305	-0.046867
21.310	-0.045496
21.315	-0.043494
21.320	-0.040827
21.325	-0.037528
21.330	-0.033748
21.335	-0.029718
21.340	-0.025928
21.345	-0.021877
21.350	-0.017475
21.355	-0.012861
21.360	-0.008669
21.365	-0.005380
21.370	-0.003166
21.375	-0.001744
21.380	-0.000912
21.385	-0.000504
21.390	-0.000314
21.395	-0.000213
21.400	-0.000166
21.405	-0.000098
21.410	-0.000064
21.415	-0.000044
21.420	-0.000037
21.425	-0.000044
21.430	-0.000030
21.435	-0.000017
21.440	-0.000037
21.445	-0.000024
21.450	-0.000003
21.455	0.000004
21.460	-0.000010
21.465	0.000003
21.470	-0.000010
21.475	0.000010
21.480	0.000010
21.485	0.000017
21.490	0.000024
21.495	0.000023
21.500	-0.000010
21.505	0.000016
21.510	0.000030
21.515	0.000017
21.520	0.000038
21.525	0.000024
21.530	-0.000011
21.535	0.000023
21.540	0.000030
21.545	-0.000004
21.550	0.000023
21.555	0.000023
21.560	0.000003
21.565	0.000003
21.570	0.000016
21.575	0.000009
21.580	0.000050
21.585	0.000024
21.590	-0.000003
21.595	0.000010
21.600	0.000023
21.605	0.000030
21.610	0.000023
21.615	0.000016
21.620	0.000050
21.625	0.000030
21.630	0.000023
21.635	0.000077
21.640	0.000009
21.645	0.000036
21.650	0.000023
21.655	0.000023
21.660	0.000016
21.665	0.000029
21.670	0.000029
21.675	0.000050
21.680	0.000057
21.685	0.000029
21.690	-0.000004
21.695	0.000029
21.700	0.000043
21.705	0.000029
21.710	0.000056
21.715	0.000043
21.720	0.000050
21.725	0.000050
21.730	0.000036
21.735	0.000043
21.740	0.000056
21.745	0.000029
21.750	0.000036
21.755	0.000063
21.760	0.000036
21.765	0.000063
21.770	0.000056
21.775	0.000015
21.780	0.000036
21.785	0.000057
21.790	0.000063
21.795	0.000029
21.800	0.000015
21.805	0.000049
21.810	0.000076
21.815	0.000036
21.820	0.000042
21.825	0.000056
21.830	0.000063
21.835	0.000022
21.840	0.000035
21.845	0.000049
21.850	0.000029
21.855	0.000022
21.860	0.000049
21.865	0.000035
21.870	0.000049
21.875	0.000049
21.880	0.000049
21.885	0.000049
21.890	0.000055
21.895	0.000055
21.900	0.000042
21.905	0.000035
21.910	0.000048
21.915	0.000076
21.920	0.000036
21.925	0.000028
21.930	0.000035
21.935	0.000014
21.940	0.000035
21.945	0.000062
21.950	0.000042
21.955	0.000035
21.960	0.000041
21.965	0.000028
21.970	0.000048
21.975	0.000034
21.980	0.000028
21.985	0.000069
21.990	0.000028
21.995	0.000028
22.000	0.000055
22.005	0.000041
22.010	0.000041
22.015	0.000041
22.020	0.000061
22.025	0.000028
22.030	0.000068
22.035	0.000061
22.040	0.000027
22.045	0.000021
22.050	0.000055
22.055	0.000041
22.060	0.000048
22.065	0.000034
22.070	0.000075
22.075	0.000061
22.080	0.000061
22.085	0.000055
22.090	0.000054
22.095	0.000034
22.100	0.000061
22.105	0.000041
22.110	0.000020
22.115	0.000041
22.120	0.000028
22.125	0.000028
22.130	0.000041
22.135	0.000034
22.140	0.000041
22.145	0.000020
22.150	0.000061
22.155	0.000040
22.160	0.000054
22.165	0.000027
22.170	0.000054
22.175	0.000074
22.180	0.000040
22.185	0.000041
22.190	0.000027
22.195	0.000013
22.200	0.000026
22.205	0.000054
22.210	0.000081
22.215	0.000067
22.220	0.000040
22.225	0.000040
22.230	0.000067
22.235	0.000047
22.240	0.000033
22.245	0.000047
22.250	0.000074
22.255	0.000054
22.260	0.000040
22.265	0.000040
22.270	0.000053
22.275	0.000040
22.280	0.000060
22.285	0.000060
22.290	0.000074
22.295	0.000019
22.300	0.000067
22.305	0.000046
22.310	0.000046
22.315	0.000053
22.320	0.000040
22.325	0.000047
22.330	0.000039
22.335	0.000066
22.340	0.000053
22.345	0.000074
22.350	0.000040
22.355	0.000046
22.360	0.000053
22.365	0.000053
22.370	0.000019
22.375	0.000053
22.380	0.000046
22.385	0.000026
22.390	0.000040
22.395	0.000060
22.400	0.000039
22.405	0.000039
22.410	0.000066
22.415	0.000053
22.420	0.000059
22.425	0.000025
22.430	0.000025
22.435	0.000066
22.440	0.000025
22.445	0.000032
22.450	0.000060
22.455	0.000046
22.460	0.000039
22.465	0.000039
22.470	0.000052
22.475	0.000059
22.480	0.000080
22.485	0.000025
22.490	0.000066
22.495	0.000025
22.500	0.000018
22.505	0.000052
22.510	0.000045
22.515	0.000045
22.520	0.000046
22.525	0.000025
22.530	0.000025
22.535	0.000059
22.540	0.000032
22.545	0.000059
22.550	0.000072
22.555	0.000031
22.560	0.000045
22.565	0.000045
22.570	0.000031
22.575	0.000058
22.580	0.000032
22.585	0.000059
22.590	0.000052
22.595	0.000038
22.600	0.000058
22.605	0.000058
22.610	0.000045
22.615	0.000031
22.620	0.000045
22.625	0.000058
22.630	-0.000003
22.635	0.000031
22.640	0.000038
22.645	0.000038
22.650	0.000032
22.655	0.000038
22.660	0.000079
22.665	0.000044
22.670	0.000085
22.675	0.000044
22.680	0.000051
22.685	0.000017
22.690	0.000038
22.695	0.000030
22.700	0.000051
22.705	0.000031
22.710	0.000031
22.715	0.000017
22.720	0.000038
22.725	0.000031
22.730	0.000030
22.735	0.000017
22.740	0.000051
22.745	0.000010
22.750	0.000058
22.755	0.000037
22.760	0.000058
22.765	0.000010
22.770	0.000051
22.775	0.000044
22.780	0.000037
22.785	0.000031
22.790	0.000024
22.795	0.000037
22.800	0.000010
22.805	0.000057
22.810	0.000030
22.815	0.000030
22.820	0.000044
22.825	0.000044
22.830	0.000030
22.835	0.000023
22.840	0.000050
22.845	0.000037
22.850	0.000024
22.855	0.000051
22.860	0.000043
22.865	0.000057
22.870	0.000037
22.875	0.000016
22.880	0.000057
22.885	0.000030
22.890	0.000043
22.895	0.000009
22.900	0.000016
22.905	0.000030
22.910	0.000050
22.915	0.000023
22.920	0.000057
22.925	0.000010
22.930	0.000029
22.935	0.000036
22.940	0.000016
22.945	0.000036
22.950	0.000002
22.955	0.000022
22.960	0.000029
22.965	0.000042
22.970	0.000009
22.975	0.000009
22.980	0.000009
22.985	0.000030
22.990	0.000023
22.995	0.000036
23.000	0.000029
23.005	0.000022
23.010	0.000063
23.015	0.000015
23.020	0.000029
23.025	0.000022
23.030	-0.000012
23.035	0.000009
23.040	0.000042
23.045	0.000015
23.050	0.000009
23.055	0.000009
23.060	0.000029
23.065	-0.000019
23.070	0.000008
23.075	0.000035
23.080	0.000022
23.085	0.000015
23.090	-0.000005
23.095	0.000035
23.100	0.000028
23.105	0.000022
23.110	0.000001
23.115	0.000029
23.120	0.000015
23.125	0.000029
23.130	0.000028
23.135	0.000028
23.140	0.000035
23.145	0.000015
23.150	0.000001
23.155	0.000028
23.160	0.000015
23.165	0.000015
23.170	0.000035
23.175	0.000008
23.180	-0.000012
23.185	0.000029
23.190	-0.000005
23.195	0.000028
23.200	-0.000020
23.205	0.000014
23.210	0.000035
23.215	0.000035
23.220	0.000014
23.225	-0.000013
23.230	-0.000006
23.235	0.000028
23.240	-0.000006
23.245	0.000035
23.250	0.000021
23.255	0.000021
23.260	-0.000013
23.265	0.000000
23.270	0.000021
23.275	0.000014
23.280	0.000001
23.285	0.000028
23.290	0.000014
23.295	-0.000013
23.300	0.000021
23.305	0.000014
23.310	-0.000006
23.315	-0.000013
23.320	0.000028
23.325	0.000000
23.330	0.000000
23.335	0.000007
23.340	0.000007
23.345	-0.000027
23.350	0.000041
23.355	0.000014
23.360	0.000007
23.365	0.000020
23.370	-0.000007
23.375	0.000020
23.380	-0.000007
23.385	0.000035
23.390	0.000021
23.395	0.000027
23.400	-0.000007
23.405	-0.000000
23.410	-0.000014
23.415	0.000007
23.420	0.000007
23.425	0.000020
23.430	0.000013
23.435	0.000013
23.440	0.000006
23.445	0.000006
23.450	-0.000007
23.455	0.000007
23.460	-0.000007
23.465	0.000006
23.470	-0.000001
23.475	-0.000014
23.480	0.000020
23.485	0.000006
23.490	0.000006
23.495	-0.000028
23.500	-0.000007
23.505	0.000026
23.510	-0.000014
23.515	-0.000000
23.520	-0.000000
23.525	0.000006
23.530	-0.000042
23.535	-0.000008
23.540	0.000054
23.545	0.000033
23.550	-0.000008
23.555	-0.000008
23.560	0.000033
23.565	0.000026
23.570	0.000006
23.575	-0.000008
23.580	-0.000001
23.585	0.000006
23.590	0.000013
23.595	0.000013
23.600	0.000033
23.605	-0.000001
23.610	0.000012
23.615	-0.000022
23.620	0.000006
23.625	0.000033
23.630	0.000026
23.635	0.000019
23.640	0.000005
23.645	-0.000015
23.650	0.000013
23.655	-0.000014
23.660	0.000006
23.665	-0.000002
23.670	-0.000015
23.675	0.000012
23.680	0.000005
23.685	0.000026
23.690	0.000005
23.695	0.000026
23.700	0.000012
23.705	0.000019
23.710	0.000012
23.715	0.000006
23.720	0.000006
23.725	-0.000001
23.730	0.000005
23.735	-0.000008
23.740	0.000012
23.745	0.000026
23.750	0.000012
23.755	0.000012
23.760	-0.000002
23.765	0.000012
23.770	-0.000022
23.775	0.000025
23.780	0.000012
23.785	-0.000015
23.790	0.000012
23.795	0.000018
23.800	0.000045
23.805	0.000012
23.810	-0.000002
23.815	-0.000009
23.820	0.000019
23.825	0.000005
23.830	0.000032
23.835	0.000012
23.840	-0.000009
23.845	-0.000016
23.850	0.000012
23.855	0.000005
23.860	0.000025
23.865	-0.000009
23.870	0.000032
23.875	0.000011
23.880	0.000005
23.885	0.000004
23.890	0.000025
23.895	0.000011
23.900	-0.000009
23.905	-0.000002
23.910	-0.000023
23.915	-0.000009
23.920	0.000012
23.925	0.000011
23.930	0.000018
23.935	-0.000009
23.940	-0.000023
23.945	0.000018
23.950	-0.000002
23.955	0.000004
23.960	0.000031
23.965	-0.000016
23.970	0.000011
23.975	-0.000003
23.980	-0.000002
23.985	0.000039
23.990	0.000018
23.995	-0.000023
24.000	0.000011
24.005	0.000011
24.010	0.000024
24.015	0.000024
24.020	0.000038
24.025	0.000018
24.030	0.000011
24.035	-0.000017
24.040	0.000017
24.045	0.000011
24.050	0.000025
24.055	-0.000023
24.060	0.000004
24.065	0.000024
24.070	0.000024
24.075	0.000011
24.080	0.000018
24.085	-0.000010
24.090	0.000011
24.095	0.000024
24.100	0.000024
24.105	-0.000003
24.110	0.000024
24.115	0.000031
24.120	0.000011
24.125	0.000018
24.130	0.000024
24.135	0.000010
24.140	0.000017
24.145	0.000024
24.150	-0.000003
24.155	0.000017
24.160	-0.000003
24.165	0.000003
24.170	0.000010
24.175	-0.000010
24.180	0.000017
24.185	0.000018
24.190	-0.000003
24.195	0.000017
24.200	0.000024
24.205	-0.000010
24.210	0.000037
24.215	0.000024
24.220	0.000017
24.225	0.000031
24.230	0.000003
24.235	-0.000024
24.240	0.000017
24.245	0.000017
24.250	0.000004
24.255	0.000010
24.260	-0.000004
24.265	-0.000004
24.270	-0.000017
24.275	0.000023
24.280	-0.000004
24.285	0.000037
24.290	0.000010
24.295	0.000010
24.300	-0.000004
24.305	-0.000004
24.310	0.000016
24.315	0.000017
24.320	0.000003
24.325	-0.000004
24.330	0.000016
24.335	-0.000004
24.340	-0.000011
24.345	0.000016
24.350	0.000010
24.355	-0.000011
24.360	0.000010
24.365	0.000010
24.370	0.000016
24.375	0.000009
24.380	0.000024
24.385	0.000017
24.390	0.000003
24.395	0.000030
24.400	0.000016
24.405	0.000043
24.410	0.000016
24.415	0.000036
24.420	0.000009
24.425	-0.000011
24.430	0.000002
24.435	0.000043
24.440	0.000009
24.445	0.000003
24.450	0.000023
24.455	0.000023
24.460	0.000050
24.465	-0.000011
24.470	0.000009
24.475	0.000030
24.480	0.000016
24.485	-0.000004
24.490	0.000023
24.495	0.000043
24.500	-0.000005
24.505	0.000036
24.510	0.000016
24.515	0.000010
24.520	0.000030
24.525	0.000002
24.530	0.000009
24.535	0.000015
24.540	-0.000012
24.545	0.000022
24.550	0.000022
24.555	0.000022
24.560	0.000029
24.565	0.000009
24.570	0.000002
24.575	0.000002
24.580	0.000023
24.585	0.000009
24.590	0.000029
24.595	0.000002
24.600	0.000036
24.605	0.000022
24.610	0.000022
24.615	0.000009
24.620	0.000029
24.625	0.000008
24.630	0.000036
24.635	0.000015
24.640	0.000029
24.645	-0.000005
24.650	0.000009
24.655	0.000036
24.660	0.000008
24.665	0.000022
24.670	0.000029
24.675	0.000008
24.680	0.000035
24.685	0.000022
24.690	0.000001
24.695	0.000035
24.700	0.000001
24.705	0.000001
24.710	0.000015
24.715	0.000008
24.720	0.000002
24.725	0.000028
24.730	-0.000006
24.735	0.000008
24.740	0.000008
24.745	0.000022
24.750	0.000035
24.755	0.000022
24.760	0.000022
24.765	0.000028
24.770	0.000021
24.775	0.000021
24.780	0.000029
24.785	0.000036
24.790	0.000035
24.795	0.000028
24.800	0.000035
24.805	0.000028
24.810	0.000021
24.815	0.000041
24.820	0.000021
24.825	0.000028
24.830	0.000035
24.835	0.000028
24.840	0.000007
24.845	0.000028
24.850	0.000015
24.855	0.000021
24.860	0.000028
24.865	0.000014
24.870	0.000041
24.875	0.000028
24.880	0.000055
24.885	0.000028
24.890	0.000014
24.895	0.000007
24.900	0.000007
24.905	0.000034
24.910	0.000028
24.915	0.000035
24.920	0.000056
24.925	0.000021
24.930	0.000048
24.935	0.000007
24.940	0.000021
24.945	0.000014
24.950	0.000048
24.955	0.000007
24.960	0.000014
24.965	0.000014
24.970	0.000014
24.975	0.000014
24.980	0.000028
24.985	0.000028
24.990	0.000014
24.995	0.000027
25.000	0.000007
25.005	0.000034
25.010	0.000021
25.015	0.000034
25.020	0.000041
25.025	0.000020
25.030	0.000041
25.035	0.000027
25.040	0.000027
25.045	0.000021
25.050	0.000014
25.055	0.000034
25.060	0.000020
25.065	0.000027
25.070	0.000027
25.075	0.000020
25.080	0.000034
25.085	0.000013
25.090	0.000041
25.095	0.000040
25.100	0.000020
25.105	0.000027
25.110	0.000034
25.115	0.000027
25.120	0.000007
25.125	0.000034
25.130	0.000047
25.135	0.000013
25.140	0.000061
25.145	0.000061
25.150	0.000027
25.155	0.000047
25.160	0.000054
25.165	0.000020
25.170	0.000033
25.175	0.000026
25.180	0.000034
25.185	0.000041
25.190	0.000054
25.195	0.000027
25.200	0.000020
25.205	0.000040
25.210	0.000013
25.215	0.000060
25.220	0.000026
25.225	0.000040
25.230	0.000026
25.235	0.000026
25.240	0.000060
25.245	0.000027
25.250	0.000041
25.255	0.000033
25.260	0.000033
25.265	0.000012
25.270	0.000040
25.275	0.000040
25.280	0.000033
25.285	0.000033
25.290	0.000026
25.295	0.000040
25.300	0.000019
25.305	0.000039
25.310	0.000006
25.315	0.000040
25.320	0.000034
25.325	0.000033
25.330	0.000053
25.335	0.000033
25.340	0.000005
25.345	0.000033
25.350	0.000012
25.355	0.000046
25.360	0.000019
25.365	0.000019
25.370	0.000012
25.375	0.000012
25.380	0.000040
25.385	-0.000001
25.390	0.000026
25.395	0.000026
25.400	0.000005
25.405	0.000019
25.410	0.000026
25.415	0.000032
25.420	0.000026
25.425	0.000032
25.430	0.000005
25.435	0.000019
25.440	0.000046
25.445	0.000039
25.450	0.000039
25.455	0.000046
25.460	0.000059
25.465	0.000032
25.470	0.000012
25.475	0.000052
25.480	0.000018
25.485	0.000025
25.490	0.000025
25.495	0.000018
25.500	0.000011
25.505	0.000025
25.510	0.000012
25.515	0.000032
25.520	0.000046
25.525	0.000066
25.530	0.000039
25.535	0.000032
25.540	0.000052
25.545	0.000025
25.550	0.000039
25.555	0.000011
25.560	0.000018
25.565	0.000011
25.570	0.000018
25.575	0.000032
25.580	-0.000002
25.585	0.000046
25.590	0.000052
25.595	0.000031
25.600	0.000031
25.605	0.000024
25.610	0.000004
25.615	0.000018
25.620	0.000038
25.625	-0.000003
25.630	0.000045
25.635	0.000011
25.640	0.000031
25.645	0.000032
25.650	0.000039
25.655	0.000045
25.660	0.000017
25.665	0.000017
25.670	0.000031
25.675	0.000038
25.680	0.000018
25.685	0.000024
25.690	0.000017
25.695	0.000045
25.700	0.000031
25.705	0.000024
25.710	0.000038
25.715	0.000018
25.720	0.000038
25.725	0.000031
25.730	0.000044
25.735	0.000038
25.740	0.000031
25.745	0.000003
25.750	0.000037
25.755	0.000030
25.760	0.000051
25.765	0.000037
25.770	0.000024
25.775	0.000037
25.780	0.000004
25.785	0.000065
25.790	0.000010
25.795	0.000010
25.800	0.000024
25.805	0.000024
25.810	-0.000004
25.815	0.000030
25.820	0.000017
25.825	0.000010
25.830	0.000024
25.835	0.000003
25.840	0.000050
25.845	0.000051
25.850	0.000038
25.855	0.000044
25.860	0.000023
25.865	0.000044
25.870	0.000017
25.875	0.000003
25.880	0.000030
25.885	0.000043
25.890	-0.000011
25.895	0.000023
25.900	0.000030
25.905	0.000016
25.910	0.000017
25.915	0.000024
25.920	-0.000011
25.925	0.000016
25.930	0.000043
25.935	-0.000004
25.940	0.000037
25.945	0.000043
25.950	0.000016
25.955	0.000016
25.960	0.000016
25.965	0.000016
25.970	0.000016
25.975	0.000016
25.980	0.000017
25.985	0.000017
25.990	0.000050
25.995	0.000023
26.000	0.000036
26.005	0.000022
26.010	0.000036
26.015	-0.000005
26.020	0.000023
26.025	0.000022
26.030	0.000009
26.035	0.000015
26.040	0.000022
26.045	0.000009
26.050	0.000023
26.055	0.000022
26.060	0.000029
26.065	0.000015
26.070	0.000029
26.075	0.000022
26.080	0.000029
26.085	0.000022
26.090	0.000042
26.095	-0.000012
26.100	0.000009
26.105	-0.000005
26.110	0.000009
26.115	0.000050
26.120	0.000029
26.125	0.000015
26.130	0.000002
26.135	0.000015
26.140	-0.000026
26.145	0.000022
26.150	-0.000012
26.155	0.000035
26.160	0.000028
26.165	0.000001
26.170	0.000001
26.175	0.000015
26.180	0.000016
26.185	0.000015
26.190	0.000022
26.195	0.000008
26.200	0.000022
26.205	0.000001
26.210	0.000022
26.215	0.000035
26.220	-0.000012
26.225	0.000008
26.230	0.000015
26.235	-0.000006
26.240	0.000001
26.245	0.000029
26.250	0.000022
26.255	0.000008
26.260	0.000015
26.265	0.000014
26.270	0.000042
26.275	0.000008
26.280	0.000035
26.285	0.000028
26.290	0.000014
26.295	0.000014
26.300	0.000028
26.305	0.000048
26.310	0.000048
26.315	-0.000006
26.320	0.000021
