PK2650 Deflection Data
Z Position (mm)	110.000	W Position (deg)	144.00
Preform ID	Diameter (mm)	Time Stamp	Start Time	Operator	Serial Number
Test 1	25	03-Nov-22 18:05:01	03-Nov-22 18:07:55	[no user]	266007708
Radius (mm)	Deflection
-26.285	-0.000001
-26.280	0.000005
-26.275	0.000026
-26.270	0.000012
-26.265	-0.000021
-26.260	-0.000008
-26.255	-0.000016
-26.250	-0.000022
-26.245	-0.000009
-26.240	0.000005
-26.235	-0.000009
-26.230	-0.000002
-26.225	0.000005
-26.220	0.000005
-26.215	0.000005
-26.210	0.000004
-26.205	-0.000009
-26.200	0.000012
-26.195	0.000005
-26.190	-0.000009
-26.185	-0.000030
-26.180	-0.000002
-26.175	-0.000003
-26.170	0.000004
-26.165	0.000011
-26.160	-0.000009
-26.155	0.000004
-26.150	0.000004
-26.145	0.000004
-26.140	-0.000009
-26.135	-0.000016
-26.130	0.000004
-26.125	-0.000016
-26.120	-0.000010
-26.115	-0.000003
-26.110	-0.000003
-26.105	-0.000017
-26.100	0.000010
-26.095	0.000011
-26.090	0.000017
-26.085	0.000051
-26.080	0.000017
-26.075	0.000031
-26.070	-0.000003
-26.065	-0.000016
-26.060	-0.000003
-26.055	-0.000004
-26.050	-0.000017
-26.045	-0.000010
-26.040	-0.000010
-26.035	0.000010
-26.030	0.000003
-26.025	-0.000017
-26.020	0.000023
-26.015	0.000003
-26.010	0.000010
-26.005	-0.000011
-26.000	-0.000003
-25.995	0.000017
-25.990	0.000003
-25.985	0.000003
-25.980	-0.000018
-25.975	0.000009
-25.970	-0.000031
-25.965	0.000023
-25.960	-0.000011
-25.955	0.000030
-25.950	0.000003
-25.945	0.000037
-25.940	-0.000004
-25.935	-0.000017
-25.930	-0.000037
-25.925	-0.000011
-25.920	0.000016
-25.915	0.000016
-25.910	-0.000004
-25.905	0.000002
-25.900	-0.000018
-25.895	0.000003
-25.890	-0.000011
-25.885	0.000002
-25.880	0.000002
-25.875	-0.000011
-25.870	0.000016
-25.865	-0.000024
-25.860	-0.000025
-25.855	0.000002
-25.850	-0.000019
-25.845	-0.000012
-25.840	0.000036
-25.835	0.000043
-25.830	0.000022
-25.825	0.000016
-25.820	-0.000025
-25.815	-0.000005
-25.810	-0.000012
-25.805	0.000009
-25.800	-0.000038
-25.795	-0.000005
-25.790	-0.000012
-25.785	0.000002
-25.780	0.000008
-25.775	-0.000025
-25.770	0.000022
-25.765	0.000009
-25.760	0.000002
-25.755	0.000008
-25.750	0.000042
-25.745	0.000008
-25.740	-0.000026
-25.735	0.000022
-25.730	0.000002
-25.725	-0.000005
-25.720	0.000028
-25.715	-0.000033
-25.710	-0.000012
-25.705	-0.000012
-25.700	-0.000026
-25.695	0.000015
-25.690	0.000022
-25.685	0.000015
-25.680	0.000015
-25.675	0.000028
-25.670	0.000015
-25.665	0.000029
-25.660	0.000001
-25.655	0.000001
-25.650	0.000001
-25.645	-0.000006
-25.640	-0.000019
-25.635	0.000028
-25.630	-0.000012
-25.625	-0.000006
-25.620	0.000001
-25.615	0.000008
-25.610	-0.000019
-25.605	-0.000006
-25.600	-0.000026
-25.595	-0.000019
-25.590	0.000007
-25.585	-0.000006
-25.580	-0.000006
-25.575	-0.000006
-25.570	0.000021
-25.565	-0.000006
-25.560	0.000021
-25.555	0.000021
-25.550	0.000014
-25.545	-0.000006
-25.540	0.000008
-25.535	0.000021
-25.530	-0.000012
-25.525	-0.000033
-25.520	-0.000013
-25.515	0.000000
-25.510	-0.000006
-25.505	0.000028
-25.500	-0.000006
-25.495	0.000000
-25.490	0.000027
-25.485	0.000007
-25.480	0.000014
-25.475	-0.000020
-25.470	0.000001
-25.465	-0.000006
-25.460	-0.000006
-25.455	0.000007
-25.450	-0.000034
-25.445	0.000027
-25.440	0.000006
-25.435	0.000020
-25.430	0.000013
-25.425	0.000027
-25.420	0.000007
-25.415	0.000020
-25.410	0.000034
-25.405	0.000014
-25.400	0.000001
-25.395	0.000014
-25.390	-0.000014
-25.385	-0.000007
-25.380	-0.000027
-25.375	-0.000020
-25.370	0.000013
-25.365	0.000014
-25.360	0.000020
-25.355	0.000007
-25.350	0.000013
-25.345	0.000006
-25.340	-0.000014
-25.335	-0.000034
-25.330	-0.000013
-25.325	-0.000001
-25.320	0.000020
-25.315	-0.000001
-25.310	-0.000021
-25.305	0.000026
-25.300	0.000006
-25.295	0.000006
-25.290	-0.000001
-25.285	0.000006
-25.280	0.000020
-25.275	-0.000007
-25.270	-0.000007
-25.265	0.000013
-25.260	0.000006
-25.255	0.000006
-25.250	-0.000014
-25.245	-0.000014
-25.240	0.000006
-25.235	-0.000001
-25.230	-0.000021
-25.225	0.000026
-25.220	0.000013
-25.215	0.000013
-25.210	-0.000008
-25.205	0.000006
-25.200	0.000006
-25.195	-0.000028
-25.190	-0.000008
-25.185	-0.000001
-25.180	-0.000008
-25.175	-0.000008
-25.170	0.000060
-25.165	0.000019
-25.160	0.000012
-25.155	-0.000008
-25.150	0.000026
-25.145	-0.000015
-25.140	0.000013
-25.135	0.000020
-25.130	0.000006
-25.125	-0.000035
-25.120	-0.000022
-25.115	-0.000001
-25.110	0.000005
-25.105	0.000012
-25.100	0.000019
-25.095	0.000026
-25.090	0.000033
-25.085	0.000019
-25.080	0.000005
-25.075	-0.000002
-25.070	-0.000008
-25.065	-0.000001
-25.060	0.000012
-25.055	0.000005
-25.050	0.000012
-25.045	0.000019
-25.040	0.000012
-25.035	0.000012
-25.030	0.000019
-25.025	0.000019
-25.020	0.000005
-25.015	0.000012
-25.010	0.000012
-25.005	0.000005
-25.000	0.000019
-24.995	-0.000028
-24.990	0.000011
-24.985	-0.000022
-24.980	0.000018
-24.975	-0.000009
-24.970	0.000012
-24.965	0.000032
-24.960	0.000012
-24.955	-0.000002
-24.950	0.000005
-24.945	0.000038
-24.940	0.000005
-24.935	0.000012
-24.930	0.000005
-24.925	-0.000002
-24.920	-0.000036
-24.915	-0.000009
-24.910	0.000005
-24.905	0.000011
-24.900	-0.000002
-24.895	-0.000002
-24.890	0.000005
-24.885	0.000005
-24.880	0.000011
-24.875	0.000005
-24.870	-0.000022
-24.865	-0.000002
-24.860	-0.000009
-24.855	-0.000009
-24.850	0.000004
-24.845	-0.000029
-24.840	-0.000002
-24.835	0.000018
-24.830	0.000025
-24.825	0.000025
-24.820	0.000011
-24.815	-0.000009
-24.810	0.000011
-24.805	-0.000009
-24.800	0.000005
-24.795	0.000005
-24.790	-0.000016
-24.785	0.000031
-24.780	-0.000016
-24.775	0.000018
-24.770	0.000018
-24.765	0.000018
-24.760	0.000011
-24.755	0.000031
-24.750	0.000031
-24.745	0.000004
-24.740	0.000005
-24.735	0.000018
-24.730	0.000005
-24.725	-0.000016
-24.720	-0.000016
-24.715	0.000004
-24.710	-0.000016
-24.705	0.000011
-24.700	0.000011
-24.695	0.000032
-24.690	0.000011
-24.685	0.000018
-24.680	0.000011
-24.675	0.000024
-24.670	0.000032
-24.665	0.000011
-24.660	0.000011
-24.655	-0.000003
-24.650	0.000004
-24.645	0.000024
-24.640	0.000011
-24.635	0.000024
-24.630	0.000024
-24.625	0.000011
-24.620	0.000011
-24.615	0.000024
-24.610	-0.000003
-24.605	0.000011
-24.600	-0.000002
-24.595	-0.000009
-24.590	-0.000003
-24.585	0.000004
-24.580	-0.000017
-24.575	0.000024
-24.570	0.000024
-24.565	0.000017
-24.560	0.000017
-24.555	0.000024
-24.550	0.000010
-24.545	-0.000003
-24.540	0.000044
-24.535	0.000004
-24.530	0.000018
-24.525	-0.000010
-24.520	-0.000010
-24.515	0.000010
-24.510	-0.000024
-24.505	0.000051
-24.500	0.000017
-24.495	0.000010
-24.490	-0.000003
-24.485	0.000017
-24.480	0.000024
-24.475	0.000030
-24.470	0.000011
-24.465	0.000024
-24.460	0.000017
-24.455	0.000017
-24.450	0.000010
-24.445	0.000010
-24.440	-0.000010
-24.435	0.000010
-24.430	0.000024
-24.425	0.000037
-24.420	0.000017
-24.415	0.000024
-24.410	0.000016
-24.405	-0.000010
-24.400	0.000031
-24.395	0.000010
-24.390	0.000017
-24.385	0.000003
-24.380	0.000037
-24.375	0.000043
-24.370	-0.000004
-24.365	0.000037
-24.360	0.000044
-24.355	0.000037
-24.350	0.000037
-24.345	0.000010
-24.340	0.000030
-24.335	0.000004
-24.330	-0.000010
-24.325	0.000003
-24.320	-0.000011
-24.315	0.000003
-24.310	0.000016
-24.305	0.000030
-24.300	0.000010
-24.295	0.000050
-24.290	0.000050
-24.285	0.000064
-24.280	0.000009
-24.275	0.000057
-24.270	0.000030
-24.265	0.000030
-24.260	0.000023
-24.255	0.000009
-24.250	-0.000004
-24.245	0.000016
-24.240	0.000016
-24.235	0.000023
-24.230	0.000043
-24.225	0.000043
-24.220	0.000057
-24.215	0.000016
-24.210	0.000029
-24.205	0.000037
-24.200	0.000016
-24.195	0.000030
-24.190	0.000029
-24.185	0.000029
-24.180	-0.000005
-24.175	0.000009
-24.170	0.000023
-24.165	0.000036
-24.160	0.000050
-24.155	0.000056
-24.150	0.000049
-24.145	0.000042
-24.140	0.000029
-24.135	0.000050
-24.130	0.000043
-24.125	-0.000012
-24.120	0.000015
-24.115	0.000022
-24.110	0.000008
-24.105	0.000029
-24.100	0.000015
-24.095	0.000022
-24.090	0.000029
-24.085	0.000036
-24.080	0.000008
-24.075	0.000015
-24.070	0.000029
-24.065	0.000023
-24.060	0.000029
-24.055	0.000008
-24.050	0.000042
-24.045	-0.000005
-24.040	-0.000005
-24.035	-0.000012
-24.030	0.000029
-24.025	0.000042
-24.020	0.000022
-24.015	0.000035
-24.010	0.000049
-24.005	0.000049
-24.000	0.000029
-23.995	0.000002
-23.990	0.000028
-23.985	0.000015
-23.980	0.000028
-23.975	0.000048
-23.970	0.000028
-23.965	0.000035
-23.960	0.000028
-23.955	0.000014
-23.950	0.000048
-23.945	0.000042
-23.940	0.000001
-23.935	0.000029
-23.930	0.000008
-23.925	0.000008
-23.920	0.000001
-23.915	0.000035
-23.910	0.000001
-23.905	0.000014
-23.900	0.000007
-23.895	0.000014
-23.890	0.000021
-23.885	0.000034
-23.880	0.000000
-23.875	0.000034
-23.870	0.000001
-23.865	0.000021
-23.860	0.000041
-23.855	0.000020
-23.850	-0.000014
-23.845	0.000020
-23.840	0.000034
-23.835	0.000027
-23.830	0.000034
-23.825	0.000027
-23.820	0.000068
-23.815	0.000007
-23.810	0.000027
-23.805	0.000021
-23.800	0.000014
-23.795	0.000000
-23.790	0.000006
-23.785	-0.000000
-23.780	0.000006
-23.775	0.000014
-23.770	0.000027
-23.765	0.000054
-23.760	0.000027
-23.755	0.000027
-23.750	0.000006
-23.745	-0.000007
-23.740	0.000020
-23.735	0.000014
-23.730	0.000000
-23.725	-0.000007
-23.720	0.000026
-23.715	-0.000001
-23.710	-0.000001
-23.705	0.000006
-23.700	0.000033
-23.695	0.000027
-23.690	0.000040
-23.685	0.000013
-23.680	0.000040
-23.675	0.000006
-23.670	0.000040
-23.665	-0.000007
-23.660	0.000006
-23.655	0.000019
-23.650	0.000012
-23.645	-0.000001
-23.640	-0.000008
-23.635	0.000033
-23.630	0.000026
-23.625	0.000019
-23.620	0.000026
-23.615	0.000019
-23.610	0.000005
-23.605	0.000019
-23.600	-0.000001
-23.595	-0.000001
-23.590	0.000026
-23.585	0.000012
-23.580	-0.000001
-23.575	-0.000002
-23.570	0.000005
-23.565	0.000019
-23.560	0.000025
-23.555	-0.000002
-23.550	-0.000015
-23.545	-0.000022
-23.540	-0.000001
-23.535	0.000006
-23.530	0.000005
-23.525	0.000005
-23.520	-0.000029
-23.515	-0.000022
-23.510	-0.000022
-23.505	-0.000015
-23.500	-0.000016
-23.495	0.000012
-23.490	-0.000009
-23.485	-0.000009
-23.480	0.000004
-23.475	-0.000002
-23.470	-0.000036
-23.465	-0.000049
-23.460	-0.000043
-23.455	-0.000023
-23.450	-0.000043
-23.445	-0.000002
-23.440	-0.000043
-23.435	-0.000030
-23.430	-0.000016
-23.425	0.000018
-23.420	0.000004
-23.415	-0.000030
-23.410	-0.000036
-23.405	-0.000029
-23.400	-0.000009
-23.395	-0.000023
-23.390	-0.000037
-23.385	-0.000003
-23.380	-0.000010
-23.375	-0.000009
-23.370	0.000011
-23.365	-0.000009
-23.360	-0.000037
-23.355	-0.000023
-23.350	-0.000003
-23.345	-0.000024
-23.340	-0.000003
-23.335	-0.000009
-23.330	-0.000016
-23.325	-0.000031
-23.320	-0.000037
-23.315	-0.000044
-23.310	-0.000024
-23.305	0.000003
-23.300	-0.000010
-23.295	-0.000010
-23.290	-0.000004
-23.285	-0.000003
-23.280	0.000010
-23.275	-0.000010
-23.270	0.000004
-23.265	-0.000023
-23.260	-0.000038
-23.255	-0.000031
-23.250	0.000003
-23.245	-0.000017
-23.240	-0.000011
-23.235	0.000017
-23.230	-0.000011
-23.225	-0.000010
-23.220	-0.000011
-23.215	-0.000011
-23.210	0.000010
-23.205	-0.000017
-23.200	-0.000003
-23.195	-0.000024
-23.190	-0.000018
-23.185	-0.000025
-23.180	0.000023
-23.175	-0.000018
-23.170	0.000016
-23.165	0.000009
-23.160	-0.000038
-23.155	0.000003
-23.150	-0.000011
-23.145	-0.000004
-23.140	-0.000024
-23.135	-0.000017
-23.130	-0.000038
-23.125	-0.000038
-23.120	-0.000025
-23.115	-0.000018
-23.110	-0.000018
-23.105	-0.000025
-23.100	-0.000038
-23.095	-0.000011
-23.090	-0.000005
-23.085	0.000016
-23.080	-0.000032
-23.075	-0.000005
-23.070	-0.000025
-23.065	-0.000025
-23.060	-0.000039
-23.055	-0.000005
-23.050	-0.000032
-23.045	-0.000032
-23.040	-0.000025
-23.035	-0.000032
-23.030	0.000015
-23.025	0.000022
-23.020	0.000002
-23.015	-0.000039
-23.010	-0.000012
-23.005	-0.000038
-23.000	-0.000025
-22.995	-0.000012
-22.990	-0.000012
-22.985	-0.000032
-22.980	0.000015
-22.975	-0.000032
-22.970	-0.000012
-22.965	0.000008
-22.960	-0.000032
-22.955	0.000015
-22.950	-0.000026
-22.945	0.000008
-22.940	-0.000012
-22.935	-0.000032
-22.930	-0.000019
-22.925	-0.000040
-22.920	-0.000074
-22.915	-0.000012
-22.910	-0.000013
-22.905	-0.000013
-22.900	-0.000026
-22.895	-0.000019
-22.890	-0.000013
-22.885	-0.000019
-22.880	0.000001
-22.875	-0.000032
-22.870	-0.000032
-22.865	-0.000005
-22.860	-0.000013
-22.855	-0.000013
-22.850	-0.000019
-22.845	-0.000040
-22.840	0.000001
-22.835	-0.000013
-22.830	0.000014
-22.825	0.000001
-22.820	0.000021
-22.815	0.000008
-22.810	0.000028
-22.805	-0.000019
-22.800	-0.000026
-22.795	-0.000047
-22.790	-0.000027
-22.785	-0.000027
-22.780	-0.000040
-22.775	-0.000006
-22.770	-0.000027
-22.765	-0.000013
-22.760	-0.000013
-22.755	0.000007
-22.750	0.000007
-22.745	0.000007
-22.740	-0.000040
-22.735	0.000001
-22.730	-0.000026
-22.725	-0.000013
-22.720	-0.000040
-22.715	-0.000027
-22.710	0.000000
-22.705	0.000000
-22.700	-0.000027
-22.695	-0.000034
-22.690	-0.000007
-22.685	-0.000013
-22.680	0.000007
-22.675	-0.000007
-22.670	-0.000006
-22.665	-0.000033
-22.660	-0.000014
-22.655	-0.000034
-22.650	-0.000041
-22.645	-0.000021
-22.640	-0.000027
-22.635	-0.000014
-22.630	-0.000027
-22.625	-0.000014
-22.620	-0.000000
-22.615	-0.000041
-22.610	-0.000007
-22.605	-0.000013
-22.600	-0.000027
-22.595	-0.000014
-22.590	-0.000028
-22.585	-0.000041
-22.580	-0.000021
-22.575	-0.000021
-22.570	-0.000021
-22.565	0.000027
-22.560	-0.000028
-22.555	0.000006
-22.550	-0.000021
-22.545	-0.000041
-22.540	0.000006
-22.535	-0.000027
-22.530	-0.000068
-22.525	-0.000028
-22.520	-0.000021
-22.515	-0.000015
-22.510	-0.000008
-22.505	-0.000035
-22.500	-0.000021
-22.495	-0.000008
-22.490	-0.000015
-22.485	-0.000001
-22.480	-0.000001
-22.475	-0.000034
-22.470	-0.000007
-22.465	-0.000014
-22.460	-0.000042
-22.455	-0.000035
-22.450	-0.000042
-22.445	-0.000042
-22.440	0.000006
-22.435	-0.000021
-22.430	-0.000028
-22.425	-0.000028
-22.420	-0.000028
-22.415	-0.000055
-22.410	-0.000001
-22.405	-0.000014
-22.400	-0.000048
-22.395	-0.000035
-22.390	-0.000049
-22.385	-0.000036
-22.380	-0.000015
-22.375	-0.000015
-22.370	-0.000022
-22.365	-0.000022
-22.360	-0.000029
-22.355	-0.000042
-22.350	-0.000009
-22.345	-0.000036
-22.340	-0.000042
-22.335	-0.000028
-22.330	-0.000049
-22.325	-0.000049
-22.320	-0.000049
-22.315	-0.000029
-22.310	-0.000036
-22.305	-0.000036
-22.300	-0.000009
-22.295	-0.000015
-22.290	-0.000056
-22.285	-0.000029
-22.280	-0.000036
-22.275	-0.000022
-22.270	-0.000022
-22.265	-0.000056
-22.260	-0.000043
-22.255	-0.000029
-22.250	-0.000036
-22.245	-0.000029
-22.240	-0.000036
-22.235	-0.000022
-22.230	-0.000023
-22.225	-0.000036
-22.220	-0.000016
-22.215	-0.000036
-22.210	-0.000043
-22.205	-0.000042
-22.200	-0.000029
-22.195	-0.000043
-22.190	-0.000057
-22.185	-0.000050
-22.180	-0.000050
-22.175	-0.000036
-22.170	-0.000029
-22.165	-0.000029
-22.160	-0.000023
-22.155	0.000011
-22.150	-0.000016
-22.145	-0.000037
-22.140	-0.000029
-22.135	-0.000022
-22.130	-0.000036
-22.125	-0.000043
-22.120	-0.000023
-22.115	-0.000016
-22.110	-0.000030
-22.105	-0.000037
-22.100	-0.000023
-22.095	-0.000043
-22.090	-0.000016
-22.085	-0.000016
-22.080	-0.000050
-22.075	-0.000030
-22.070	-0.000056
-22.065	-0.000043
-22.060	-0.000037
-22.055	-0.000044
-22.050	-0.000057
-22.045	-0.000030
-22.040	-0.000044
-22.035	-0.000023
-22.030	-0.000023
-22.025	0.000004
-22.020	-0.000050
-22.015	0.000004
-22.010	-0.000044
-22.005	-0.000037
-22.000	-0.000030
-21.995	-0.000037
-21.990	-0.000030
-21.985	-0.000017
-21.980	-0.000017
-21.975	-0.000071
-21.970	-0.000044
-21.965	-0.000044
-21.960	-0.000044
-21.955	-0.000024
-21.950	-0.000037
-21.945	-0.000017
-21.940	-0.000050
-21.935	-0.000043
-21.930	-0.000044
-21.925	-0.000044
-21.920	-0.000044
-21.915	-0.000064
-21.910	-0.000051
-21.905	-0.000044
-21.900	-0.000031
-21.895	-0.000017
-21.890	-0.000010
-21.885	-0.000024
-21.880	-0.000044
-21.875	-0.000017
-21.870	-0.000023
-21.865	-0.000064
-21.860	-0.000085
-21.855	-0.000051
-21.850	-0.000024
-21.845	-0.000044
-21.840	-0.000031
-21.835	-0.000031
-21.830	-0.000024
-21.825	-0.000038
-21.820	-0.000031
-21.815	-0.000051
-21.810	-0.000031
-21.805	-0.000037
-21.800	-0.000051
-21.795	-0.000017
-21.790	-0.000031
-21.785	-0.000038
-21.780	0.000003
-21.775	-0.000011
-21.770	-0.000024
-21.765	-0.000031
-21.760	-0.000004
-21.755	-0.000031
-21.750	-0.000011
-21.745	-0.000031
-21.740	-0.000017
-21.735	-0.000058
-21.730	-0.000017
-21.725	-0.000052
-21.720	-0.000038
-21.715	-0.000045
-21.710	-0.000032
-21.705	-0.000031
-21.700	-0.000018
-21.695	-0.000031
-21.690	-0.000025
-21.685	-0.000011
-21.680	-0.000025
-21.675	-0.000024
-21.670	-0.000031
-21.665	-0.000038
-21.660	-0.000025
-21.655	-0.000065
-21.650	-0.000045
-21.645	-0.000038
-21.640	-0.000058
-21.635	-0.000018
-21.630	-0.000005
-21.625	-0.000018
-21.620	-0.000025
-21.615	-0.000011
-21.610	-0.000038
-21.605	-0.000045
-21.600	-0.000024
-21.595	-0.000059
-21.590	-0.000032
-21.585	-0.000018
-21.580	-0.000019
-21.575	-0.000012
-21.570	-0.000012
-21.565	-0.000025
-21.560	-0.000025
-21.555	0.000022
-21.550	-0.000005
-21.545	0.000002
-21.540	-0.000004
-21.535	-0.000052
-21.530	-0.000012
-21.525	-0.000032
-21.520	-0.000046
-21.515	-0.000018
-21.510	-0.000005
-21.505	0.000009
-21.500	0.000009
-21.495	-0.000012
-21.490	0.000002
-21.485	0.000015
-21.480	0.000008
-21.475	-0.000005
-21.470	0.000016
-21.465	-0.000025
-21.460	0.000015
-21.455	0.000076
-21.450	0.000056
-21.445	0.000077
-21.440	0.000185
-21.435	0.000295
-21.430	0.000493
-21.425	0.000794
-21.420	0.001157
-21.415	0.001680
-21.410	0.002412
-21.405	0.003350
-21.400	0.004485
-21.395	0.005869
-21.390	0.007585
-21.385	0.009500
-21.380	0.011757
-21.375	0.014379
-21.370	0.017319
-21.365	0.020435
-21.360	0.023831
-21.355	0.027378
-21.350	0.030994
-21.345	0.034593
-21.340	0.038156
-21.335	0.041873
-21.330	0.045434
-21.325	0.048762
-21.320	0.050498
-21.315	0.049749
-21.310	0.048950
-21.305	0.047813
-21.300	0.045767
-21.295	0.044581
-21.290	0.043750
-21.285	0.042873
-21.280	0.041928
-21.275	0.041392
-21.270	0.040475
-21.265	0.039212
-21.260	0.038244
-21.255	0.037274
-21.250	0.036211
-21.245	0.035881
-21.240	0.035170
-21.235	0.034253
-21.230	0.034030
-21.225	0.033530
-21.220	0.032859
-21.215	0.032388
-21.210	0.031887
-21.205	0.031381
-21.200	0.031041
-21.195	0.030769
-21.190	0.030419
-21.185	0.030345
-21.180	0.030219
-21.175	0.029491
-21.170	0.028603
-21.165	0.028238
-21.160	0.028017
-21.155	0.027628
-21.150	0.027188
-21.145	0.027030
-21.140	0.026826
-21.135	0.027004
-21.130	0.027164
-21.125	0.026603
-21.120	0.025780
-21.115	0.025513
-21.110	0.025323
-21.105	0.025150
-21.100	0.024909
-21.095	0.024786
-21.090	0.024621
-21.085	0.024316
-21.080	0.023996
-21.075	0.023818
-21.070	0.023602
-21.065	0.023388
-21.060	0.023126
-21.055	0.022895
-21.050	0.022691
-21.045	0.022562
-21.040	0.022480
-21.035	0.022396
-21.030	0.022203
-21.025	0.022026
-21.020	0.021896
-21.015	0.021757
-21.010	0.021690
-21.005	0.021568
-21.000	0.021458
-20.995	0.021400
-20.990	0.021261
-20.985	0.021082
-20.980	0.020863
-20.975	0.020712
-20.970	0.020590
-20.965	0.020495
-20.960	0.020364
-20.955	0.020242
-20.950	0.020101
-20.945	0.019975
-20.940	0.019838
-20.935	0.019730
-20.930	0.019605
-20.925	0.019524
-20.920	0.019383
-20.915	0.019275
-20.910	0.019199
-20.905	0.019115
-20.900	0.018965
-20.895	0.018888
-20.890	0.018803
-20.885	0.018680
-20.880	0.018586
-20.875	0.018494
-20.870	0.018416
-20.865	0.018323
-20.860	0.018268
-20.855	0.018197
-20.850	0.018063
-20.845	0.018012
-20.840	0.017867
-20.835	0.017743
-20.830	0.017628
-20.825	0.017582
-20.820	0.017451
-20.815	0.017335
-20.810	0.017295
-20.805	0.017185
-20.800	0.017108
-20.795	0.017067
-20.790	0.016998
-20.785	0.016921
-20.780	0.016878
-20.775	0.016830
-20.770	0.016730
-20.765	0.016674
-20.760	0.016622
-20.755	0.016532
-20.750	0.016467
-20.745	0.016331
-20.740	0.016258
-20.735	0.016210
-20.730	0.016121
-20.725	0.016052
-20.720	0.016006
-20.715	0.015969
-20.710	0.015932
-20.705	0.015834
-20.700	0.015755
-20.695	0.015697
-20.690	0.015623
-20.685	0.015583
-20.680	0.015501
-20.675	0.015451
-20.670	0.015368
-20.665	0.015326
-20.660	0.015253
-20.655	0.015196
-20.650	0.015183
-20.645	0.015111
-20.640	0.015081
-20.635	0.015037
-20.630	0.014963
-20.625	0.014921
-20.620	0.014872
-20.615	0.014834
-20.610	0.014787
-20.605	0.014688
-20.600	0.014692
-20.595	0.014652
-20.590	0.014574
-20.585	0.014522
-20.580	0.014481
-20.575	0.014464
-20.570	0.014406
-20.565	0.014381
-20.560	0.014278
-20.555	0.014223
-20.550	0.014217
-20.545	0.014113
-20.540	0.014073
-20.535	0.014038
-20.530	0.013981
-20.525	0.013945
-20.520	0.013964
-20.515	0.013853
-20.510	0.013864
-20.505	0.013784
-20.500	0.013773
-20.495	0.013742
-20.490	0.013714
-20.485	0.013707
-20.480	0.013644
-20.475	0.013604
-20.470	0.013582
-20.465	0.013545
-20.460	0.013486
-20.455	0.013478
-20.450	0.013407
-20.445	0.013360
-20.440	0.013308
-20.435	0.013295
-20.430	0.013248
-20.425	0.013191
-20.420	0.013126
-20.415	0.013119
-20.410	0.013078
-20.405	0.013020
-20.400	0.013014
-20.395	0.012962
-20.390	0.012937
-20.385	0.012879
-20.380	0.012877
-20.375	0.012831
-20.370	0.012822
-20.365	0.012793
-20.360	0.012747
-20.355	0.012718
-20.350	0.012685
-20.345	0.012671
-20.340	0.012611
-20.335	0.012569
-20.330	0.012536
-20.325	0.012487
-20.320	0.012427
-20.315	0.012430
-20.310	0.012397
-20.305	0.012344
-20.300	0.012299
-20.295	0.012282
-20.290	0.012286
-20.285	0.012253
-20.280	0.012182
-20.275	0.012185
-20.270	0.012116
-20.265	0.012093
-20.260	0.012072
-20.255	0.012015
-20.250	0.012001
-20.245	0.012002
-20.240	0.011959
-20.235	0.011956
-20.230	0.011932
-20.225	0.011900
-20.220	0.011870
-20.215	0.011839
-20.210	0.011821
-20.205	0.011796
-20.200	0.011752
-20.195	0.011732
-20.190	0.011708
-20.185	0.011699
-20.180	0.011644
-20.175	0.011656
-20.170	0.011634
-20.165	0.011592
-20.160	0.011585
-20.155	0.011569
-20.150	0.011525
-20.145	0.011491
-20.140	0.011451
-20.135	0.011415
-20.130	0.011415
-20.125	0.011383
-20.120	0.011304
-20.115	0.011300
-20.110	0.011309
-20.105	0.011273
-20.100	0.011243
-20.095	0.011238
-20.090	0.011174
-20.085	0.011158
-20.080	0.011120
-20.075	0.011122
-20.070	0.011081
-20.065	0.011037
-20.060	0.011048
-20.055	0.010980
-20.050	0.011014
-20.045	0.010988
-20.040	0.010952
-20.035	0.010924
-20.030	0.010923
-20.025	0.010889
-20.020	0.010861
-20.015	0.010833
-20.010	0.010821
-20.005	0.010818
-20.000	0.010747
-19.995	0.010762
-19.990	0.010741
-19.985	0.010692
-19.980	0.010655
-19.975	0.010654
-19.970	0.010653
-19.965	0.010613
-19.960	0.010634
-19.955	0.010580
-19.950	0.010554
-19.945	0.010545
-19.940	0.010512
-19.935	0.010498
-19.930	0.010480
-19.925	0.010467
-19.920	0.010447
-19.915	0.010415
-19.910	0.010425
-19.905	0.010389
-19.900	0.010370
-19.895	0.010380
-19.890	0.010366
-19.885	0.010312
-19.880	0.010320
-19.875	0.010292
-19.870	0.010248
-19.865	0.010201
-19.860	0.010214
-19.855	0.010220
-19.850	0.010184
-19.845	0.010202
-19.840	0.010177
-19.835	0.010152
-19.830	0.010138
-19.825	0.010107
-19.820	0.010092
-19.815	0.010100
-19.810	0.010043
-19.805	0.010004
-19.800	0.009965
-19.795	0.009966
-19.790	0.009896
-19.785	0.009903
-19.780	0.009906
-19.775	0.009882
-19.770	0.009874
-19.765	0.009868
-19.760	0.009826
-19.755	0.009805
-19.750	0.009777
-19.745	0.009766
-19.740	0.009768
-19.735	0.009719
-19.730	0.009685
-19.725	0.009678
-19.720	0.009650
-19.715	0.009651
-19.710	0.009596
-19.705	0.009637
-19.700	0.009582
-19.695	0.009583
-19.690	0.009514
-19.685	0.009536
-19.680	0.009496
-19.675	0.009466
-19.670	0.009458
-19.665	0.009439
-19.660	0.009415
-19.655	0.009407
-19.650	0.009366
-19.645	0.009370
-19.640	0.009351
-19.635	0.009358
-19.630	0.009330
-19.625	0.009309
-19.620	0.009295
-19.615	0.009274
-19.610	0.009247
-19.605	0.009282
-19.600	0.009245
-19.595	0.009247
-19.590	0.009175
-19.585	0.009194
-19.580	0.009171
-19.575	0.009189
-19.570	0.009191
-19.565	0.009187
-19.560	0.009225
-19.555	0.009191
-19.550	0.009157
-19.545	0.009118
-19.540	0.009109
-19.535	0.009058
-19.530	0.009094
-19.525	0.009051
-19.520	0.009055
-19.515	0.009021
-19.510	0.009021
-19.505	0.009010
-19.500	0.009028
-19.495	0.009020
-19.490	0.009024
-19.485	0.008994
-19.480	0.008958
-19.475	0.008975
-19.470	0.008943
-19.465	0.008941
-19.460	0.008919
-19.455	0.008912
-19.450	0.008891
-19.445	0.008859
-19.440	0.008880
-19.435	0.008855
-19.430	0.008850
-19.425	0.008844
-19.420	0.008817
-19.415	0.008785
-19.410	0.008768
-19.405	0.008751
-19.400	0.008729
-19.395	0.008739
-19.390	0.008678
-19.385	0.008719
-19.380	0.008692
-19.375	0.008680
-19.370	0.008717
-19.365	0.008679
-19.360	0.008694
-19.355	0.008637
-19.350	0.008628
-19.345	0.008628
-19.340	0.008619
-19.335	0.008586
-19.330	0.008577
-19.325	0.008597
-19.320	0.008558
-19.315	0.008576
-19.310	0.008547
-19.305	0.008526
-19.300	0.008552
-19.295	0.008537
-19.290	0.008500
-19.285	0.008510
-19.280	0.008491
-19.275	0.008470
-19.270	0.008426
-19.265	0.008469
-19.260	0.008431
-19.255	0.008429
-19.250	0.008420
-19.245	0.008406
-19.240	0.008418
-19.235	0.008396
-19.230	0.008360
-19.225	0.008386
-19.220	0.008397
-19.215	0.008306
-19.210	0.008328
-19.205	0.008315
-19.200	0.008301
-19.195	0.008271
-19.190	0.008306
-19.185	0.008294
-19.180	0.008260
-19.175	0.008267
-19.170	0.008267
-19.165	0.008235
-19.160	0.008256
-19.155	0.008230
-19.150	0.008232
-19.145	0.008229
-19.140	0.008164
-19.135	0.008179
-19.130	0.008168
-19.125	0.008161
-19.120	0.008164
-19.115	0.008139
-19.110	0.008132
-19.105	0.008140
-19.100	0.008141
-19.095	0.008121
-19.090	0.008127
-19.085	0.008109
-19.080	0.008087
-19.075	0.008069
-19.070	0.008070
-19.065	0.008040
-19.060	0.008053
-19.055	0.008020
-19.050	0.008039
-19.045	0.008019
-19.040	0.008033
-19.035	0.007992
-19.030	0.007985
-19.025	0.008004
-19.020	0.007963
-19.015	0.007969
-19.010	0.007943
-19.005	0.007938
-19.000	0.007909
-18.995	0.007888
-18.990	0.007883
-18.985	0.007890
-18.980	0.007856
-18.975	0.007850
-18.970	0.007858
-18.965	0.007857
-18.960	0.007829
-18.955	0.007801
-18.950	0.007813
-18.945	0.007766
-18.940	0.007781
-18.935	0.007733
-18.930	0.007736
-18.925	0.007723
-18.920	0.007696
-18.915	0.007698
-18.910	0.007692
-18.905	0.007665
-18.900	0.007706
-18.895	0.007658
-18.890	0.007665
-18.885	0.007644
-18.880	0.007640
-18.875	0.007555
-18.870	0.007582
-18.865	0.007550
-18.860	0.007583
-18.855	0.007582
-18.850	0.007553
-18.845	0.007579
-18.840	0.007560
-18.835	0.007547
-18.830	0.007546
-18.825	0.007546
-18.820	0.007537
-18.815	0.007516
-18.810	0.007484
-18.805	0.007473
-18.800	0.007481
-18.795	0.007443
-18.790	0.007446
-18.785	0.007433
-18.780	0.007451
-18.775	0.007450
-18.770	0.007433
-18.765	0.007451
-18.760	0.007428
-18.755	0.007421
-18.750	0.007462
-18.745	0.007373
-18.740	0.007365
-18.735	0.007370
-18.730	0.007380
-18.725	0.007346
-18.720	0.007360
-18.715	0.007339
-18.710	0.007312
-18.705	0.007331
-18.700	0.007301
-18.695	0.007329
-18.690	0.007299
-18.685	0.007298
-18.680	0.007270
-18.675	0.007260
-18.670	0.007267
-18.665	0.007228
-18.660	0.007212
-18.655	0.007239
-18.650	0.007224
-18.645	0.007197
-18.640	0.007196
-18.635	0.007210
-18.630	0.007188
-18.625	0.007161
-18.620	0.007173
-18.615	0.007174
-18.610	0.007161
-18.605	0.007169
-18.600	0.007152
-18.595	0.007178
-18.590	0.007122
-18.585	0.007109
-18.580	0.007110
-18.575	0.007132
-18.570	0.007111
-18.565	0.007110
-18.560	0.007081
-18.555	0.007081
-18.550	0.007079
-18.545	0.007033
-18.540	0.007063
-18.535	0.007055
-18.530	0.007017
-18.525	0.007025
-18.520	0.007045
-18.515	0.007024
-18.510	0.007017
-18.505	0.007005
-18.500	0.006998
-18.495	0.007025
-18.490	0.006991
-18.485	0.006992
-18.480	0.006986
-18.475	0.006974
-18.470	0.006973
-18.465	0.006971
-18.460	0.006922
-18.455	0.006944
-18.450	0.006910
-18.445	0.006965
-18.440	0.006957
-18.435	0.006922
-18.430	0.006888
-18.425	0.006921
-18.420	0.006906
-18.415	0.006891
-18.410	0.006880
-18.405	0.006855
-18.400	0.006853
-18.395	0.006865
-18.390	0.006836
-18.385	0.006837
-18.380	0.006843
-18.375	0.006817
-18.370	0.006817
-18.365	0.006838
-18.360	0.006824
-18.355	0.006810
-18.350	0.006789
-18.345	0.006833
-18.340	0.006785
-18.335	0.006764
-18.330	0.006761
-18.325	0.006746
-18.320	0.006753
-18.315	0.006753
-18.310	0.006733
-18.305	0.006725
-18.300	0.006740
-18.295	0.006747
-18.290	0.006704
-18.285	0.006683
-18.280	0.006684
-18.275	0.006706
-18.270	0.006638
-18.265	0.006656
-18.260	0.006613
-18.255	0.006648
-18.250	0.006640
-18.245	0.006607
-18.240	0.006649
-18.235	0.006601
-18.230	0.006636
-18.225	0.006617
-18.220	0.006577
-18.215	0.006633
-18.210	0.006595
-18.205	0.006554
-18.200	0.006566
-18.195	0.006587
-18.190	0.006553
-18.185	0.006533
-18.180	0.006547
-18.175	0.006549
-18.170	0.006544
-18.165	0.006551
-18.160	0.006524
-18.155	0.006531
-18.150	0.006546
-18.145	0.006541
-18.140	0.006501
-18.135	0.006459
-18.130	0.006477
-18.125	0.006518
-18.120	0.006499
-18.115	0.006501
-18.110	0.006496
-18.105	0.006470
-18.100	0.006492
-18.095	0.006479
-18.090	0.006492
-18.085	0.006480
-18.080	0.006473
-18.075	0.006462
-18.070	0.006440
-18.065	0.006417
-18.060	0.006444
-18.055	0.006473
-18.050	0.006417
-18.045	0.006403
-18.040	0.006423
-18.035	0.006428
-18.030	0.006420
-18.025	0.006413
-18.020	0.006419
-18.015	0.006384
-18.010	0.006378
-18.005	0.006337
-18.000	0.006340
-17.995	0.006367
-17.990	0.006336
-17.985	0.006377
-17.980	0.006329
-17.975	0.006309
-17.970	0.006313
-17.965	0.006321
-17.960	0.006327
-17.955	0.006327
-17.950	0.006320
-17.945	0.006287
-17.940	0.006288
-17.935	0.006285
-17.930	0.006289
-17.925	0.006248
-17.920	0.006255
-17.915	0.006256
-17.910	0.006242
-17.905	0.006235
-17.900	0.006248
-17.895	0.006248
-17.890	0.006226
-17.885	0.006226
-17.880	0.006206
-17.875	0.006180
-17.870	0.006200
-17.865	0.006212
-17.860	0.006177
-17.855	0.006211
-17.850	0.006196
-17.845	0.006177
-17.840	0.006183
-17.835	0.006210
-17.830	0.006182
-17.825	0.006169
-17.820	0.006175
-17.815	0.006198
-17.810	0.006151
-17.805	0.006146
-17.800	0.006155
-17.795	0.006134
-17.790	0.006140
-17.785	0.006146
-17.780	0.006119
-17.775	0.006111
-17.770	0.006145
-17.765	0.006118
-17.760	0.006117
-17.755	0.006103
-17.750	0.006074
-17.745	0.006082
-17.740	0.006034
-17.735	0.006026
-17.730	0.006030
-17.725	0.006037
-17.720	0.006043
-17.715	0.006003
-17.710	0.006037
-17.705	0.006016
-17.700	0.006022
-17.695	0.006009
-17.690	0.005988
-17.685	0.005954
-17.680	0.006002
-17.675	0.005970
-17.670	0.005948
-17.665	0.005918
-17.660	0.005945
-17.655	0.005933
-17.650	0.005932
-17.645	0.005948
-17.640	0.005940
-17.635	0.005954
-17.630	0.005948
-17.625	0.005907
-17.620	0.005928
-17.615	0.005914
-17.610	0.005889
-17.605	0.005876
-17.600	0.005894
-17.595	0.005853
-17.590	0.005866
-17.585	0.005840
-17.580	0.005860
-17.575	0.005867
-17.570	0.005852
-17.565	0.005839
-17.560	0.005818
-17.555	0.005866
-17.550	0.005838
-17.545	0.005842
-17.540	0.005801
-17.535	0.005806
-17.530	0.005796
-17.525	0.005804
-17.520	0.005816
-17.515	0.005810
-17.510	0.005817
-17.505	0.005777
-17.500	0.005824
-17.495	0.005775
-17.490	0.005774
-17.485	0.005801
-17.480	0.005754
-17.475	0.005742
-17.470	0.005719
-17.465	0.005715
-17.460	0.005721
-17.455	0.005750
-17.450	0.005702
-17.445	0.005729
-17.440	0.005715
-17.435	0.005708
-17.430	0.005742
-17.425	0.005680
-17.420	0.005687
-17.415	0.005668
-17.410	0.005670
-17.405	0.005607
-17.400	0.005653
-17.395	0.005652
-17.390	0.005672
-17.385	0.005646
-17.380	0.005638
-17.375	0.005652
-17.370	0.005645
-17.365	0.005631
-17.360	0.005616
-17.355	0.005616
-17.350	0.005629
-17.345	0.005643
-17.340	0.005595
-17.335	0.005587
-17.330	0.005598
-17.325	0.005584
-17.320	0.005577
-17.315	0.005611
-17.310	0.005577
-17.305	0.005598
-17.300	0.005556
-17.295	0.005529
-17.290	0.005563
-17.285	0.005568
-17.280	0.005542
-17.275	0.005543
-17.270	0.005542
-17.265	0.005527
-17.260	0.005534
-17.255	0.005507
-17.250	0.005521
-17.245	0.005508
-17.240	0.005521
-17.235	0.005514
-17.230	0.005513
-17.225	0.005472
-17.220	0.005499
-17.215	0.005479
-17.210	0.005473
-17.205	0.005480
-17.200	0.005451
-17.195	0.005437
-17.190	0.005445
-17.185	0.005465
-17.180	0.005432
-17.175	0.005440
-17.170	0.005454
-17.165	0.005420
-17.160	0.005447
-17.155	0.005433
-17.150	0.005419
-17.145	0.005401
-17.140	0.005428
-17.135	0.005391
-17.130	0.005391
-17.125	0.005405
-17.120	0.005371
-17.115	0.005384
-17.110	0.005391
-17.105	0.005390
-17.100	0.005397
-17.095	0.005411
-17.090	0.005382
-17.085	0.005381
-17.080	0.005382
-17.075	0.005364
-17.070	0.005349
-17.065	0.005354
-17.060	0.005368
-17.055	0.005326
-17.050	0.005353
-17.045	0.005345
-17.040	0.005345
-17.035	0.005331
-17.030	0.005305
-17.025	0.005311
-17.020	0.005304
-17.015	0.005305
-17.010	0.005307
-17.005	0.005300
-17.000	0.005310
-16.995	0.005283
-16.990	0.005310
-16.985	0.005283
-16.980	0.005256
-16.975	0.005278
-16.970	0.005271
-16.965	0.005291
-16.960	0.005243
-16.955	0.005270
-16.950	0.005263
-16.945	0.005217
-16.940	0.005225
-16.935	0.005230
-16.930	0.005207
-16.925	0.005249
-16.920	0.005214
-16.915	0.005228
-16.910	0.005235
-16.905	0.005235
-16.900	0.005208
-16.895	0.005230
-16.890	0.005195
-16.885	0.005175
-16.880	0.005170
-16.875	0.005184
-16.870	0.005149
-16.865	0.005169
-16.860	0.005176
-16.855	0.005211
-16.850	0.005184
-16.845	0.005172
-16.840	0.005186
-16.835	0.005152
-16.830	0.005174
-16.825	0.005187
-16.820	0.005194
-16.815	0.005189
-16.810	0.005141
-16.805	0.005135
-16.800	0.005146
-16.795	0.005097
-16.790	0.005097
-16.785	0.005124
-16.780	0.005105
-16.775	0.005085
-16.770	0.005112
-16.765	0.005119
-16.760	0.005105
-16.755	0.005133
-16.750	0.005084
-16.745	0.005052
-16.740	0.005079
-16.735	0.005084
-16.730	0.005076
-16.725	0.005050
-16.720	0.005050
-16.715	0.005030
-16.710	0.005085
-16.705	0.005037
-16.700	0.005078
-16.695	0.005030
-16.690	0.005029
-16.685	0.005055
-16.680	0.005015
-16.675	0.004997
-16.670	0.004989
-16.665	0.005014
-16.660	0.005000
-16.655	0.004987
-16.650	0.005002
-16.645	0.005003
-16.640	0.004955
-16.635	0.004982
-16.630	0.005016
-16.625	0.004976
-16.620	0.004969
-16.615	0.004984
-16.610	0.004965
-16.605	0.004958
-16.600	0.004948
-16.595	0.004949
-16.590	0.004949
-16.585	0.004929
-16.580	0.004929
-16.575	0.004916
-16.570	0.004915
-16.565	0.004929
-16.560	0.004915
-16.555	0.004928
-16.550	0.004886
-16.545	0.004902
-16.540	0.004883
-16.535	0.004881
-16.530	0.004907
-16.525	0.004894
-16.520	0.004901
-16.515	0.004881
-16.510	0.004881
-16.505	0.004875
-16.500	0.004881
-16.495	0.004826
-16.490	0.004867
-16.485	0.004894
-16.480	0.004875
-16.475	0.004855
-16.470	0.004867
-16.465	0.004836
-16.460	0.004836
-16.455	0.004850
-16.450	0.004850
-16.445	0.004830
-16.440	0.004810
-16.435	0.004817
-16.430	0.004837
-16.425	0.004850
-16.420	0.004828
-16.415	0.004842
-16.410	0.004816
-16.405	0.004816
-16.400	0.004779
-16.395	0.004786
-16.390	0.004800
-16.385	0.004799
-16.380	0.004778
-16.375	0.004820
-16.370	0.004834
-16.365	0.004786
-16.360	0.004820
-16.355	0.004785
-16.350	0.004791
-16.345	0.004780
-16.340	0.004752
-16.335	0.004771
-16.330	0.004756
-16.325	0.004783
-16.320	0.004782
-16.315	0.004783
-16.310	0.004756
-16.305	0.004743
-16.300	0.004751
-16.295	0.004744
-16.290	0.004756
-16.285	0.004721
-16.280	0.004750
-16.275	0.004724
-16.270	0.004729
-16.265	0.004700
-16.260	0.004735
-16.255	0.004728
-16.250	0.004722
-16.245	0.004715
-16.240	0.004729
-16.235	0.004716
-16.230	0.004717
-16.225	0.004711
-16.220	0.004718
-16.215	0.004706
-16.210	0.004693
-16.205	0.004644
-16.200	0.004677
-16.195	0.004690
-16.190	0.004684
-16.185	0.004657
-16.180	0.004685
-16.175	0.004700
-16.170	0.004673
-16.165	0.004722
-16.160	0.004667
-16.155	0.004695
-16.150	0.004668
-16.145	0.004670
-16.140	0.004676
-16.135	0.004648
-16.130	0.004634
-16.125	0.004649
-16.120	0.004664
-16.115	0.004677
-16.110	0.004637
-16.105	0.004651
-16.100	0.004618
-16.095	0.004674
-16.090	0.004640
-16.085	0.004626
-16.080	0.004648
-16.075	0.004635
-16.070	0.004648
-16.065	0.004605
-16.060	0.004598
-16.055	0.004646
-16.050	0.004652
-16.045	0.004618
-16.040	0.004604
-16.035	0.004624
-16.030	0.004617
-16.025	0.004625
-16.020	0.004603
-16.015	0.004597
-16.010	0.004612
-16.005	0.004606
-16.000	0.004596
-15.995	0.004561
-15.990	0.004575
-15.985	0.004561
-15.980	0.004581
-15.975	0.004587
-15.970	0.004573
-15.965	0.004552
-15.960	0.004552
-15.955	0.004559
-15.950	0.004552
-15.945	0.004546
-15.940	0.004518
-15.935	0.004544
-15.930	0.004522
-15.925	0.004508
-15.920	0.004555
-15.915	0.004527
-15.910	0.004526
-15.905	0.004534
-15.900	0.004533
-15.895	0.004541
-15.890	0.004539
-15.885	0.004518
-15.880	0.004512
-15.875	0.004492
-15.870	0.004491
-15.865	0.004481
-15.860	0.004453
-15.855	0.004481
-15.850	0.004514
-15.845	0.004500
-15.840	0.004473
-15.835	0.004486
-15.830	0.004506
-15.825	0.004485
-15.820	0.004484
-15.815	0.004480
-15.810	0.004425
-15.805	0.004479
-15.800	0.004435
-15.795	0.004422
-15.790	0.004442
-15.785	0.004462
-15.780	0.004456
-15.775	0.004449
-15.770	0.004421
-15.765	0.004463
-15.760	0.004422
-15.755	0.004435
-15.750	0.004441
-15.745	0.004402
-15.740	0.004402
-15.735	0.004414
-15.730	0.004407
-15.725	0.004393
-15.720	0.004413
-15.715	0.004379
-15.710	0.004428
-15.705	0.004408
-15.700	0.004401
-15.695	0.004367
-15.690	0.004394
-15.685	0.004359
-15.680	0.004327
-15.675	0.004384
-15.670	0.004348
-15.665	0.004367
-15.660	0.004361
-15.655	0.004347
-15.650	0.004374
-15.645	0.004320
-15.640	0.004361
-15.635	0.004368
-15.630	0.004383
-15.625	0.004362
-15.620	0.004313
-15.615	0.004300
-15.610	0.004308
-15.605	0.004322
-15.600	0.004327
-15.595	0.004314
-15.590	0.004313
-15.585	0.004327
-15.580	0.004300
-15.575	0.004314
-15.570	0.004307
-15.565	0.004314
-15.560	0.004314
-15.555	0.004321
-15.550	0.004287
-15.545	0.004282
-15.540	0.004274
-15.535	0.004293
-15.530	0.004265
-15.525	0.004300
-15.520	0.004301
-15.515	0.004293
-15.510	0.004238
-15.505	0.004301
-15.500	0.004301
-15.495	0.004252
-15.490	0.004266
-15.485	0.004245
-15.480	0.004261
-15.475	0.004248
-15.470	0.004240
-15.465	0.004246
-15.460	0.004204
-15.455	0.004252
-15.450	0.004237
-15.445	0.004237
-15.440	0.004244
-15.435	0.004231
-15.430	0.004251
-15.425	0.004230
-15.420	0.004202
-15.415	0.004232
-15.410	0.004184
-15.405	0.004211
-15.400	0.004168
-15.395	0.004167
-15.390	0.004167
-15.385	0.004181
-15.380	0.004188
-15.375	0.004195
-15.370	0.004181
-15.365	0.004215
-15.360	0.004166
-15.355	0.004173
-15.350	0.004193
-15.345	0.004148
-15.340	0.004134
-15.335	0.004132
-15.330	0.004145
-15.325	0.004131
-15.320	0.004179
-15.315	0.004131
-15.310	0.004125
-15.305	0.004153
-15.300	0.004153
-15.295	0.004139
-15.290	0.004118
-15.285	0.004139
-15.280	0.004127
-15.275	0.004094
-15.270	0.004106
-15.265	0.004113
-15.260	0.004099
-15.255	0.004141
-15.250	0.004080
-15.245	0.004101
-15.240	0.004115
-15.235	0.004130
-15.230	0.004110
-15.225	0.004101
-15.220	0.004067
-15.215	0.004096
-15.210	0.004084
-15.205	0.004106
-15.200	0.004070
-15.195	0.004050
-15.190	0.004078
-15.185	0.004081
-15.180	0.004059
-15.175	0.004068
-15.170	0.004083
-15.165	0.004057
-15.160	0.004065
-15.155	0.004072
-15.150	0.004053
-15.145	0.004049
-15.140	0.004057
-15.135	0.004056
-15.130	0.004029
-15.125	0.004022
-15.120	0.004037
-15.115	0.004052
-15.110	0.004032
-15.105	0.004045
-15.100	0.004018
-15.095	0.004032
-15.090	0.004045
-15.085	0.004052
-15.080	0.004053
-15.075	0.004026
-15.070	0.004045
-15.065	0.004016
-15.060	0.004003
-15.055	0.004044
-15.050	0.004031
-15.045	0.004032
-15.040	0.004052
-15.035	0.004025
-15.030	0.004025
-15.025	0.004004
-15.020	0.004017
-15.015	0.004020
-15.010	0.004026
-15.005	0.004018
-15.000	0.003988
-14.995	0.003987
-14.990	0.004007
-14.985	0.003999
-14.980	0.004006
-14.975	0.004005
-14.970	0.004032
-14.965	0.004010
-14.960	0.004023
-14.955	0.004008
-14.950	0.004000
-14.945	0.003987
-14.940	0.003966
-14.935	0.003984
-14.930	0.003983
-14.925	0.003962
-14.920	0.004010
-14.915	0.003982
-14.910	0.003967
-14.905	0.003974
-14.900	0.004014
-14.895	0.003980
-14.890	0.003986
-14.885	0.003973
-14.880	0.003953
-14.875	0.003932
-14.870	0.003944
-14.865	0.003963
-14.860	0.003955
-14.855	0.003935
-14.850	0.003921
-14.845	0.003893
-14.840	0.003927
-14.835	0.003926
-14.830	0.003926
-14.825	0.003946
-14.820	0.003911
-14.815	0.003906
-14.810	0.003926
-14.805	0.003906
-14.800	0.003903
-14.795	0.003890
-14.790	0.003869
-14.785	0.003890
-14.780	0.003890
-14.775	0.003876
-14.770	0.003876
-14.765	0.003911
-14.760	0.003890
-14.755	0.003850
-14.750	0.003878
-14.745	0.003872
-14.740	0.003865
-14.735	0.003877
-14.730	0.003857
-14.725	0.003878
-14.720	0.003858
-14.715	0.003837
-14.710	0.003892
-14.705	0.003886
-14.700	0.003899
-14.695	0.003885
-14.690	0.003849
-14.685	0.003849
-14.680	0.003851
-14.675	0.003812
-14.670	0.003824
-14.665	0.003823
-14.660	0.003816
-14.655	0.003830
-14.650	0.003830
-14.645	0.003838
-14.640	0.003823
-14.635	0.003838
-14.630	0.003838
-14.625	0.003845
-14.620	0.003831
-14.615	0.003784
-14.610	0.003818
-14.605	0.003818
-14.600	0.003801
-14.595	0.003781
-14.590	0.003809
-14.585	0.003809
-14.580	0.003788
-14.575	0.003808
-14.570	0.003822
-14.565	0.003815
-14.560	0.003834
-14.555	0.003786
-14.550	0.003752
-14.545	0.003808
-14.540	0.003794
-14.535	0.003785
-14.530	0.003791
-14.525	0.003777
-14.520	0.003777
-14.515	0.003792
-14.510	0.003764
-14.505	0.003785
-14.500	0.003764
-14.495	0.003785
-14.490	0.003770
-14.485	0.003757
-14.480	0.003785
-14.475	0.003751
-14.470	0.003708
-14.465	0.003769
-14.460	0.003741
-14.455	0.003748
-14.450	0.003734
-14.445	0.003700
-14.440	0.003734
-14.435	0.003721
-14.430	0.003727
-14.425	0.003746
-14.420	0.003732
-14.415	0.003719
-14.410	0.003741
-14.405	0.003733
-14.400	0.003704
-14.395	0.003731
-14.390	0.003717
-14.385	0.003703
-14.380	0.003717
-14.375	0.003711
-14.370	0.003737
-14.365	0.003683
-14.360	0.003731
-14.355	0.003683
-14.350	0.003704
-14.345	0.003699
-14.340	0.003663
-14.335	0.003689
-14.330	0.003627
-14.325	0.003662
-14.320	0.003689
-14.315	0.003682
-14.310	0.003668
-14.305	0.003675
-14.300	0.003675
-14.295	0.003709
-14.290	0.003674
-14.285	0.003675
-14.280	0.003635
-14.275	0.003670
-14.270	0.003654
-14.265	0.003661
-14.260	0.003667
-14.255	0.003633
-14.250	0.003647
-14.245	0.003634
-14.240	0.003654
-14.235	0.003660
-14.230	0.003654
-14.225	0.003627
-14.220	0.003634
-14.215	0.003622
-14.210	0.003636
-14.205	0.003649
-14.200	0.003619
-14.195	0.003613
-14.190	0.003640
-14.185	0.003606
-14.180	0.003627
-14.175	0.003586
-14.170	0.003599
-14.165	0.003619
-14.160	0.003598
-14.155	0.003591
-14.150	0.003606
-14.145	0.003593
-14.140	0.003600
-14.135	0.003598
-14.130	0.003578
-14.125	0.003584
-14.120	0.003584
-14.115	0.003577
-14.110	0.003584
-14.105	0.003598
-14.100	0.003570
-14.095	0.003577
-14.090	0.003570
-14.085	0.003571
-14.080	0.003545
-14.075	0.003544
-14.070	0.003542
-14.065	0.003529
-14.060	0.003529
-14.055	0.003564
-14.050	0.003529
-14.045	0.003523
-14.040	0.003564
-14.035	0.003522
-14.030	0.003529
-14.025	0.003541
-14.020	0.003535
-14.015	0.003522
-14.010	0.003501
-14.005	0.003494
-14.000	0.003506
-13.995	0.003513
-13.990	0.003507
-13.985	0.003507
-13.980	0.003548
-13.975	0.003486
-13.970	0.003500
-13.965	0.003487
-13.960	0.003493
-13.955	0.003507
-13.950	0.003487
-13.945	0.003495
-13.940	0.003487
-13.935	0.003472
-13.930	0.003485
-13.925	0.003486
-13.920	0.003493
-13.915	0.003486
-13.910	0.003466
-13.905	0.003486
-13.900	0.003465
-13.895	0.003473
-13.890	0.003493
-13.885	0.003452
-13.880	0.003467
-13.875	0.003427
-13.870	0.003458
-13.865	0.003445
-13.860	0.003431
-13.855	0.003451
-13.850	0.003458
-13.845	0.003437
-13.840	0.003458
-13.835	0.003465
-13.830	0.003471
-13.825	0.003423
-13.820	0.003457
-13.815	0.003453
-13.810	0.003432
-13.805	0.003438
-13.800	0.003456
-13.795	0.003436
-13.790	0.003408
-13.785	0.003415
-13.780	0.003436
-13.775	0.003436
-13.770	0.003442
-13.765	0.003422
-13.760	0.003414
-13.755	0.003407
-13.750	0.003408
-13.745	0.003409
-13.740	0.003402
-13.735	0.003379
-13.730	0.003413
-13.725	0.003393
-13.720	0.003372
-13.715	0.003406
-13.710	0.003420
-13.705	0.003385
-13.700	0.003399
-13.695	0.003427
-13.690	0.003378
-13.685	0.003366
-13.680	0.003387
-13.675	0.003380
-13.670	0.003343
-13.665	0.003343
-13.660	0.003363
-13.655	0.003378
-13.650	0.003378
-13.645	0.003350
-13.640	0.003364
-13.635	0.003357
-13.630	0.003330
-13.625	0.003378
-13.620	0.003330
-13.615	0.003338
-13.610	0.003339
-13.605	0.003351
-13.600	0.003316
-13.595	0.003316
-13.590	0.003310
-13.585	0.003323
-13.580	0.003318
-13.575	0.003331
-13.570	0.003324
-13.565	0.003304
-13.560	0.003290
-13.555	0.003304
-13.550	0.003285
-13.545	0.003307
-13.540	0.003313
-13.535	0.003284
-13.530	0.003277
-13.525	0.003298
-13.520	0.003285
-13.515	0.003300
-13.510	0.003286
-13.505	0.003300
-13.500	0.003294
-13.495	0.003300
-13.490	0.003279
-13.485	0.003301
-13.480	0.003261
-13.475	0.003262
-13.470	0.003274
-13.465	0.003261
-13.460	0.003261
-13.455	0.003276
-13.450	0.003241
-13.445	0.003277
-13.440	0.003291
-13.435	0.003265
-13.430	0.003278
-13.425	0.003237
-13.420	0.003272
-13.415	0.003245
-13.410	0.003260
-13.405	0.003238
-13.400	0.003258
-13.395	0.003238
-13.390	0.003237
-13.385	0.003238
-13.380	0.003251
-13.375	0.003224
-13.370	0.003238
-13.365	0.003244
-13.360	0.003250
-13.355	0.003264
-13.350	0.003223
-13.345	0.003252
-13.340	0.003210
-13.335	0.003201
-13.330	0.003222
-13.325	0.003229
-13.320	0.003236
-13.315	0.003215
-13.310	0.003271
-13.305	0.003230
-13.300	0.003222
-13.295	0.003235
-13.290	0.003214
-13.285	0.003215
-13.280	0.003202
-13.275	0.003196
-13.270	0.003193
-13.265	0.003220
-13.260	0.003207
-13.255	0.003193
-13.250	0.003193
-13.245	0.003193
-13.240	0.003221
-13.235	0.003207
-13.230	0.003199
-13.225	0.003219
-13.220	0.003205
-13.215	0.003192
-13.210	0.003179
-13.205	0.003178
-13.200	0.003170
-13.195	0.003197
-13.190	0.003176
-13.185	0.003170
-13.180	0.003169
-13.175	0.003169
-13.170	0.003182
-13.165	0.003169
-13.160	0.003176
-13.155	0.003169
-13.150	0.003128
-13.145	0.003157
-13.140	0.003149
-13.135	0.003161
-13.130	0.003140
-13.125	0.003141
-13.120	0.003155
-13.115	0.003141
-13.110	0.003154
-13.105	0.003148
-13.100	0.003141
-13.095	0.003134
-13.090	0.003106
-13.085	0.003134
-13.080	0.003128
-13.075	0.003115
-13.070	0.003092
-13.065	0.003106
-13.060	0.003092
-13.055	0.003119
-13.050	0.003105
-13.045	0.003134
-13.040	0.003107
-13.035	0.003107
-13.030	0.003107
-13.025	0.003115
-13.020	0.003122
-13.015	0.003103
-13.010	0.003089
-13.005	0.003088
-13.000	0.003087
-12.995	0.003073
-12.990	0.003066
-12.985	0.003032
-12.980	0.003073
-12.975	0.003073
-12.970	0.003087
-12.965	0.003080
-12.960	0.003080
-12.955	0.003073
-12.950	0.003088
-12.945	0.003068
-12.940	0.003060
-12.935	0.003045
-12.930	0.003045
-12.925	0.003038
-12.920	0.003065
-12.915	0.003045
-12.910	0.003059
-12.905	0.003059
-12.900	0.003059
-12.895	0.003039
-12.890	0.003066
-12.885	0.003046
-12.880	0.003054
-12.875	0.003061
-12.870	0.003038
-12.865	0.003051
-12.860	0.003031
-12.855	0.003038
-12.850	0.003017
-12.845	0.003017
-12.840	0.003017
-12.835	0.003051
-12.830	0.002975
-12.825	0.003065
-12.820	0.003030
-12.815	0.003017
-12.810	0.003004
-12.805	0.002975
-12.800	0.003001
-12.795	0.003008
-12.790	0.003021
-12.785	0.002974
-12.780	0.003001
-12.775	0.003022
-12.770	0.003001
-12.765	0.003001
-12.760	0.002987
-12.755	0.002987
-12.750	0.002995
-12.745	0.002989
-12.740	0.002960
-12.735	0.002987
-12.730	0.003007
-12.725	0.002987
-12.720	0.002966
-12.715	0.002967
-12.710	0.002967
-12.705	0.002987
-12.700	0.002980
-12.695	0.002979
-12.690	0.002972
-12.685	0.002945
-12.680	0.002960
-12.675	0.002960
-12.670	0.002965
-12.665	0.002971
-12.660	0.002909
-12.655	0.002958
-12.650	0.002971
-12.645	0.002937
-12.640	0.002936
-12.635	0.002971
-12.630	0.002964
-12.625	0.002943
-12.620	0.002944
-12.615	0.002987
-12.610	0.002945
-12.605	0.002951
-12.600	0.002915
-12.595	0.002950
-12.590	0.002943
-12.585	0.002950
-12.580	0.002909
-12.575	0.002957
-12.570	0.002950
-12.565	0.002943
-12.560	0.002908
-12.555	0.002908
-12.550	0.002909
-12.545	0.002944
-12.540	0.002902
-12.535	0.002922
-12.530	0.002915
-12.525	0.002901
-12.520	0.002928
-12.515	0.002935
-12.510	0.002908
-12.505	0.002936
-12.500	0.002922
-12.495	0.002942
-12.490	0.002880
-12.485	0.002916
-12.480	0.002896
-12.475	0.002903
-12.470	0.002880
-12.465	0.002895
-12.460	0.002880
-12.455	0.002915
-12.450	0.002887
-12.445	0.002894
-12.440	0.002888
-12.435	0.002902
-12.430	0.002873
-12.425	0.002873
-12.420	0.002873
-12.415	0.002853
-12.410	0.002854
-12.405	0.002859
-12.400	0.002872
-12.395	0.002838
-12.390	0.002852
-12.385	0.002865
-12.380	0.002845
-12.375	0.002873
-12.370	0.002865
-12.365	0.002865
-12.360	0.002872
-12.355	0.002845
-12.350	0.002846
-12.345	0.002826
-12.340	0.002818
-12.335	0.002851
-12.330	0.002838
-12.325	0.002817
-12.320	0.002864
-12.315	0.002858
-12.310	0.002830
-12.305	0.002837
-12.300	0.002830
-12.295	0.002857
-12.290	0.002836
-12.285	0.002830
-12.280	0.002817
-12.275	0.002817
-12.270	0.002794
-12.265	0.002815
-12.260	0.002815
-12.255	0.002822
-12.250	0.002801
-12.245	0.002821
-12.240	0.002835
-12.235	0.002801
-12.230	0.002808
-12.225	0.002801
-12.220	0.002822
-12.215	0.002775
-12.210	0.002774
-12.205	0.002794
-12.200	0.002800
-12.195	0.002780
-12.190	0.002779
-12.185	0.002779
-12.180	0.002772
-12.175	0.002765
-12.170	0.002793
-12.165	0.002758
-12.160	0.002799
-12.155	0.002771
-12.150	0.002745
-12.145	0.002780
-12.140	0.002779
-12.135	0.002757
-12.130	0.002756
-12.125	0.002750
-12.120	0.002763
-12.115	0.002743
-12.110	0.002763
-12.105	0.002777
-12.100	0.002763
-12.095	0.002756
-12.090	0.002769
-12.085	0.002750
-12.080	0.002751
-12.075	0.002736
-12.070	0.002755
-12.065	0.002748
-12.060	0.002769
-12.055	0.002748
-12.050	0.002748
-12.045	0.002721
-12.040	0.002714
-12.035	0.002714
-12.030	0.002755
-12.025	0.002706
-12.020	0.002748
-12.015	0.002714
-12.010	0.002708
-12.005	0.002740
-12.000	0.002719
-11.995	0.002719
-11.990	0.002733
-11.985	0.002712
-11.980	0.002712
-11.975	0.002719
-11.970	0.002740
-11.965	0.002712
-11.960	0.002712
-11.955	0.002699
-11.950	0.002714
-11.945	0.002680
-11.940	0.002686
-11.935	0.002678
-11.930	0.002705
-11.925	0.002706
-11.920	0.002685
-11.915	0.002672
-11.910	0.002705
-11.905	0.002712
-11.900	0.002671
-11.895	0.002705
-11.890	0.002725
-11.885	0.002685
-11.880	0.002706
-11.875	0.002651
-11.870	0.002663
-11.865	0.002663
-11.860	0.002656
-11.855	0.002669
-11.850	0.002683
-11.845	0.002656
-11.840	0.002684
-11.835	0.002690
-11.830	0.002684
-11.825	0.002663
-11.820	0.002691
-11.815	0.002685
-11.810	0.002672
-11.805	0.002684
-11.800	0.002670
-11.795	0.002670
-11.790	0.002664
-11.785	0.002670
-11.780	0.002649
-11.775	0.002670
-11.770	0.002635
-11.765	0.002650
-11.760	0.002663
-11.755	0.002622
-11.750	0.002644
-11.745	0.002631
-11.740	0.002616
-11.735	0.002636
-11.730	0.002608
-11.725	0.002636
-11.720	0.002630
-11.715	0.002602
-11.710	0.002616
-11.705	0.002636
-11.700	0.002629
-11.695	0.002609
-11.690	0.002636
-11.685	0.002604
-11.680	0.002597
-11.675	0.002610
-11.670	0.002629
-11.665	0.002623
-11.660	0.002595
-11.655	0.002602
-11.650	0.002595
-11.645	0.002630
-11.640	0.002623
-11.635	0.002616
-11.630	0.002623
-11.625	0.002609
-11.620	0.002616
-11.615	0.002583
-11.610	0.002583
-11.605	0.002547
-11.600	0.002595
-11.595	0.002575
-11.590	0.002608
-11.585	0.002595
-11.580	0.002609
-11.575	0.002602
-11.570	0.002588
-11.565	0.002568
-11.560	0.002588
-11.555	0.002541
-11.550	0.002556
-11.545	0.002570
-11.540	0.002562
-11.535	0.002562
-11.530	0.002582
-11.525	0.002576
-11.520	0.002555
-11.515	0.002583
-11.510	0.002521
-11.505	0.002590
-11.500	0.002528
-11.495	0.002583
-11.490	0.002521
-11.485	0.002556
-11.480	0.002536
-11.475	0.002542
-11.470	0.002527
-11.465	0.002534
-11.460	0.002548
-11.455	0.002548
-11.450	0.002527
-11.445	0.002548
-11.440	0.002535
-11.435	0.002535
-11.430	0.002542
-11.425	0.002521
-11.420	0.002515
-11.415	0.002556
-11.410	0.002508
-11.405	0.002527
-11.400	0.002513
-11.395	0.002527
-11.390	0.002527
-11.385	0.002528
-11.380	0.002541
-11.375	0.002541
-11.370	0.002500
-11.365	0.002513
-11.360	0.002520
-11.355	0.002534
-11.350	0.002513
-11.345	0.002542
-11.340	0.002499
-11.335	0.002506
-11.330	0.002492
-11.325	0.002486
-11.320	0.002520
-11.315	0.002492
-11.310	0.002513
-11.305	0.002472
-11.300	0.002492
-11.295	0.002485
-11.290	0.002471
-11.285	0.002493
-11.280	0.002508
-11.275	0.002486
-11.270	0.002492
-11.265	0.002444
-11.260	0.002471
-11.255	0.002452
-11.250	0.002486
-11.245	0.002479
-11.240	0.002485
-11.235	0.002472
-11.230	0.002471
-11.225	0.002471
-11.220	0.002492
-11.215	0.002459
-11.210	0.002452
-11.205	0.002451
-11.200	0.002478
-11.195	0.002471
-11.190	0.002443
-11.185	0.002443
-11.180	0.002429
-11.175	0.002430
-11.170	0.002450
-11.165	0.002423
-11.160	0.002471
-11.155	0.002451
-11.150	0.002404
-11.145	0.002432
-11.140	0.002444
-11.135	0.002450
-11.130	0.002436
-11.125	0.002450
-11.120	0.002409
-11.115	0.002403
-11.110	0.002450
-11.105	0.002402
-11.100	0.002430
-11.095	0.002436
-11.090	0.002408
-11.085	0.002382
-11.080	0.002410
-11.075	0.002403
-11.070	0.002388
-11.065	0.002368
-11.060	0.002422
-11.055	0.002402
-11.050	0.002436
-11.045	0.002416
-11.040	0.002402
-11.035	0.002395
-11.030	0.002415
-11.025	0.002436
-11.020	0.002395
-11.015	0.002383
-11.010	0.002396
-11.005	0.002394
-11.000	0.002360
-10.995	0.002381
-10.990	0.002388
-10.985	0.002374
-10.980	0.002381
-10.975	0.002367
-10.970	0.002374
-10.965	0.002387
-10.960	0.002359
-10.955	0.002387
-10.950	0.002375
-10.945	0.002381
-10.940	0.002359
-10.935	0.002352
-10.930	0.002379
-10.925	0.002352
-10.920	0.002365
-10.915	0.002379
-10.910	0.002365
-10.905	0.002358
-10.900	0.002338
-10.895	0.002345
-10.890	0.002351
-10.885	0.002352
-10.880	0.002339
-10.875	0.002372
-10.870	0.002330
-10.865	0.002344
-10.860	0.002344
-10.855	0.002344
-10.850	0.002351
-10.845	0.002323
-10.840	0.002336
-10.835	0.002344
-10.830	0.002336
-10.825	0.002329
-10.820	0.002350
-10.815	0.002364
-10.810	0.002337
-10.805	0.002315
-10.800	0.002315
-10.795	0.002301
-10.790	0.002321
-10.785	0.002349
-10.780	0.002335
-10.775	0.002328
-10.770	0.002335
-10.765	0.002328
-10.760	0.002328
-10.755	0.002315
-10.750	0.002302
-10.745	0.002316
-10.740	0.002287
-10.735	0.002294
-10.730	0.002286
-10.725	0.002342
-10.720	0.002287
-10.715	0.002335
-10.710	0.002280
-10.705	0.002301
-10.700	0.002272
-10.695	0.002306
-10.690	0.002293
-10.685	0.002280
-10.680	0.002247
-10.675	0.002294
-10.670	0.002259
-10.665	0.002279
-10.660	0.002265
-10.655	0.002239
-10.650	0.002245
-10.645	0.002259
-10.640	0.002273
-10.635	0.002280
-10.630	0.002279
-10.625	0.002252
-10.620	0.002288
-10.615	0.002261
-10.610	0.002268
-10.605	0.002238
-10.600	0.002246
-10.595	0.002266
-10.590	0.002239
-10.585	0.002253
-10.580	0.002253
-10.575	0.002253
-10.570	0.002253
-10.565	0.002253
-10.560	0.002232
-10.555	0.002254
-10.550	0.002213
-10.545	0.002242
-10.540	0.002213
-10.535	0.002233
-10.530	0.002246
-10.525	0.002240
-10.520	0.002260
-10.515	0.002240
-10.510	0.002254
-10.505	0.002255
-10.500	0.002206
-10.495	0.002240
-10.490	0.002241
-10.485	0.002242
-10.480	0.002187
-10.475	0.002193
-10.470	0.002219
-10.465	0.002192
-10.460	0.002205
-10.455	0.002212
-10.450	0.002212
-10.445	0.002240
-10.440	0.002212
-10.435	0.002247
-10.430	0.002205
-10.425	0.002233
-10.420	0.002213
-10.415	0.002227
-10.410	0.002206
-10.405	0.002157
-10.400	0.002218
-10.395	0.002211
-10.390	0.002191
-10.385	0.002177
-10.380	0.002198
-10.375	0.002205
-10.370	0.002198
-10.365	0.002198
-10.360	0.002226
-10.355	0.002192
-10.350	0.002179
-10.345	0.002193
-10.340	0.002164
-10.335	0.002184
-10.330	0.002205
-10.325	0.002157
-10.320	0.002171
-10.315	0.002178
-10.310	0.002184
-10.305	0.002164
-10.300	0.002191
-10.295	0.002177
-10.290	0.002155
-10.285	0.002170
-10.280	0.002157
-10.275	0.002163
-10.270	0.002190
-10.265	0.002162
-10.260	0.002127
-10.255	0.002148
-10.250	0.002162
-10.245	0.002183
-10.240	0.002135
-10.235	0.002162
-10.230	0.002128
-10.225	0.002141
-10.220	0.002115
-10.215	0.002123
-10.210	0.002129
-10.205	0.002114
-10.200	0.002114
-10.195	0.002141
-10.190	0.002108
-10.185	0.002155
-10.180	0.002128
-10.175	0.002162
-10.170	0.002128
-10.165	0.002114
-10.160	0.002113
-10.155	0.002113
-10.150	0.002142
-10.145	0.002101
-10.140	0.002107
-10.135	0.002140
-10.130	0.002120
-10.125	0.002113
-10.120	0.002106
-10.115	0.002106
-10.110	0.002133
-10.105	0.002106
-10.100	0.002154
-10.095	0.002099
-10.090	0.002107
-10.085	0.002080
-10.080	0.002107
-10.075	0.002107
-10.070	0.002065
-10.065	0.002106
-10.060	0.002100
-10.055	0.002086
-10.050	0.002106
-10.045	0.002106
-10.040	0.002126
-10.035	0.002120
-10.030	0.002092
-10.025	0.002099
-10.020	0.002092
-10.015	0.002086
-10.010	0.002099
-10.005	0.002071
-10.000	0.002098
-9.995	0.002085
-9.990	0.002064
-9.985	0.002105
-9.980	0.002105
-9.975	0.002085
-9.970	0.002044
-9.965	0.002092
-9.960	0.002071
-9.955	0.002107
-9.950	0.002073
-9.945	0.002073
-9.940	0.002092
-9.935	0.002071
-9.930	0.002064
-9.925	0.002078
-9.920	0.002078
-9.915	0.002079
-9.910	0.002078
-9.905	0.002092
-9.900	0.002085
-9.895	0.002085
-9.890	0.002092
-9.885	0.002066
-9.880	0.002080
-9.875	0.002072
-9.870	0.002050
-9.865	0.002071
-9.860	0.002064
-9.855	0.002071
-9.850	0.002050
-9.845	0.002037
-9.840	0.002038
-9.835	0.002065
-9.830	0.002023
-9.825	0.002037
-9.820	0.002017
-9.815	0.002066
-9.810	0.002017
-9.805	0.002078
-9.800	0.002030
-9.795	0.002023
-9.790	0.002009
-9.785	0.002037
-9.780	0.002051
-9.775	0.002071
-9.770	0.002016
-9.765	0.002050
-9.760	0.002043
-9.755	0.002009
-9.750	0.002038
-9.745	0.002004
-9.740	0.002009
-9.735	0.002009
-9.730	0.002022
-9.725	0.001995
-9.720	0.001988
-9.715	0.002002
-9.710	0.002023
-9.705	0.002029
-9.700	0.002009
-9.695	0.002036
-9.690	0.001995
-9.685	0.002017
-9.680	0.001996
-9.675	0.001997
-9.670	0.002010
-9.665	0.001982
-9.660	0.001976
-9.655	0.001989
-9.650	0.002010
-9.645	0.002017
-9.640	0.001996
-9.635	0.002024
-9.630	0.001983
-9.625	0.002005
-9.620	0.001977
-9.615	0.001962
-9.610	0.001975
-9.605	0.001996
-9.600	0.001969
-9.595	0.001969
-9.590	0.001996
-9.585	0.001962
-9.580	0.001969
-9.575	0.001976
-9.570	0.001969
-9.565	0.001934
-9.560	0.001928
-9.555	0.001929
-9.550	0.001894
-9.545	0.001879
-9.540	0.001879
-9.535	0.001811
-9.530	0.001673
-9.525	0.001426
-9.520	0.000974
-9.515	0.000357
-9.510	-0.000603
-9.505	-0.001941
-9.500	-0.003637
-9.495	-0.005852
-9.490	-0.008509
-9.485	-0.011451
-9.480	-0.014797
-9.475	-0.018372
-9.470	-0.022354
-9.465	-0.026620
-9.460	-0.031011
-9.455	-0.035441
-9.450	-0.039764
-9.445	-0.043818
-9.440	-0.047677
-9.435	-0.051111
-9.430	-0.053311
-9.425	-0.053341
-9.420	-0.051055
-9.415	-0.047267
-9.410	-0.043075
-9.405	-0.039156
-9.400	-0.035806
-9.395	-0.033115
-9.390	-0.031019
-9.385	-0.029318
-9.380	-0.027918
-9.375	-0.026714
-9.370	-0.025667
-9.365	-0.024753
-9.360	-0.023961
-9.355	-0.023239
-9.350	-0.022560
-9.345	-0.021988
-9.340	-0.021515
-9.335	-0.021064
-9.330	-0.020582
-9.325	-0.020154
-9.320	-0.019725
-9.315	-0.019301
-9.310	-0.018927
-9.305	-0.018589
-9.300	-0.018205
-9.295	-0.017878
-9.290	-0.017546
-9.285	-0.017238
-9.280	-0.016935
-9.275	-0.016623
-9.270	-0.016384
-9.265	-0.016104
-9.260	-0.015840
-9.255	-0.015550
-9.250	-0.015322
-9.245	-0.015077
-9.240	-0.014859
-9.235	-0.014644
-9.230	-0.014428
-9.225	-0.014239
-9.220	-0.014045
-9.215	-0.013831
-9.210	-0.013618
-9.205	-0.013457
-9.200	-0.013201
-9.195	-0.012739
-9.190	-0.012198
-9.185	-0.010565
-9.180	-0.009018
-9.175	-0.007672
-9.170	-0.007800
-9.165	-0.009298
-9.160	-0.010697
-9.155	-0.011475
-9.150	-0.011755
-9.145	-0.011719
-9.140	-0.011596
-9.135	-0.011473
-9.130	-0.011325
-9.125	-0.011246
-9.120	-0.011114
-9.115	-0.011029
-9.110	-0.010941
-9.105	-0.010820
-9.100	-0.010689
-9.095	-0.010643
-9.090	-0.010526
-9.085	-0.010455
-9.080	-0.010326
-9.075	-0.010229
-9.070	-0.010174
-9.065	-0.010092
-9.060	-0.009962
-9.055	-0.009865
-9.050	-0.009783
-9.045	-0.009721
-9.040	-0.009616
-9.035	-0.009553
-9.030	-0.009492
-9.025	-0.009403
-9.020	-0.009301
-9.015	-0.009236
-9.010	-0.009173
-9.005	-0.009109
-9.000	-0.009046
-8.995	-0.008985
-8.990	-0.008881
-8.985	-0.008785
-8.980	-0.008757
-8.975	-0.008702
-8.970	-0.008654
-8.965	-0.008606
-8.960	-0.008499
-8.955	-0.008458
-8.950	-0.008415
-8.945	-0.008372
-8.940	-0.008323
-8.935	-0.008233
-8.930	-0.008192
-8.925	-0.008104
-8.920	-0.008057
-8.915	-0.008002
-8.910	-0.007960
-8.905	-0.007932
-8.900	-0.007843
-8.895	-0.007589
-8.890	-0.007293
-8.885	-0.007647
-8.880	-0.008025
-8.875	-0.007731
-8.870	-0.007606
-8.865	-0.007489
-8.860	-0.007482
-8.855	-0.007428
-8.850	-0.007373
-8.845	-0.007324
-8.840	-0.007275
-8.835	-0.007249
-8.830	-0.007215
-8.825	-0.007188
-8.820	-0.007160
-8.815	-0.007075
-8.810	-0.007061
-8.805	-0.007000
-8.800	-0.006987
-8.795	-0.006939
-8.790	-0.006917
-8.785	-0.006882
-8.780	-0.006827
-8.775	-0.006813
-8.770	-0.006765
-8.765	-0.006702
-8.760	-0.006724
-8.755	-0.006643
-8.750	-0.006642
-8.745	-0.006608
-8.740	-0.006546
-8.735	-0.006497
-8.730	-0.006476
-8.725	-0.006449
-8.720	-0.006428
-8.715	-0.006387
-8.710	-0.006318
-8.705	-0.006297
-8.700	-0.006283
-8.695	-0.006229
-8.690	-0.006216
-8.685	-0.006148
-8.680	-0.006160
-8.675	-0.006112
-8.670	-0.006050
-8.665	-0.006043
-8.660	-0.006008
-8.655	-0.005975
-8.650	-0.005947
-8.645	-0.005899
-8.640	-0.005857
-8.635	-0.005877
-8.630	-0.005809
-8.625	-0.005768
-8.620	-0.005796
-8.615	-0.005733
-8.610	-0.005732
-8.605	-0.005692
-8.600	-0.005664
-8.595	-0.005630
-8.590	-0.005609
-8.585	-0.005576
-8.580	-0.005541
-8.575	-0.005521
-8.570	-0.005507
-8.565	-0.005472
-8.560	-0.005432
-8.555	-0.005405
-8.550	-0.005418
-8.545	-0.005355
-8.540	-0.005369
-8.535	-0.005341
-8.530	-0.005314
-8.525	-0.005293
-8.520	-0.005259
-8.515	-0.005190
-8.510	-0.005211
-8.505	-0.005190
-8.500	-0.005156
-8.495	-0.005115
-8.490	-0.005116
-8.485	-0.005082
-8.480	-0.005094
-8.475	-0.005080
-8.470	-0.005039
-8.465	-0.005018
-8.460	-0.004977
-8.455	-0.004970
-8.450	-0.004950
-8.445	-0.004895
-8.440	-0.004909
-8.435	-0.004888
-8.430	-0.004909
-8.425	-0.004862
-8.420	-0.004861
-8.415	-0.004840
-8.410	-0.004819
-8.405	-0.004786
-8.400	-0.004772
-8.395	-0.004738
-8.390	-0.004717
-8.385	-0.004697
-8.380	-0.004669
-8.375	-0.004669
-8.370	-0.004621
-8.365	-0.004642
-8.360	-0.004615
-8.355	-0.004622
-8.350	-0.004588
-8.345	-0.004574
-8.340	-0.004560
-8.335	-0.004560
-8.330	-0.004512
-8.325	-0.004484
-8.320	-0.004436
-8.315	-0.004457
-8.310	-0.004450
-8.305	-0.004422
-8.300	-0.004429
-8.295	-0.004409
-8.290	-0.004396
-8.285	-0.004348
-8.280	-0.004340
-8.275	-0.004305
-8.270	-0.004333
-8.265	-0.004285
-8.260	-0.004279
-8.255	-0.004265
-8.250	-0.004238
-8.245	-0.004230
-8.240	-0.004217
-8.235	-0.004203
-8.230	-0.004176
-8.225	-0.004156
-8.220	-0.004149
-8.215	-0.004141
-8.210	-0.004114
-8.205	-0.004114
-8.200	-0.004107
-8.195	-0.004073
-8.190	-0.004066
-8.185	-0.004059
-8.180	-0.004019
-8.175	-0.004025
-8.170	-0.004005
-8.165	-0.003964
-8.160	-0.003951
-8.155	-0.003930
-8.150	-0.003971
-8.145	-0.003923
-8.140	-0.003943
-8.135	-0.003916
-8.130	-0.003895
-8.125	-0.003875
-8.120	-0.003840
-8.115	-0.003848
-8.110	-0.003854
-8.105	-0.003834
-8.100	-0.003806
-8.095	-0.003779
-8.090	-0.003814
-8.085	-0.003780
-8.080	-0.003779
-8.075	-0.003725
-8.070	-0.003738
-8.065	-0.003745
-8.060	-0.003731
-8.055	-0.003725
-8.050	-0.003690
-8.045	-0.003643
-8.040	-0.003656
-8.035	-0.003663
-8.030	-0.003670
-8.025	-0.003630
-8.020	-0.003643
-8.015	-0.003601
-8.010	-0.003622
-8.005	-0.003629
-8.000	-0.003595
-7.995	-0.003574
-7.990	-0.003547
-7.985	-0.003547
-7.980	-0.003513
-7.975	-0.003520
-7.970	-0.003492
-7.965	-0.003506
-7.960	-0.003499
-7.955	-0.003459
-7.950	-0.003465
-7.945	-0.003465
-7.940	-0.003486
-7.935	-0.003437
-7.930	-0.003465
-7.925	-0.003417
-7.920	-0.003417
-7.915	-0.003403
-7.910	-0.003390
-7.905	-0.003390
-7.900	-0.003410
-7.895	-0.003356
-7.890	-0.003363
-7.885	-0.003356
-7.880	-0.003342
-7.875	-0.003362
-7.870	-0.003362
-7.865	-0.003308
-7.860	-0.003308
-7.855	-0.003294
-7.850	-0.003294
-7.845	-0.003308
-7.840	-0.003239
-7.835	-0.003239
-7.830	-0.003246
-7.825	-0.003246
-7.820	-0.003253
-7.815	-0.003253
-7.810	-0.003232
-7.805	-0.003205
-7.800	-0.003212
-7.795	-0.003198
-7.790	-0.003184
-7.785	-0.003171
-7.780	-0.003143
-7.775	-0.003136
-7.770	-0.003123
-7.765	-0.003130
-7.760	-0.003130
-7.755	-0.003116
-7.750	-0.003129
-7.745	-0.003109
-7.740	-0.003054
-7.735	-0.003095
-7.730	-0.003095
-7.725	-0.003068
-7.720	-0.003020
-7.715	-0.003041
-7.710	-0.003040
-7.705	-0.003027
-7.700	-0.003033
-7.695	-0.003041
-7.690	-0.003013
-7.685	-0.003000
-7.680	-0.003013
-7.675	-0.002992
-7.670	-0.002979
-7.665	-0.002979
-7.660	-0.002958
-7.655	-0.002965
-7.650	-0.002979
-7.645	-0.002938
-7.640	-0.002938
-7.635	-0.002979
-7.630	-0.002952
-7.625	-0.002938
-7.620	-0.002918
-7.615	-0.002924
-7.610	-0.002904
-7.605	-0.002910
-7.600	-0.002876
-7.595	-0.002883
-7.590	-0.002863
-7.585	-0.002808
-7.580	-0.002815
-7.575	-0.002815
-7.570	-0.002801
-7.565	-0.002794
-7.560	-0.002788
-7.555	-0.002795
-7.550	-0.002760
-7.545	-0.002767
-7.540	-0.002746
-7.535	-0.002740
-7.530	-0.002726
-7.525	-0.002712
-7.520	-0.002692
-7.515	-0.002692
-7.510	-0.002698
-7.505	-0.002657
-7.500	-0.002664
-7.495	-0.002637
-7.490	-0.002665
-7.485	-0.002678
-7.480	-0.002657
-7.475	-0.002644
-7.470	-0.002637
-7.465	-0.002630
-7.460	-0.002637
-7.455	-0.002644
-7.450	-0.002616
-7.445	-0.002630
-7.440	-0.002616
-7.435	-0.002568
-7.430	-0.002623
-7.425	-0.002610
-7.420	-0.002617
-7.415	-0.002603
-7.410	-0.002623
-7.405	-0.002610
-7.400	-0.002596
-7.395	-0.002589
-7.390	-0.002575
-7.385	-0.002548
-7.380	-0.002555
-7.375	-0.002555
-7.370	-0.002528
-7.365	-0.002535
-7.360	-0.002535
-7.355	-0.002528
-7.350	-0.002514
-7.345	-0.002541
-7.340	-0.002521
-7.335	-0.002528
-7.330	-0.002528
-7.325	-0.002521
-7.320	-0.002514
-7.315	-0.002494
-7.310	-0.002500
-7.305	-0.002473
-7.300	-0.002487
-7.295	-0.002487
-7.290	-0.002480
-7.285	-0.002487
-7.280	-0.002473
-7.275	-0.002473
-7.270	-0.002487
-7.265	-0.002446
-7.260	-0.002425
-7.255	-0.002418
-7.250	-0.002411
-7.245	-0.002411
-7.240	-0.002370
-7.235	-0.002384
-7.230	-0.002391
-7.225	-0.002377
-7.220	-0.002364
-7.215	-0.002343
-7.210	-0.002309
-7.205	-0.002322
-7.200	-0.002329
-7.195	-0.002295
-7.190	-0.002316
-7.185	-0.002309
-7.180	-0.002288
-7.175	-0.002295
-7.170	-0.002288
-7.165	-0.002288
-7.160	-0.002288
-7.155	-0.002302
-7.150	-0.002275
-7.145	-0.002240
-7.140	-0.002261
-7.135	-0.002254
-7.130	-0.002268
-7.125	-0.002213
-7.120	-0.002220
-7.115	-0.002234
-7.110	-0.002240
-7.105	-0.002220
-7.100	-0.002186
-7.095	-0.002193
-7.090	-0.002200
-7.085	-0.002227
-7.080	-0.002186
-7.075	-0.002193
-7.070	-0.002179
-7.065	-0.002200
-7.060	-0.002165
-7.055	-0.002158
-7.050	-0.002165
-7.045	-0.002158
-7.040	-0.002145
-7.035	-0.002152
-7.030	-0.002138
-7.025	-0.002159
-7.020	-0.002159
-7.015	-0.002172
-7.010	-0.002145
-7.005	-0.002131
-7.000	-0.002131
-6.995	-0.002097
-6.990	-0.002090
-6.985	-0.002090
-6.980	-0.002083
-6.975	-0.002083
-6.970	-0.002090
-6.965	-0.002090
-6.960	-0.002070
-6.955	-0.002091
-6.950	-0.002070
-6.945	-0.002077
-6.940	-0.002097
-6.935	-0.002091
-6.930	-0.002077
-6.925	-0.002063
-6.920	-0.002097
-6.915	-0.002043
-6.910	-0.002077
-6.905	-0.002022
-6.900	-0.002077
-6.895	-0.002036
-6.890	-0.002043
-6.885	-0.002057
-6.880	-0.002043
-6.875	-0.002043
-6.870	-0.002043
-6.865	-0.002043
-6.860	-0.002029
-6.855	-0.002036
-6.850	-0.002036
-6.845	-0.002002
-6.840	-0.002050
-6.835	-0.002009
-6.830	-0.002057
-6.825	-0.002036
-6.820	-0.002030
-6.815	-0.002077
-6.810	-0.002064
-6.805	-0.002071
-6.800	-0.002030
-6.795	-0.002078
-6.790	-0.002071
-6.785	-0.002057
-6.780	-0.002057
-6.775	-0.002030
-6.770	-0.002050
-6.765	-0.002016
-6.760	-0.002071
-6.755	-0.002044
-6.750	-0.002071
-6.745	-0.002023
-6.740	-0.002064
-6.735	-0.002037
-6.730	-0.002016
-6.725	-0.002016
-6.720	-0.002010
-6.715	-0.002003
-6.710	-0.001996
-6.705	-0.002030
-6.700	-0.001982
-6.695	-0.001982
-6.690	-0.002017
-6.685	-0.001996
-6.680	-0.001962
-6.675	-0.001962
-6.670	-0.001976
-6.665	-0.001935
-6.660	-0.001921
-6.655	-0.001928
-6.650	-0.001928
-6.645	-0.001908
-6.640	-0.001915
-6.635	-0.001942
-6.630	-0.001915
-6.625	-0.001839
-6.620	-0.001867
-6.615	-0.001867
-6.610	-0.001901
-6.605	-0.001853
-6.600	-0.001770
-6.595	-0.001763
-6.590	-0.001791
-6.585	-0.001860
-6.580	-0.001839
-6.575	-0.001784
-6.570	-0.001819
-6.565	-0.001826
-6.560	-0.001832
-6.555	-0.001819
-6.550	-0.001839
-6.545	-0.001839
-6.540	-0.001819
-6.535	-0.001839
-6.530	-0.001805
-6.525	-0.001798
-6.520	-0.001812
-6.515	-0.001805
-6.510	-0.001812
-6.505	-0.001805
-6.500	-0.001798
-6.495	-0.001778
-6.490	-0.001819
-6.485	-0.001791
-6.480	-0.001812
-6.475	-0.001771
-6.470	-0.001750
-6.465	-0.001771
-6.460	-0.001771
-6.455	-0.001743
-6.450	-0.001744
-6.445	-0.001757
-6.440	-0.001757
-6.435	-0.001744
-6.430	-0.001778
-6.425	-0.001737
-6.420	-0.001778
-6.415	-0.001737
-6.410	-0.001785
-6.405	-0.001771
-6.400	-0.001751
-6.395	-0.001744
-6.390	-0.001744
-6.385	-0.001744
-6.380	-0.001710
-6.375	-0.001751
-6.370	-0.001737
-6.365	-0.001751
-6.360	-0.001730
-6.355	-0.001730
-6.350	-0.001723
-6.345	-0.001744
-6.340	-0.001710
-6.335	-0.001717
-6.330	-0.001717
-6.325	-0.001737
-6.320	-0.001717
-6.315	-0.001710
-6.310	-0.001703
-6.305	-0.001682
-6.300	-0.001696
-6.295	-0.001682
-6.290	-0.001696
-6.285	-0.001676
-6.280	-0.001717
-6.275	-0.001669
-6.270	-0.001683
-6.265	-0.001683
-6.260	-0.001683
-6.255	-0.001683
-6.250	-0.001690
-6.245	-0.001648
-6.240	-0.001690
-6.235	-0.001676
-6.230	-0.001649
-6.225	-0.001649
-6.220	-0.001662
-6.215	-0.001669
-6.210	-0.001662
-6.205	-0.001642
-6.200	-0.001649
-6.195	-0.001628
-6.190	-0.001614
-6.185	-0.001608
-6.180	-0.001642
-6.175	-0.001635
-6.170	-0.001628
-6.165	-0.001635
-6.160	-0.001621
-6.155	-0.001608
-6.150	-0.001594
-6.145	-0.001635
-6.140	-0.001608
-6.135	-0.001635
-6.130	-0.001608
-6.125	-0.001629
-6.120	-0.001629
-6.115	-0.001587
-6.110	-0.001594
-6.105	-0.001574
-6.100	-0.001581
-6.095	-0.001601
-6.090	-0.001622
-6.085	-0.001608
-6.080	-0.001588
-6.075	-0.001574
-6.070	-0.001560
-6.065	-0.001567
-6.060	-0.001574
-6.055	-0.001560
-6.050	-0.001574
-6.045	-0.001560
-6.040	-0.001533
-6.035	-0.001533
-6.030	-0.001526
-6.025	-0.001533
-6.020	-0.001547
-6.015	-0.001547
-6.010	-0.001485
-6.005	-0.001506
-6.000	-0.001499
-5.995	-0.001485
-5.990	-0.001492
-5.985	-0.001465
-5.980	-0.001471
-5.975	-0.001458
-5.970	-0.001472
-5.965	-0.001430
-5.960	-0.001437
-5.955	-0.001458
-5.950	-0.001424
-5.945	-0.001465
-5.940	-0.001403
-5.935	-0.001431
-5.930	-0.001403
-5.925	-0.001403
-5.920	-0.001410
-5.915	-0.001362
-5.910	-0.001335
-5.905	-0.001369
-5.900	-0.001355
-5.895	-0.001341
-5.890	-0.001348
-5.885	-0.001328
-5.880	-0.001348
-5.875	-0.001348
-5.870	-0.001300
-5.865	-0.001314
-5.860	-0.001300
-5.855	-0.001287
-5.850	-0.001280
-5.845	-0.001266
-5.840	-0.001287
-5.835	-0.001259
-5.830	-0.001307
-5.825	-0.001293
-5.820	-0.001301
-5.815	-0.001301
-5.810	-0.001314
-5.805	-0.001287
-5.800	-0.001301
-5.795	-0.001335
-5.790	-0.001356
-5.785	-0.001363
-5.780	-0.001397
-5.775	-0.001452
-5.770	-0.001507
-5.765	-0.001582
-5.760	-0.001651
-5.755	-0.001719
-5.750	-0.001774
-5.745	-0.001898
-5.740	-0.002001
-5.735	-0.002090
-5.730	-0.002207
-5.725	-0.002303
-5.720	-0.002399
-5.715	-0.002516
-5.710	-0.002577
-5.705	-0.002625
-5.700	-0.002666
-5.695	-0.002680
-5.690	-0.002674
-5.685	-0.002625
-5.680	-0.002577
-5.675	-0.002454
-5.670	-0.002358
-5.665	-0.002255
-5.660	-0.002077
-5.655	-0.001919
-5.650	-0.001830
-5.645	-0.001679
-5.640	-0.001549
-5.635	-0.001411
-5.630	-0.001322
-5.625	-0.001295
-5.620	-0.001219
-5.615	-0.001178
-5.610	-0.001144
-5.605	-0.001123
-5.600	-0.001103
-5.595	-0.001103
-5.590	-0.001110
-5.585	-0.001110
-5.580	-0.001124
-5.575	-0.001117
-5.570	-0.001124
-5.565	-0.001124
-5.560	-0.001158
-5.555	-0.001151
-5.550	-0.001151
-5.545	-0.001158
-5.540	-0.001158
-5.535	-0.001137
-5.530	-0.001144
-5.525	-0.001151
-5.520	-0.001158
-5.515	-0.001131
-5.510	-0.001151
-5.505	-0.001151
-5.500	-0.001131
-5.495	-0.001137
-5.490	-0.001151
-5.485	-0.001158
-5.480	-0.001158
-5.475	-0.001151
-5.470	-0.001158
-5.465	-0.001172
-5.460	-0.001199
-5.455	-0.001151
-5.450	-0.001144
-5.445	-0.001110
-5.440	-0.000925
-5.435	-0.000533
-5.430	0.000134
-5.425	0.001077
-5.420	0.002465
-5.415	0.004502
-5.410	0.007098
-5.405	0.010514
-5.400	0.014088
-5.395	0.018105
-5.390	0.023086
-5.385	0.028159
-5.380	0.033571
-5.375	0.040002
-5.370	0.046460
-5.365	0.052029
-5.360	0.057557
-5.355	0.063766
-5.350	0.069751
-5.345	0.073222
-5.340	0.073498
-5.335	0.070955
-5.330	0.067058
-5.325	0.062877
-5.320	0.058871
-5.315	0.055230
-5.310	0.052143
-5.305	0.049538
-5.300	0.047282
-5.295	0.045379
-5.290	0.043667
-5.285	0.042107
-5.280	0.040731
-5.275	0.039513
-5.270	0.038349
-5.265	0.037338
-5.260	0.036407
-5.255	0.035564
-5.250	0.034726
-5.245	0.033993
-5.240	0.033328
-5.235	0.032686
-5.230	0.032103
-5.225	0.031510
-5.220	0.030932
-5.215	0.030313
-5.210	0.029800
-5.205	0.029315
-5.200	0.028856
-5.195	0.028479
-5.190	0.028003
-5.185	0.027475
-5.180	0.026970
-5.175	0.026454
-5.170	0.025960
-5.165	0.025530
-5.160	0.025196
-5.155	0.024833
-5.150	0.024525
-5.145	0.024195
-5.140	0.023891
-5.135	0.023628
-5.130	0.023330
-5.125	0.023035
-5.120	0.022724
-5.115	0.022486
-5.110	0.022241
-5.105	0.022036
-5.100	0.021878
-5.095	0.021751
-5.090	0.021544
-5.085	0.021339
-5.080	0.021132
-5.075	0.020941
-5.070	0.020809
-5.065	0.020729
-5.060	0.020562
-5.055	0.020411
-5.050	0.020212
-5.045	0.019994
-5.040	0.019750
-5.035	0.019570
-5.030	0.019335
-5.025	0.019186
-5.020	0.018941
-5.015	0.018729
-5.010	0.018587
-5.005	0.018466
-5.000	0.018401
-4.995	0.018285
-4.990	0.018177
-4.985	0.017988
-4.980	0.017773
-4.975	0.017592
-4.970	0.017411
-4.965	0.017272
-4.960	0.017115
-4.955	0.016990
-4.950	0.016758
-4.945	0.016612
-4.940	0.016464
-4.935	0.016375
-4.930	0.016379
-4.925	0.016269
-4.920	0.016136
-4.915	0.016013
-4.910	0.015901
-4.905	0.015812
-4.900	0.015766
-4.895	0.015714
-4.890	0.015708
-4.885	0.015593
-4.880	0.015530
-4.875	0.015447
-4.870	0.015364
-4.865	0.015333
-4.860	0.015284
-4.855	0.015222
-4.850	0.015111
-4.845	0.015111
-4.840	0.015073
-4.835	0.014980
-4.830	0.014870
-4.825	0.014809
-4.820	0.014640
-4.815	0.014563
-4.810	0.014387
-4.805	0.014225
-4.800	0.014129
-4.795	0.014035
-4.790	0.013977
-4.785	0.013867
-4.780	0.013812
-4.775	0.013805
-4.770	0.013801
-4.765	0.013746
-4.760	0.013669
-4.755	0.013566
-4.750	0.013422
-4.745	0.013265
-4.740	0.013156
-4.735	0.013058
-4.730	0.013061
-4.725	0.013083
-4.720	0.013063
-4.715	0.013079
-4.710	0.013094
-4.705	0.013056
-4.700	0.013063
-4.695	0.013034
-4.690	0.013013
-4.685	0.012968
-4.680	0.012855
-4.675	0.012768
-4.670	0.012707
-4.665	0.012572
-4.660	0.012468
-4.655	0.012380
-4.650	0.012222
-4.645	0.012193
-4.640	0.012108
-4.635	0.011941
-4.630	0.011856
-4.625	0.011734
-4.620	0.011642
-4.615	0.011623
-4.610	0.011599
-4.605	0.011545
-4.600	0.011475
-4.595	0.011492
-4.590	0.011484
-4.585	0.011493
-4.580	0.011469
-4.575	0.011453
-4.570	0.011411
-4.565	0.011363
-4.560	0.011379
-4.555	0.011353
-4.550	0.011389
-4.545	0.011361
-4.540	0.011335
-4.535	0.011260
-4.530	0.011198
-4.525	0.011120
-4.520	0.011031
-4.515	0.010873
-4.510	0.010802
-4.505	0.010726
-4.500	0.010739
-4.495	0.010655
-4.490	0.010573
-4.485	0.010508
-4.480	0.010514
-4.475	0.010596
-4.470	0.010601
-4.465	0.010622
-4.460	0.010517
-4.455	0.010444
-4.450	0.010331
-4.445	0.010258
-4.440	0.010181
-4.435	0.010121
-4.430	0.010082
-4.425	0.010042
-4.420	0.010018
-4.415	0.009971
-4.410	0.009926
-4.405	0.009896
-4.400	0.009877
-4.395	0.009863
-4.390	0.009861
-4.385	0.009888
-4.380	0.009895
-4.375	0.009818
-4.370	0.009769
-4.365	0.009766
-4.360	0.009755
-4.355	0.009657
-4.350	0.009639
-4.345	0.009600
-4.340	0.009510
-4.335	0.009502
-4.330	0.009461
-4.325	0.009415
-4.320	0.009387
-4.315	0.009441
-4.310	0.009489
-4.305	0.009508
-4.300	0.009443
-4.295	0.009363
-4.290	0.009237
-4.285	0.009147
-4.280	0.009079
-4.275	0.009033
-4.270	0.009005
-4.265	0.008978
-4.260	0.008937
-4.255	0.008910
-4.250	0.008868
-4.245	0.008813
-4.240	0.008917
-4.235	0.009020
-4.230	0.008958
-4.225	0.008861
-4.220	0.008857
-4.215	0.008901
-4.210	0.008942
-4.205	0.008970
-4.200	0.008977
-4.195	0.008937
-4.190	0.008835
-4.185	0.008760
-4.180	0.008658
-4.175	0.008547
-4.170	0.008402
-4.165	0.008283
-4.160	0.008160
-4.155	0.008071
-4.150	0.007960
-4.145	0.007666
-4.140	0.007264
-4.135	0.006553
-4.130	0.005581
-4.125	0.004178
-4.120	0.002349
-4.115	-0.000055
-4.110	-0.003058
-4.105	-0.006618
-4.100	-0.010780
-4.095	-0.015542
-4.090	-0.020830
-4.085	-0.026549
-4.080	-0.032730
-4.075	-0.039086
-4.070	-0.045476
-4.065	-0.051892
-4.060	-0.058069
-4.055	-0.063706
-4.050	-0.068250
-4.045	-0.071202
-4.040	-0.072355
-4.035	-0.071603
-4.030	-0.068955
-4.025	-0.064986
-4.020	-0.060514
-4.015	-0.056184
-4.010	-0.052298
-4.005	-0.049005
-4.000	-0.046200
-3.995	-0.043902
-3.990	-0.041861
-3.985	-0.040141
-3.980	-0.038569
-3.975	-0.037153
-3.970	-0.035822
-3.965	-0.034625
-3.960	-0.033589
-3.955	-0.032597
-3.950	-0.031737
-3.945	-0.030943
-3.940	-0.030194
-3.935	-0.029480
-3.930	-0.028834
-3.925	-0.028280
-3.920	-0.027664
-3.915	-0.027113
-3.910	-0.026607
-3.905	-0.026119
-3.900	-0.025623
-3.895	-0.025160
-3.890	-0.024744
-3.885	-0.024263
-3.880	-0.023856
-3.875	-0.023444
-3.870	-0.023067
-3.865	-0.022668
-3.860	-0.022305
-3.855	-0.021902
-3.850	-0.021546
-3.845	-0.021155
-3.840	-0.020802
-3.835	-0.020497
-3.830	-0.020155
-3.825	-0.019848
-3.820	-0.019541
-3.815	-0.019285
-3.810	-0.019048
-3.805	-0.018752
-3.800	-0.018510
-3.795	-0.018283
-3.790	-0.017955
-3.785	-0.017743
-3.780	-0.017453
-3.775	-0.017253
-3.770	-0.017012
-3.765	-0.016816
-3.760	-0.016575
-3.755	-0.016411
-3.750	-0.016230
-3.745	-0.016010
-3.740	-0.015824
-3.735	-0.015652
-3.730	-0.015468
-3.725	-0.015300
-3.720	-0.015159
-3.715	-0.014995
-3.710	-0.014823
-3.705	-0.014651
-3.700	-0.014487
-3.695	-0.014312
-3.690	-0.014158
-3.685	-0.014017
-3.680	-0.013906
-3.675	-0.013769
-3.670	-0.013626
-3.665	-0.013532
-3.660	-0.013417
-3.655	-0.013268
-3.650	-0.013145
-3.645	-0.013008
-3.640	-0.012878
-3.635	-0.012779
-3.630	-0.012720
-3.625	-0.012612
-3.620	-0.012486
-3.615	-0.012342
-3.610	-0.012212
-3.605	-0.012026
-3.600	-0.011896
-3.595	-0.011678
-3.590	-0.011473
-3.585	-0.011262
-3.580	-0.011058
-3.575	-0.010826
-3.570	-0.010615
-3.565	-0.010288
-3.560	-0.009926
-3.555	-0.009560
-3.550	-0.009132
-3.545	-0.008664
-3.540	-0.008154
-3.535	-0.007615
-3.530	-0.007046
-3.525	-0.006450
-3.520	-0.005855
-3.515	-0.005118
-3.510	-0.004549
-3.505	-0.003871
-3.500	-0.003268
-3.495	-0.002637
-3.490	-0.001998
-3.485	-0.001422
-3.480	-0.000956
-3.475	-0.000496
-3.470	-0.000085
-3.465	0.000245
-3.460	0.000526
-3.455	0.000732
-3.450	0.000890
-3.445	0.000958
-3.440	0.000999
-3.435	0.000932
-3.430	0.000863
-3.425	0.000821
-3.420	0.000827
-3.415	0.000922
-3.410	0.001190
-3.405	0.001513
-3.400	0.001940
-3.395	0.002489
-3.390	0.002982
-3.385	0.003664
-3.380	0.004479
-3.375	0.005355
-3.370	0.006336
-3.365	0.007463
-3.360	0.008526
-3.355	0.009581
-3.350	0.010679
-3.345	0.011701
-3.340	0.012403
-3.335	0.012598
-3.330	0.012367
-3.325	0.011877
-3.320	0.011254
-3.315	0.010731
-3.310	0.010294
-3.305	0.009977
-3.300	0.009772
-3.295	0.009572
-3.290	0.009435
-3.285	0.009275
-3.280	0.009137
-3.275	0.009019
-3.270	0.008992
-3.265	0.008986
-3.260	0.008970
-3.255	0.008959
-3.250	0.009019
-3.245	0.009042
-3.240	0.009082
-3.235	0.009120
-3.230	0.009147
-3.225	0.009160
-3.220	0.009197
-3.215	0.009262
-3.210	0.009368
-3.205	0.009429
-3.200	0.009505
-3.195	0.009635
-3.190	0.009783
-3.185	0.009921
-3.180	0.010066
-3.175	0.010195
-3.170	0.010312
-3.165	0.010423
-3.160	0.010527
-3.155	0.010605
-3.150	0.010678
-3.145	0.010742
-3.140	0.010769
-3.135	0.010918
-3.130	0.010870
-3.125	0.010919
-3.120	0.011003
-3.115	0.011105
-3.110	0.011223
-3.105	0.011334
-3.100	0.011418
-3.095	0.011441
-3.090	0.011478
-3.085	0.011568
-3.080	0.011630
-3.075	0.011796
-3.070	0.011911
-3.065	0.012011
-3.060	0.012025
-3.055	0.012127
-3.050	0.012256
-3.045	0.012316
-3.040	0.012304
-3.035	0.012320
-3.030	0.012395
-3.025	0.012436
-3.020	0.012593
-3.015	0.012731
-3.010	0.012835
-3.005	0.012899
-3.000	0.012996
-2.995	0.013115
-2.990	0.013175
-2.985	0.013235
-2.980	0.013289
-2.975	0.013345
-2.970	0.013419
-2.965	0.013497
-2.960	0.013559
-2.955	0.013645
-2.950	0.013749
-2.945	0.013793
-2.940	0.013817
-2.935	0.013884
-2.930	0.013964
-2.925	0.014111
-2.920	0.014229
-2.915	0.014401
-2.910	0.014505
-2.905	0.014557
-2.900	0.014614
-2.895	0.014652
-2.890	0.014707
-2.885	0.014757
-2.880	0.014847
-2.875	0.015039
-2.870	0.015192
-2.865	0.015333
-2.860	0.015533
-2.855	0.015702
-2.850	0.015866
-2.845	0.015944
-2.840	0.015950
-2.835	0.015949
-2.830	0.015884
-2.825	0.015814
-2.820	0.015790
-2.815	0.015752
-2.810	0.015737
-2.805	0.015730
-2.800	0.015714
-2.795	0.015730
-2.790	0.015705
-2.785	0.015746
-2.780	0.015751
-2.775	0.015794
-2.770	0.015855
-2.765	0.015991
-2.760	0.016158
-2.755	0.016329
-2.750	0.016490
-2.745	0.016540
-2.740	0.016635
-2.735	0.016756
-2.730	0.016857
-2.725	0.016969
-2.720	0.017061
-2.715	0.017145
-2.710	0.017153
-2.705	0.017233
-2.700	0.017304
-2.695	0.017305
-2.690	0.017298
-2.685	0.017311
-2.680	0.017326
-2.675	0.017373
-2.670	0.017445
-2.665	0.017506
-2.660	0.017604
-2.655	0.017669
-2.650	0.017880
-2.645	0.018048
-2.640	0.018161
-2.635	0.018226
-2.630	0.018290
-2.625	0.018413
-2.620	0.018463
-2.615	0.018429
-2.610	0.018408
-2.605	0.018433
-2.600	0.018488
-2.595	0.018504
-2.590	0.018451
-2.585	0.018418
-2.580	0.018383
-2.575	0.018321
-2.570	0.018297
-2.565	0.018252
-2.560	0.018251
-2.555	0.018322
-2.550	0.018344
-2.545	0.018398
-2.540	0.018482
-2.535	0.018535
-2.530	0.018557
-2.525	0.018613
-2.520	0.018627
-2.515	0.018736
-2.510	0.018798
-2.505	0.018962
-2.500	0.019029
-2.495	0.019041
-2.490	0.019074
-2.485	0.019092
-2.480	0.019093
-2.475	0.019138
-2.470	0.019212
-2.465	0.019232
-2.460	0.019253
-2.455	0.019234
-2.450	0.019152
-2.445	0.019057
-2.440	0.018980
-2.435	0.018997
-2.430	0.019017
-2.425	0.019006
-2.420	0.018971
-2.415	0.018967
-2.410	0.018953
-2.405	0.018977
-2.400	0.019068
-2.395	0.019207
-2.390	0.019392
-2.385	0.019562
-2.380	0.019754
-2.375	0.019879
-2.370	0.019964
-2.365	0.020009
-2.360	0.020085
-2.355	0.020149
-2.350	0.020182
-2.345	0.020240
-2.340	0.020235
-2.335	0.020183
-2.330	0.020243
-2.325	0.020265
-2.320	0.020266
-2.315	0.020190
-2.310	0.020066
-2.305	0.019951
-2.300	0.019802
-2.295	0.019665
-2.290	0.019547
-2.285	0.019434
-2.280	0.019390
-2.275	0.019290
-2.270	0.019306
-2.265	0.019386
-2.260	0.019448
-2.255	0.019523
-2.250	0.019663
-2.245	0.019684
-2.240	0.019718
-2.235	0.019761
-2.230	0.019808
-2.225	0.019906
-2.220	0.019934
-2.215	0.019968
-2.210	0.020062
-2.205	0.020139
-2.200	0.020209
-2.195	0.020212
-2.190	0.020199
-2.185	0.020188
-2.180	0.020161
-2.175	0.020041
-2.170	0.019958
-2.165	0.019788
-2.160	0.019626
-2.155	0.019520
-2.150	0.019436
-2.145	0.019372
-2.140	0.019311
-2.135	0.019311
-2.130	0.019360
-2.125	0.019404
-2.120	0.019514
-2.115	0.019683
-2.110	0.019873
-2.105	0.020003
-2.100	0.020113
-2.095	0.020230
-2.090	0.020380
-2.085	0.020465
-2.080	0.020494
-2.075	0.020434
-2.070	0.020392
-2.065	0.020412
-2.060	0.020385
-2.055	0.020439
-2.050	0.020363
-2.045	0.020323
-2.040	0.020279
-2.035	0.020272
-2.030	0.020263
-2.025	0.020173
-2.020	0.020103
-2.015	0.020022
-2.010	0.019938
-2.005	0.019779
-2.000	0.019767
-1.995	0.019776
-1.990	0.019792
-1.985	0.019797
-1.980	0.019763
-1.975	0.019732
-1.970	0.019676
-1.965	0.019702
-1.960	0.019673
-1.955	0.019649
-1.950	0.019718
-1.945	0.019777
-1.940	0.019767
-1.935	0.019735
-1.930	0.019750
-1.925	0.019731
-1.920	0.019652
-1.915	0.019624
-1.910	0.019594
-1.905	0.019557
-1.900	0.019576
-1.895	0.019553
-1.890	0.019580
-1.885	0.019560
-1.880	0.019585
-1.875	0.019613
-1.870	0.019648
-1.865	0.019616
-1.860	0.019596
-1.855	0.019548
-1.850	0.019458
-1.845	0.019314
-1.840	0.019209
-1.835	0.019149
-1.830	0.019071
-1.825	0.018994
-1.820	0.019007
-1.815	0.018992
-1.810	0.018979
-1.805	0.018999
-1.800	0.019089
-1.795	0.019166
-1.790	0.019250
-1.785	0.019295
-1.780	0.019269
-1.775	0.019235
-1.770	0.019165
-1.765	0.019072
-1.760	0.019006
-1.755	0.018929
-1.750	0.018858
-1.745	0.018756
-1.740	0.018670
-1.735	0.018561
-1.730	0.018519
-1.725	0.018487
-1.720	0.018513
-1.715	0.018499
-1.710	0.018516
-1.705	0.018548
-1.700	0.018567
-1.695	0.018658
-1.690	0.018674
-1.685	0.018700
-1.680	0.018716
-1.675	0.018711
-1.670	0.018712
-1.665	0.018694
-1.660	0.018659
-1.655	0.018645
-1.650	0.018628
-1.645	0.018588
-1.640	0.018516
-1.635	0.018497
-1.630	0.018455
-1.625	0.018407
-1.620	0.018359
-1.615	0.018355
-1.610	0.018340
-1.605	0.018361
-1.600	0.018341
-1.595	0.018315
-1.590	0.018233
-1.585	0.018143
-1.580	0.018017
-1.575	0.017909
-1.570	0.017814
-1.565	0.017731
-1.560	0.017649
-1.555	0.017531
-1.550	0.017429
-1.545	0.017326
-1.540	0.017296
-1.535	0.017229
-1.530	0.017227
-1.525	0.017206
-1.520	0.017254
-1.515	0.017318
-1.510	0.017322
-1.505	0.017398
-1.500	0.017419
-1.495	0.017450
-1.490	0.017382
-1.485	0.017364
-1.480	0.017252
-1.475	0.017098
-1.470	0.016933
-1.465	0.016770
-1.460	0.016624
-1.455	0.016514
-1.450	0.016442
-1.445	0.016421
-1.440	0.016406
-1.435	0.016421
-1.430	0.016404
-1.425	0.016381
-1.420	0.016358
-1.415	0.016288
-1.410	0.016270
-1.405	0.016220
-1.400	0.016206
-1.395	0.016245
-1.390	0.016184
-1.385	0.016111
-1.380	0.016030
-1.375	0.015891
-1.370	0.015876
-1.365	0.015738
-1.360	0.015633
-1.355	0.015559
-1.350	0.015506
-1.345	0.015392
-1.340	0.015315
-1.335	0.015222
-1.330	0.015154
-1.325	0.015070
-1.320	0.014987
-1.315	0.014924
-1.310	0.014910
-1.305	0.014861
-1.300	0.014853
-1.295	0.014921
-1.290	0.014926
-1.285	0.014973
-1.280	0.015014
-1.275	0.015083
-1.270	0.015133
-1.265	0.015223
-1.260	0.015203
-1.255	0.015174
-1.250	0.015158
-1.245	0.015124
-1.240	0.015090
-1.235	0.015028
-1.230	0.014967
-1.225	0.014880
-1.220	0.014809
-1.215	0.014809
-1.210	0.014797
-1.205	0.014768
-1.200	0.014731
-1.195	0.014697
-1.190	0.014705
-1.185	0.014655
-1.180	0.014586
-1.175	0.014551
-1.170	0.014501
-1.165	0.014399
-1.160	0.014379
-1.155	0.014249
-1.150	0.014207
-1.145	0.014132
-1.140	0.014017
-1.135	0.013949
-1.130	0.013880
-1.125	0.013784
-1.120	0.013688
-1.115	0.013559
-1.110	0.013428
-1.105	0.013268
-1.100	0.013199
-1.095	0.013063
-1.090	0.012968
-1.085	0.012847
-1.080	0.012773
-1.075	0.012693
-1.070	0.012632
-1.065	0.012551
-1.060	0.012433
-1.055	0.012419
-1.050	0.012403
-1.045	0.012347
-1.040	0.012371
-1.035	0.012425
-1.030	0.012488
-1.025	0.012596
-1.020	0.012625
-1.015	0.012707
-1.010	0.012803
-1.005	0.012894
-1.000	0.012923
-0.995	0.013029
-0.990	0.012997
-0.985	0.013058
-0.980	0.013053
-0.975	0.013011
-0.970	0.012975
-0.965	0.012889
-0.960	0.012806
-0.955	0.012704
-0.950	0.012554
-0.945	0.012467
-0.940	0.012338
-0.935	0.012210
-0.930	0.012080
-0.925	0.011957
-0.920	0.011908
-0.915	0.011792
-0.910	0.011679
-0.905	0.011625
-0.900	0.011559
-0.895	0.011507
-0.890	0.011377
-0.885	0.011358
-0.880	0.011255
-0.875	0.011221
-0.870	0.011113
-0.865	0.011046
-0.860	0.010950
-0.855	0.010895
-0.850	0.010852
-0.845	0.010742
-0.840	0.010642
-0.835	0.010591
-0.830	0.010497
-0.825	0.010397
-0.820	0.010307
-0.815	0.010184
-0.810	0.010115
-0.805	0.009992
-0.800	0.009876
-0.795	0.009780
-0.790	0.009678
-0.785	0.009590
-0.780	0.009433
-0.775	0.009344
-0.770	0.009208
-0.765	0.009101
-0.760	0.008997
-0.755	0.008945
-0.750	0.008875
-0.745	0.008828
-0.740	0.008719
-0.735	0.008663
-0.730	0.008637
-0.725	0.008590
-0.720	0.008583
-0.715	0.008604
-0.710	0.008550
-0.705	0.008509
-0.700	0.008508
-0.695	0.008452
-0.690	0.008446
-0.685	0.008465
-0.680	0.008472
-0.675	0.008452
-0.670	0.008449
-0.665	0.008388
-0.660	0.008401
-0.655	0.008409
-0.650	0.008368
-0.645	0.008335
-0.640	0.008303
-0.635	0.008281
-0.630	0.008222
-0.625	0.008186
-0.620	0.008134
-0.615	0.008092
-0.610	0.008030
-0.605	0.008002
-0.600	0.007939
-0.595	0.007905
-0.590	0.007889
-0.585	0.007841
-0.580	0.007800
-0.575	0.007724
-0.570	0.007637
-0.565	0.007536
-0.560	0.007485
-0.555	0.007379
-0.550	0.007298
-0.545	0.007263
-0.540	0.007182
-0.535	0.007073
-0.530	0.007012
-0.525	0.006928
-0.520	0.006818
-0.515	0.006764
-0.510	0.006632
-0.505	0.006530
-0.500	0.006414
-0.495	0.006319
-0.490	0.006254
-0.485	0.006144
-0.480	0.006035
-0.475	0.005960
-0.470	0.005873
-0.465	0.005751
-0.460	0.005684
-0.455	0.005589
-0.450	0.005498
-0.445	0.005463
-0.440	0.005434
-0.435	0.005352
-0.430	0.005318
-0.425	0.005280
-0.420	0.005279
-0.415	0.005252
-0.410	0.005169
-0.405	0.005148
-0.400	0.005175
-0.395	0.005113
-0.390	0.005113
-0.385	0.005059
-0.380	0.005029
-0.375	0.004988
-0.370	0.004942
-0.365	0.004896
-0.360	0.004834
-0.355	0.004778
-0.350	0.004736
-0.345	0.004660
-0.340	0.004604
-0.335	0.004584
-0.330	0.004487
-0.325	0.004473
-0.320	0.004432
-0.315	0.004277
-0.310	0.004183
-0.305	0.004108
-0.300	0.004040
-0.295	0.003998
-0.290	0.003892
-0.285	0.003837
-0.280	0.003794
-0.275	0.003705
-0.270	0.003683
-0.265	0.003594
-0.260	0.003472
-0.255	0.003417
-0.250	0.003375
-0.245	0.003306
-0.240	0.003183
-0.235	0.003109
-0.230	0.003067
-0.225	0.002977
-0.220	0.002894
-0.215	0.002833
-0.210	0.002785
-0.205	0.002730
-0.200	0.002620
-0.195	0.002558
-0.190	0.002550
-0.185	0.002555
-0.180	0.002542
-0.175	0.002344
-0.170	0.002142
-0.165	0.001965
-0.160	0.001896
-0.155	0.001806
-0.150	0.001833
-0.145	0.001920
-0.140	0.001988
-0.135	0.002036
-0.130	0.002194
-0.125	0.002358
-0.120	0.002497
-0.115	0.002669
-0.110	0.002903
-0.105	0.002958
-0.100	0.003033
-0.095	0.003025
-0.090	0.002812
-0.085	0.002511
-0.080	0.002140
-0.075	0.001578
-0.070	0.000879
-0.065	0.000049
-0.060	-0.000980
-0.055	-0.002063
-0.050	-0.003155
-0.045	-0.004316
-0.040	-0.005163
-0.035	-0.005682
-0.030	-0.005770
-0.025	-0.005420
-0.020	-0.004512
-0.015	-0.003209
-0.010	-0.001604
-0.005	0.000233
0.000	0.002133
0.005	0.003947
0.010	0.005441
0.015	0.006388
0.020	0.006739
0.025	0.006484
0.030	0.005632
0.035	0.004374
0.040	0.002849
0.045	0.001137
0.050	-0.000526
0.055	-0.002009
0.060	-0.003154
0.065	-0.003853
0.070	-0.004121
0.075	-0.004108
0.080	-0.003890
0.085	-0.003492
0.090	-0.002922
0.095	-0.002414
0.100	-0.001996
0.105	-0.001755
0.110	-0.001570
0.115	-0.001454
0.120	-0.001385
0.125	-0.001447
0.130	-0.001447
0.135	-0.001488
0.140	-0.001584
0.145	-0.001694
0.150	-0.001824
0.155	-0.001865
0.160	-0.001941
0.165	-0.002010
0.170	-0.002099
0.175	-0.002161
0.180	-0.002284
0.185	-0.002387
0.190	-0.002476
0.195	-0.002538
0.200	-0.002648
0.205	-0.002792
0.210	-0.002868
0.215	-0.002970
0.220	-0.003039
0.225	-0.003094
0.230	-0.003171
0.235	-0.003226
0.240	-0.003335
0.245	-0.003451
0.250	-0.003506
0.255	-0.003554
0.260	-0.003623
0.265	-0.003630
0.270	-0.003726
0.275	-0.003802
0.280	-0.003843
0.285	-0.003891
0.290	-0.004001
0.295	-0.004090
0.300	-0.004180
0.305	-0.004241
0.310	-0.004302
0.315	-0.004343
0.320	-0.004467
0.325	-0.004522
0.330	-0.004590
0.335	-0.004686
0.340	-0.004768
0.345	-0.004862
0.350	-0.004958
0.355	-0.004972
0.360	-0.005048
0.365	-0.005049
0.370	-0.005132
0.375	-0.005179
0.380	-0.005241
0.385	-0.005296
0.390	-0.005386
0.395	-0.005440
0.400	-0.005475
0.405	-0.005462
0.410	-0.005497
0.415	-0.005525
0.420	-0.005608
0.425	-0.005664
0.430	-0.005672
0.435	-0.005728
0.440	-0.005790
0.445	-0.005796
0.450	-0.005886
0.455	-0.005913
0.460	-0.005996
0.465	-0.006043
0.470	-0.006117
0.475	-0.006192
0.480	-0.006205
0.485	-0.006300
0.490	-0.006340
0.495	-0.006415
0.500	-0.006511
0.505	-0.006593
0.510	-0.006639
0.515	-0.006693
0.520	-0.006773
0.525	-0.006856
0.530	-0.006911
0.535	-0.006994
0.540	-0.007050
0.545	-0.007091
0.550	-0.007187
0.555	-0.007256
0.560	-0.007312
0.565	-0.007390
0.570	-0.007445
0.575	-0.007513
0.580	-0.007535
0.585	-0.007529
0.590	-0.007592
0.595	-0.007653
0.600	-0.007701
0.605	-0.007750
0.610	-0.007826
0.615	-0.007848
0.620	-0.007944
0.625	-0.007979
0.630	-0.008016
0.635	-0.008106
0.640	-0.008145
0.645	-0.008171
0.650	-0.008226
0.655	-0.008245
0.660	-0.008293
0.665	-0.008340
0.670	-0.008361
0.675	-0.008402
0.680	-0.008422
0.685	-0.008443
0.690	-0.008525
0.695	-0.008547
0.700	-0.008603
0.705	-0.008646
0.710	-0.008717
0.715	-0.008807
0.720	-0.008889
0.725	-0.008958
0.730	-0.009063
0.735	-0.009126
0.740	-0.009293
0.745	-0.009403
0.750	-0.009589
0.755	-0.009694
0.760	-0.009805
0.765	-0.009952
0.770	-0.010099
0.775	-0.010262
0.780	-0.010338
0.785	-0.010395
0.790	-0.010470
0.795	-0.010603
0.800	-0.010672
0.805	-0.010734
0.810	-0.010747
0.815	-0.010696
0.820	-0.010749
0.825	-0.010783
0.830	-0.010818
0.835	-0.010852
0.840	-0.010904
0.845	-0.010868
0.850	-0.010882
0.855	-0.010841
0.860	-0.010820
0.865	-0.010876
0.870	-0.010953
0.875	-0.011010
0.880	-0.011052
0.885	-0.011129
0.890	-0.011185
0.895	-0.011244
0.900	-0.011328
0.905	-0.011415
0.910	-0.011490
0.915	-0.011583
0.920	-0.011676
0.925	-0.011856
0.930	-0.011967
0.935	-0.012052
0.940	-0.012055
0.945	-0.012128
0.950	-0.012138
0.955	-0.012170
0.960	-0.012278
0.965	-0.012348
0.970	-0.012415
0.975	-0.012513
0.980	-0.012634
0.985	-0.012661
0.990	-0.012662
0.995	-0.012711
1.000	-0.012741
1.005	-0.012770
1.010	-0.012767
1.015	-0.012809
1.020	-0.012806
1.025	-0.012879
1.030	-0.012880
1.035	-0.012960
1.040	-0.012994
1.045	-0.013009
1.050	-0.013054
1.055	-0.013146
1.060	-0.013176
1.065	-0.013255
1.070	-0.013421
1.075	-0.013558
1.080	-0.013638
1.085	-0.013732
1.090	-0.013778
1.095	-0.014021
1.100	-0.014126
1.105	-0.014190
1.110	-0.014239
1.115	-0.014349
1.120	-0.014397
1.125	-0.014432
1.130	-0.014325
1.135	-0.014284
1.140	-0.014143
1.145	-0.014096
1.150	-0.014008
1.155	-0.013911
1.160	-0.013824
1.165	-0.013796
1.170	-0.013814
1.175	-0.013750
1.180	-0.013696
1.185	-0.013697
1.190	-0.013802
1.195	-0.013941
1.200	-0.014052
1.205	-0.014128
1.210	-0.014245
1.215	-0.014369
1.220	-0.014491
1.225	-0.014532
1.230	-0.014517
1.235	-0.014532
1.240	-0.014626
1.245	-0.014757
1.250	-0.014771
1.255	-0.014772
1.260	-0.014718
1.265	-0.014790
1.270	-0.014966
1.275	-0.015093
1.280	-0.015199
1.285	-0.015268
1.290	-0.015291
1.295	-0.015391
1.300	-0.015515
1.305	-0.015607
1.310	-0.015679
1.315	-0.015796
1.320	-0.015879
1.325	-0.015893
1.330	-0.015969
1.335	-0.015991
1.340	-0.015985
1.345	-0.016000
1.350	-0.016072
1.355	-0.016148
1.360	-0.016247
1.365	-0.016275
1.370	-0.016276
1.375	-0.016301
1.380	-0.016339
1.385	-0.016294
1.390	-0.016220
1.395	-0.016219
1.400	-0.016140
1.405	-0.015972
1.410	-0.015712
1.415	-0.015579
1.420	-0.015648
1.425	-0.015747
1.430	-0.015935
1.435	-0.016001
1.440	-0.016034
1.445	-0.016091
1.450	-0.016162
1.455	-0.016226
1.460	-0.016406
1.465	-0.016654
1.470	-0.016788
1.475	-0.016790
1.480	-0.016845
1.485	-0.017027
1.490	-0.017207
1.495	-0.017326
1.500	-0.017388
1.505	-0.017381
1.510	-0.017422
1.515	-0.017474
1.520	-0.017525
1.525	-0.017600
1.530	-0.017698
1.535	-0.017750
1.540	-0.017817
1.545	-0.017909
1.550	-0.018048
1.555	-0.018166
1.560	-0.018335
1.565	-0.018470
1.570	-0.018475
1.575	-0.018497
1.580	-0.018493
1.585	-0.018535
1.590	-0.018529
1.595	-0.018512
1.600	-0.018445
1.605	-0.018353
1.610	-0.018274
1.615	-0.018197
1.620	-0.018148
1.625	-0.018090
1.630	-0.017997
1.635	-0.017968
1.640	-0.018005
1.645	-0.018008
1.650	-0.018054
1.655	-0.018113
1.660	-0.018226
1.665	-0.018309
1.670	-0.018446
1.675	-0.018534
1.680	-0.018692
1.685	-0.018777
1.690	-0.018981
1.695	-0.019220
1.700	-0.019361
1.705	-0.019216
1.710	-0.018811
1.715	-0.018389
1.720	-0.018055
1.725	-0.017969
1.730	-0.018048
1.735	-0.018329
1.740	-0.018682
1.745	-0.018954
1.750	-0.019152
1.755	-0.019144
1.760	-0.019132
1.765	-0.019285
1.770	-0.019505
1.775	-0.019509
1.780	-0.019371
1.785	-0.019258
1.790	-0.019134
1.795	-0.018918
1.800	-0.018649
1.805	-0.018509
1.810	-0.018584
1.815	-0.018726
1.820	-0.018687
1.825	-0.018625
1.830	-0.018684
1.835	-0.018725
1.840	-0.018757
1.845	-0.018848
1.850	-0.018962
1.855	-0.019189
1.860	-0.019329
1.865	-0.019438
1.870	-0.019300
1.875	-0.019128
1.880	-0.019127
1.885	-0.019063
1.890	-0.019047
1.895	-0.019069
1.900	-0.019072
1.905	-0.019198
1.910	-0.019289
1.915	-0.019382
1.920	-0.019478
1.925	-0.019567
1.930	-0.019717
1.935	-0.019841
1.940	-0.020026
1.945	-0.020122
1.950	-0.020164
1.955	-0.020112
1.960	-0.020039
1.965	-0.020058
1.970	-0.020166
1.975	-0.020109
1.980	-0.019980
1.985	-0.019837
1.990	-0.019800
1.995	-0.019751
2.000	-0.019746
2.005	-0.019727
2.010	-0.019711
2.015	-0.019720
2.020	-0.019754
2.025	-0.019851
2.030	-0.019873
2.035	-0.019742
2.040	-0.019600
2.045	-0.019583
2.050	-0.019664
2.055	-0.019834
2.060	-0.019930
2.065	-0.019919
2.070	-0.019925
2.075	-0.019950
2.080	-0.020047
2.085	-0.020054
2.090	-0.020130
2.095	-0.020115
2.100	-0.020055
2.105	-0.019988
2.110	-0.019955
2.115	-0.019790
2.120	-0.019723
2.125	-0.019728
2.130	-0.019759
2.135	-0.019774
2.140	-0.019706
2.145	-0.019593
2.150	-0.019500
2.155	-0.019369
2.160	-0.019228
2.165	-0.019207
2.170	-0.019319
2.175	-0.019434
2.180	-0.019589
2.185	-0.019656
2.190	-0.019587
2.195	-0.019534
2.200	-0.019478
2.205	-0.019548
2.210	-0.019447
2.215	-0.019282
2.220	-0.019130
2.225	-0.019079
2.230	-0.019017
2.235	-0.019043
2.240	-0.019014
2.245	-0.019043
2.250	-0.019141
2.255	-0.019182
2.260	-0.019165
2.265	-0.019229
2.270	-0.019362
2.275	-0.019532
2.280	-0.019729
2.285	-0.019794
2.290	-0.019800
2.295	-0.019726
2.300	-0.019741
2.305	-0.019793
2.310	-0.019898
2.315	-0.019973
2.320	-0.020138
2.325	-0.020349
2.330	-0.020505
2.335	-0.020537
2.340	-0.020485
2.345	-0.020302
2.350	-0.020055
2.355	-0.019974
2.360	-0.019889
2.365	-0.019681
2.370	-0.019449
2.375	-0.019416
2.380	-0.019533
2.385	-0.019604
2.390	-0.019551
2.395	-0.019477
2.400	-0.019348
2.405	-0.019329
2.410	-0.019426
2.415	-0.019454
2.420	-0.019408
2.425	-0.019305
2.430	-0.019122
2.435	-0.018869
2.440	-0.018798
2.445	-0.018768
2.450	-0.018766
2.455	-0.018745
2.460	-0.018791
2.465	-0.018832
2.470	-0.018870
2.475	-0.018763
2.480	-0.018682
2.485	-0.018673
2.490	-0.018638
2.495	-0.018595
2.500	-0.018580
2.505	-0.018619
2.510	-0.018659
2.515	-0.018721
2.520	-0.018726
2.525	-0.018736
2.530	-0.018693
2.535	-0.018617
2.540	-0.018585
2.545	-0.018607
2.550	-0.018533
2.555	-0.018369
2.560	-0.018209
2.565	-0.018181
2.570	-0.018264
2.575	-0.018239
2.580	-0.018069
2.585	-0.017934
2.590	-0.017887
2.595	-0.017913
2.600	-0.017942
2.605	-0.018000
2.610	-0.018023
2.615	-0.018042
2.620	-0.018076
2.625	-0.018066
2.630	-0.018059
2.635	-0.018044
2.640	-0.018080
2.645	-0.017957
2.650	-0.017829
2.655	-0.017737
2.660	-0.017744
2.665	-0.017658
2.670	-0.017578
2.675	-0.017428
2.680	-0.017318
2.685	-0.017226
2.690	-0.017121
2.695	-0.017027
2.700	-0.016905
2.705	-0.016739
2.710	-0.016685
2.715	-0.016655
2.720	-0.016612
2.725	-0.016553
2.730	-0.016432
2.735	-0.016321
2.740	-0.016173
2.745	-0.016017
2.750	-0.015930
2.755	-0.015938
2.760	-0.015935
2.765	-0.015903
2.770	-0.015862
2.775	-0.015840
2.780	-0.015815
2.785	-0.015833
2.790	-0.015824
2.795	-0.015770
2.800	-0.015674
2.805	-0.015706
2.810	-0.015639
2.815	-0.015558
2.820	-0.015533
2.825	-0.015643
2.830	-0.015655
2.835	-0.015569
2.840	-0.015373
2.845	-0.015269
2.850	-0.015270
2.855	-0.015198
2.860	-0.015155
2.865	-0.015077
2.870	-0.014930
2.875	-0.014814
2.880	-0.014691
2.885	-0.014569
2.890	-0.014476
2.895	-0.014369
2.900	-0.014370
2.905	-0.014262
2.910	-0.014104
2.915	-0.014002
2.920	-0.013948
2.925	-0.013963
2.930	-0.013979
2.935	-0.013849
2.940	-0.013680
2.945	-0.013469
2.950	-0.013348
2.955	-0.013271
2.960	-0.013110
2.965	-0.013006
2.970	-0.012937
2.975	-0.012894
2.980	-0.012831
2.985	-0.012803
2.990	-0.012748
2.995	-0.012685
3.000	-0.012652
3.005	-0.012658
3.010	-0.012616
3.015	-0.012442
3.020	-0.012408
3.025	-0.012429
3.030	-0.012350
3.035	-0.012195
3.040	-0.011969
3.045	-0.011862
3.050	-0.011755
3.055	-0.011639
3.060	-0.011578
3.065	-0.011530
3.070	-0.011515
3.075	-0.011465
3.080	-0.011403
3.085	-0.011292
3.090	-0.011150
3.095	-0.011018
3.100	-0.010923
3.105	-0.010890
3.110	-0.010833
3.115	-0.010783
3.120	-0.010748
3.125	-0.010732
3.130	-0.010718
3.135	-0.010740
3.140	-0.010665
3.145	-0.010500
3.150	-0.010242
3.155	-0.010105
3.160	-0.010039
3.165	-0.009978
3.170	-0.009901
3.175	-0.009797
3.180	-0.009722
3.185	-0.009682
3.190	-0.009540
3.195	-0.009368
3.200	-0.009231
3.205	-0.009121
3.210	-0.009058
3.215	-0.008962
3.220	-0.008881
3.225	-0.008766
3.230	-0.008769
3.235	-0.008774
3.240	-0.008873
3.245	-0.008887
3.250	-0.008832
3.255	-0.008799
3.260	-0.008799
3.265	-0.008828
3.270	-0.008787
3.275	-0.008843
3.280	-0.008973
3.285	-0.009144
3.290	-0.009364
3.295	-0.009533
3.300	-0.009813
3.305	-0.010159
3.310	-0.010492
3.315	-0.010804
3.320	-0.010923
3.325	-0.011013
3.330	-0.010956
3.335	-0.010862
3.340	-0.010698
3.345	-0.010431
3.350	-0.010005
3.355	-0.009352
3.360	-0.008547
3.365	-0.007652
3.370	-0.006591
3.375	-0.005290
3.380	-0.003754
3.385	-0.002327
3.390	-0.001203
3.395	-0.000546
3.400	-0.000264
3.405	-0.000134
3.410	-0.000106
3.415	-0.000216
3.420	-0.000374
3.425	-0.000511
3.430	-0.000545
3.435	-0.000517
3.440	-0.000545
3.445	-0.000491
3.450	-0.000388
3.455	-0.000203
3.460	0.000044
3.465	0.000277
3.470	0.000626
3.475	0.001017
3.480	0.001531
3.485	0.002078
3.490	0.002639
3.495	0.003229
3.500	0.003900
3.505	0.004562
3.510	0.005234
3.515	0.005912
3.520	0.006537
3.525	0.007176
3.530	0.007772
3.535	0.008333
3.540	0.008848
3.545	0.009304
3.550	0.009749
3.555	0.010100
3.560	0.010384
3.565	0.010683
3.570	0.010990
3.575	0.011269
3.580	0.011506
3.585	0.011679
3.590	0.011829
3.595	0.011965
3.600	0.012108
3.605	0.012307
3.610	0.012465
3.615	0.012566
3.620	0.012674
3.625	0.012807
3.630	0.012897
3.635	0.013007
3.640	0.013153
3.645	0.013253
3.650	0.013383
3.655	0.013508
3.660	0.013659
3.665	0.013771
3.670	0.013882
3.675	0.014049
3.680	0.014209
3.685	0.014365
3.690	0.014485
3.695	0.014619
3.700	0.014739
3.705	0.014900
3.710	0.015085
3.715	0.015268
3.720	0.015406
3.725	0.015556
3.730	0.015679
3.735	0.015869
3.740	0.016089
3.745	0.016319
3.750	0.016525
3.755	0.016731
3.760	0.016934
3.765	0.017117
3.770	0.017331
3.775	0.017552
3.780	0.017779
3.785	0.018025
3.790	0.018304
3.795	0.018524
3.800	0.018789
3.805	0.019060
3.810	0.019288
3.815	0.019588
3.820	0.019908
3.825	0.020200
3.830	0.020555
3.835	0.020879
3.840	0.021227
3.845	0.021580
3.850	0.021934
3.855	0.022285
3.860	0.022712
3.865	0.023081
3.870	0.023453
3.875	0.023878
3.880	0.024277
3.885	0.024629
3.890	0.025107
3.895	0.025509
3.900	0.025969
3.905	0.026464
3.910	0.026994
3.915	0.027551
3.920	0.028110
3.925	0.028679
3.930	0.029334
3.935	0.030036
3.940	0.030749
3.945	0.031591
3.950	0.032433
3.955	0.033387
3.960	0.034356
3.965	0.035533
3.970	0.036845
3.975	0.038284
3.980	0.039940
3.985	0.041770
3.990	0.043858
3.995	0.046134
4.000	0.048682
4.005	0.051468
4.010	0.054290
4.015	0.057122
4.020	0.059709
4.025	0.062010
4.030	0.063860
4.035	0.065168
4.040	0.065810
4.045	0.065562
4.050	0.064366
4.055	0.062097
4.060	0.058846
4.065	0.054436
4.070	0.048424
4.075	0.041217
4.080	0.032987
4.085	0.024543
4.090	0.016365
4.095	0.009209
4.100	0.003446
4.105	-0.000662
4.110	-0.003314
4.115	-0.004989
4.120	-0.006025
4.125	-0.006623
4.130	-0.007090
4.135	-0.007413
4.140	-0.007661
4.145	-0.007860
4.150	-0.008086
4.155	-0.008236
4.160	-0.008347
4.165	-0.008519
4.170	-0.008621
4.175	-0.008710
4.180	-0.008780
4.185	-0.008787
4.190	-0.008705
4.195	-0.008705
4.200	-0.008692
4.205	-0.008637
4.210	-0.008689
4.215	-0.008723
4.220	-0.008797
4.225	-0.008822
4.230	-0.008831
4.235	-0.008763
4.240	-0.008781
4.245	-0.008818
4.250	-0.008856
4.255	-0.008884
4.260	-0.008905
4.265	-0.009002
4.270	-0.009023
4.275	-0.009030
4.280	-0.009045
4.285	-0.009018
4.290	-0.009135
4.295	-0.009218
4.300	-0.009264
4.305	-0.009274
4.310	-0.009308
4.315	-0.009324
4.320	-0.009378
4.325	-0.009453
4.330	-0.009459
4.335	-0.009512
4.340	-0.009500
4.345	-0.009579
4.350	-0.009586
4.355	-0.009600
4.360	-0.009609
4.365	-0.009607
4.370	-0.009630
4.375	-0.009697
4.380	-0.009744
4.385	-0.009752
4.390	-0.009779
4.395	-0.009718
4.400	-0.009719
4.405	-0.009755
4.410	-0.009857
4.415	-0.009911
4.420	-0.010013
4.425	-0.010071
4.430	-0.010122
4.435	-0.010182
4.440	-0.010205
4.445	-0.010252
4.450	-0.010286
4.455	-0.010299
4.460	-0.010321
4.465	-0.010287
4.470	-0.010288
4.475	-0.010310
4.480	-0.010391
4.485	-0.010466
4.490	-0.010583
4.495	-0.010687
4.500	-0.010769
4.505	-0.010828
4.510	-0.010875
4.515	-0.010892
4.520	-0.010913
4.525	-0.010949
4.530	-0.011085
4.535	-0.011145
4.540	-0.011198
4.545	-0.011192
4.550	-0.011234
4.555	-0.011234
4.560	-0.011304
4.565	-0.011311
4.570	-0.011344
4.575	-0.011373
4.580	-0.011381
4.585	-0.011394
4.590	-0.011416
4.595	-0.011443
4.600	-0.011477
4.605	-0.011538
4.610	-0.011543
4.615	-0.011598
4.620	-0.011622
4.625	-0.011575
4.630	-0.011604
4.635	-0.011644
4.640	-0.011779
4.645	-0.011916
4.650	-0.012089
4.655	-0.012213
4.660	-0.012350
4.665	-0.012462
4.670	-0.012579
4.675	-0.012723
4.680	-0.012805
4.685	-0.012844
4.690	-0.012859
4.695	-0.012780
4.700	-0.012724
4.705	-0.012746
4.710	-0.012780
4.715	-0.012849
4.720	-0.012897
4.725	-0.012934
4.730	-0.013024
4.735	-0.013116
4.740	-0.013177
4.745	-0.013212
4.750	-0.013279
4.755	-0.013368
4.760	-0.013440
4.765	-0.013540
4.770	-0.013533
4.775	-0.013582
4.780	-0.013706
4.785	-0.013804
4.790	-0.013920
4.795	-0.014010
4.800	-0.014090
4.805	-0.014199
4.810	-0.014317
4.815	-0.014433
4.820	-0.014556
4.825	-0.014662
4.830	-0.014775
4.835	-0.014884
4.840	-0.014929
4.845	-0.014990
4.850	-0.015058
4.855	-0.015127
4.860	-0.015188
4.865	-0.015186
4.870	-0.015167
4.875	-0.015214
4.880	-0.015286
4.885	-0.015348
4.890	-0.015476
4.895	-0.015536
4.900	-0.015687
4.905	-0.015757
4.910	-0.015829
4.915	-0.015844
4.920	-0.015896
4.925	-0.015992
4.930	-0.016110
4.935	-0.016233
4.940	-0.016304
4.945	-0.016433
4.950	-0.016643
4.955	-0.016796
4.960	-0.017058
4.965	-0.017258
4.970	-0.017423
4.975	-0.017564
4.980	-0.017673
4.985	-0.017821
4.990	-0.018015
4.995	-0.018192
5.000	-0.018325
5.005	-0.018452
5.010	-0.018576
5.015	-0.018686
5.020	-0.018870
5.025	-0.019049
5.030	-0.019242
5.035	-0.019428
5.040	-0.019634
5.045	-0.019784
5.050	-0.019983
5.055	-0.020190
5.060	-0.020441
5.065	-0.020689
5.070	-0.020897
5.075	-0.020998
5.080	-0.021136
5.085	-0.021251
5.090	-0.021367
5.095	-0.021580
5.100	-0.021746
5.105	-0.021968
5.110	-0.022231
5.115	-0.022490
5.120	-0.022779
5.125	-0.023026
5.130	-0.023290
5.135	-0.023637
5.140	-0.023842
5.145	-0.024050
5.150	-0.024349
5.155	-0.024684
5.160	-0.025092
5.165	-0.025552
5.170	-0.026022
5.175	-0.026464
5.180	-0.026895
5.185	-0.027309
5.190	-0.027753
5.195	-0.028189
5.200	-0.028677
5.205	-0.029165
5.210	-0.029652
5.215	-0.030234
5.220	-0.030804
5.225	-0.031417
5.230	-0.032016
5.235	-0.032642
5.240	-0.033325
5.245	-0.034021
5.250	-0.034811
5.255	-0.035632
5.260	-0.036547
5.265	-0.037545
5.270	-0.038534
5.275	-0.039604
5.280	-0.040819
5.285	-0.042251
5.290	-0.043890
5.295	-0.045816
5.300	-0.048001
5.305	-0.050549
5.310	-0.053173
5.315	-0.055930
5.320	-0.058656
5.325	-0.061055
5.330	-0.063209
5.335	-0.064505
5.340	-0.065595
5.345	-0.065981
5.350	-0.065307
5.355	-0.064261
5.360	-0.062172
5.365	-0.058203
5.370	-0.053336
5.375	-0.048508
5.380	-0.042579
5.385	-0.034556
5.390	-0.024717
5.395	-0.015519
5.400	-0.008461
5.405	-0.003801
5.410	-0.001123
5.415	0.000276
5.420	0.000975
5.425	0.001182
5.430	0.001271
5.435	0.001311
5.440	0.001358
5.445	0.001366
5.450	0.001365
5.455	0.001352
5.460	0.001366
5.465	0.001352
5.470	0.001318
5.475	0.001311
5.480	0.001324
5.485	0.001324
5.490	0.001277
5.495	0.001305
5.500	0.001291
5.505	0.001270
5.510	0.001256
5.515	0.001296
5.520	0.001269
5.525	0.001276
5.530	0.001269
5.535	0.001277
5.540	0.001297
5.545	0.001304
5.550	0.001256
5.555	0.001284
5.560	0.001265
5.565	0.001244
5.570	0.001229
5.575	0.001250
5.580	0.001243
5.585	0.001230
5.590	0.001243
5.595	0.001230
5.600	0.001237
5.605	0.001285
5.610	0.001298
5.615	0.001264
5.620	0.001332
5.625	0.001367
5.630	0.001443
5.635	0.001519
5.640	0.001601
5.645	0.001724
5.650	0.001834
5.655	0.001971
5.660	0.002115
5.665	0.002224
5.670	0.002354
5.675	0.002490
5.680	0.002579
5.685	0.002703
5.690	0.002779
5.695	0.002821
5.700	0.002869
5.705	0.002867
5.710	0.002798
5.715	0.002724
5.720	0.002669
5.725	0.002565
5.730	0.002408
5.735	0.002339
5.740	0.002208
5.745	0.002113
5.750	0.001975
5.755	0.001893
5.760	0.001818
5.765	0.001729
5.770	0.001679
5.775	0.001631
5.780	0.001584
5.785	0.001550
5.790	0.001536
5.795	0.001516
5.800	0.001516
5.805	0.001536
5.810	0.001494
5.815	0.001481
5.820	0.001502
5.825	0.001482
5.830	0.001455
5.835	0.001489
5.840	0.001475
5.845	0.001495
5.850	0.001482
5.855	0.001496
5.860	0.001502
5.865	0.001488
5.870	0.001523
5.875	0.001502
5.880	0.001543
5.885	0.001522
5.890	0.001544
5.895	0.001530
5.900	0.001544
5.905	0.001529
5.910	0.001577
5.915	0.001612
5.920	0.001591
5.925	0.001605
5.930	0.001591
5.935	0.001639
5.940	0.001618
5.945	0.001625
5.950	0.001619
5.955	0.001627
5.960	0.001648
5.965	0.001648
5.970	0.001667
5.975	0.001674
5.980	0.001661
5.985	0.001654
5.990	0.001695
5.995	0.001709
6.000	0.001696
6.005	0.001715
6.010	0.001708
6.015	0.001722
6.020	0.001742
6.025	0.001737
6.030	0.001758
6.035	0.001709
6.040	0.001722
6.045	0.001722
6.050	0.001770
6.055	0.001708
6.060	0.001750
6.065	0.001681
6.070	0.001778
6.075	0.001722
6.080	0.001777
6.085	0.001729
6.090	0.001758
6.095	0.001745
6.100	0.001771
6.105	0.001784
6.110	0.001784
6.115	0.001777
6.120	0.001777
6.125	0.001812
6.130	0.001792
6.135	0.001833
6.140	0.001785
6.145	0.001785
6.150	0.001832
6.155	0.001826
6.160	0.001806
6.165	0.001827
6.170	0.001805
6.175	0.001818
6.180	0.001804
6.185	0.001839
6.190	0.001839
6.195	0.001832
6.200	0.001832
6.205	0.001853
6.210	0.001859
6.215	0.001805
6.220	0.001853
6.225	0.001847
6.230	0.001847
6.235	0.001853
6.240	0.001846
6.245	0.001846
6.250	0.001853
6.255	0.001853
6.260	0.001895
6.265	0.001860
6.270	0.001929
6.275	0.001860
6.280	0.001894
6.285	0.001901
6.290	0.001895
6.295	0.001896
6.300	0.001908
6.305	0.001880
6.310	0.001894
6.315	0.001901
6.320	0.001915
6.325	0.001936
6.330	0.001922
6.335	0.001915
6.340	0.001942
6.345	0.001935
6.350	0.001914
6.355	0.001942
6.360	0.001930
6.365	0.001943
6.370	0.001942
6.375	0.001921
6.380	0.001949
6.385	0.001921
6.390	0.001990
6.395	0.002004
6.400	0.001983
6.405	0.001990
6.410	0.002003
6.415	0.001962
6.420	0.001969
6.425	0.001997
6.430	0.001963
6.435	0.001996
6.440	0.001975
6.445	0.001962
6.450	0.001968
6.455	0.002003
6.460	0.001968
6.465	0.002017
6.470	0.001975
6.475	0.002016
6.480	0.002009
6.485	0.002003
6.490	0.001997
6.495	0.002011
6.500	0.002003
6.505	0.001996
6.510	0.002044
6.515	0.002011
6.520	0.002045
6.525	0.002045
6.530	0.002032
6.535	0.002066
6.540	0.002060
6.545	0.002073
6.550	0.002066
6.555	0.002033
6.560	0.002061
6.565	0.002075
6.570	0.002081
6.575	0.002053
6.580	0.002074
6.585	0.002034
6.590	0.002089
6.595	0.002110
6.600	0.002069
6.605	0.002104
6.610	0.002117
6.615	0.002084
6.620	0.002098
6.625	0.002113
6.630	0.002065
6.635	0.002084
6.640	0.002125
6.645	0.002146
6.650	0.002133
6.655	0.002140
6.660	0.002154
6.665	0.002147
6.670	0.002146
6.675	0.002188
6.680	0.002166
6.685	0.002179
6.690	0.002186
6.695	0.002187
6.700	0.002179
6.705	0.002171
6.710	0.002184
6.715	0.002198
6.720	0.002205
6.725	0.002219
6.730	0.002212
6.735	0.002212
6.740	0.002218
6.745	0.002218
6.750	0.002244
6.755	0.002210
6.760	0.002238
6.765	0.002236
6.770	0.002254
6.775	0.002247
6.780	0.002260
6.785	0.002246
6.790	0.002266
6.795	0.002279
6.800	0.002258
6.805	0.002251
6.810	0.002251
6.815	0.002230
6.820	0.002271
6.825	0.002259
6.830	0.002246
6.835	0.002237
6.840	0.002237
6.845	0.002216
6.850	0.002223
6.855	0.002230
6.860	0.002231
6.865	0.002224
6.870	0.002244
6.875	0.002156
6.880	0.002231
6.885	0.002245
6.890	0.002233
6.895	0.002213
6.900	0.002232
6.905	0.002231
6.910	0.002218
6.915	0.002238
6.920	0.002225
6.925	0.002224
6.930	0.002245
6.935	0.002210
6.940	0.002264
6.945	0.002243
6.950	0.002235
6.955	0.002249
6.960	0.002249
6.965	0.002235
6.970	0.002247
6.975	0.002233
6.980	0.002253
6.985	0.002280
6.990	0.002267
6.995	0.002294
7.000	0.002287
7.005	0.002294
7.010	0.002300
7.015	0.002294
7.020	0.002280
7.025	0.002295
7.030	0.002308
7.035	0.002294
7.040	0.002321
7.045	0.002313
7.050	0.002334
7.055	0.002328
7.060	0.002334
7.065	0.002341
7.070	0.002334
7.075	0.002348
7.080	0.002381
7.085	0.002388
7.090	0.002362
7.095	0.002370
7.100	0.002383
7.105	0.002395
7.110	0.002375
7.115	0.002395
7.120	0.002416
7.125	0.002403
7.130	0.002409
7.135	0.002444
7.140	0.002451
7.145	0.002444
7.150	0.002457
7.155	0.002466
7.160	0.002439
7.165	0.002466
7.170	0.002452
7.175	0.002458
7.180	0.002479
7.185	0.002479
7.190	0.002472
7.195	0.002466
7.200	0.002480
7.205	0.002493
7.210	0.002499
7.215	0.002465
7.220	0.002466
7.225	0.002432
7.230	0.002474
7.235	0.002446
7.240	0.002466
7.245	0.002486
7.250	0.002473
7.255	0.002487
7.260	0.002494
7.265	0.002487
7.270	0.002536
7.275	0.002535
7.280	0.002522
7.285	0.002522
7.290	0.002565
7.295	0.002558
7.300	0.002529
7.305	0.002557
7.310	0.002549
7.315	0.002611
7.320	0.002578
7.325	0.002612
7.330	0.002627
7.335	0.002620
7.340	0.002647
7.345	0.002660
7.350	0.002626
7.355	0.002647
7.360	0.002676
7.365	0.002641
7.370	0.002667
7.375	0.002653
7.380	0.002673
7.385	0.002667
7.390	0.002680
7.395	0.002708
7.400	0.002667
7.405	0.002702
7.410	0.002708
7.415	0.002694
7.420	0.002709
7.425	0.002745
7.430	0.002737
7.435	0.002736
7.440	0.002715
7.445	0.002777
7.450	0.002770
7.455	0.002784
7.460	0.002805
7.465	0.002818
7.470	0.002819
7.475	0.002846
7.480	0.002852
7.485	0.002825
7.490	0.002846
7.495	0.002853
7.500	0.002866
7.505	0.002873
7.510	0.002886
7.515	0.002879
7.520	0.002893
7.525	0.002907
7.530	0.002879
7.535	0.002920
7.540	0.002893
7.545	0.002920
7.550	0.002933
7.555	0.002942
7.560	0.002936
7.565	0.002921
7.570	0.002933
7.575	0.002947
7.580	0.002968
7.585	0.002975
7.590	0.002988
7.595	0.002988
7.600	0.002981
7.605	0.003001
7.610	0.003007
7.615	0.003007
7.620	0.003008
7.625	0.002995
7.630	0.003016
7.635	0.003048
7.640	0.003007
7.645	0.003035
7.650	0.003069
7.655	0.003089
7.660	0.003069
7.665	0.003097
7.670	0.003096
7.675	0.003117
7.680	0.003124
7.685	0.003125
7.690	0.003132
7.695	0.003147
7.700	0.003124
7.705	0.003137
7.710	0.003157
7.715	0.003130
7.720	0.003164
7.725	0.003192
7.730	0.003199
7.735	0.003193
7.740	0.003213
7.745	0.003205
7.750	0.003219
7.755	0.003254
7.760	0.003214
7.765	0.003234
7.770	0.003260
7.775	0.003280
7.780	0.003239
7.785	0.003287
7.790	0.003288
7.795	0.003302
7.800	0.003302
7.805	0.003323
7.810	0.003343
7.815	0.003343
7.820	0.003317
7.825	0.003381
7.830	0.003346
7.835	0.003372
7.840	0.003373
7.845	0.003353
7.850	0.003354
7.855	0.003368
7.860	0.003418
7.865	0.003440
7.870	0.003488
7.875	0.003466
7.880	0.003465
7.885	0.003450
7.890	0.003464
7.895	0.003471
7.900	0.003496
7.905	0.003488
7.910	0.003521
7.915	0.003535
7.920	0.003521
7.925	0.003535
7.930	0.003548
7.935	0.003583
7.940	0.003562
7.945	0.003576
7.950	0.003569
7.955	0.003605
7.960	0.003619
7.965	0.003611
7.970	0.003623
7.975	0.003624
7.980	0.003651
7.985	0.003672
7.990	0.003699
7.995	0.003706
8.000	0.003712
8.005	0.003719
8.010	0.003725
8.015	0.003752
8.020	0.003733
8.025	0.003742
8.030	0.003769
8.035	0.003781
8.040	0.003803
8.045	0.003797
8.050	0.003798
8.055	0.003848
8.060	0.003841
8.065	0.003890
8.070	0.003891
8.075	0.003883
8.080	0.003904
8.085	0.003925
8.090	0.003913
8.095	0.003941
8.100	0.003951
8.105	0.003966
8.110	0.003988
8.115	0.003981
8.120	0.004001
8.125	0.004031
8.130	0.004039
8.135	0.004074
8.140	0.004048
8.145	0.004029
8.150	0.004083
8.155	0.004092
8.160	0.004109
8.165	0.004117
8.170	0.004109
8.175	0.004108
8.180	0.004116
8.185	0.004151
8.190	0.004130
8.195	0.004177
8.200	0.004155
8.205	0.004211
8.210	0.004211
8.215	0.004225
8.220	0.004240
8.225	0.004241
8.230	0.004273
8.235	0.004276
8.240	0.004283
8.245	0.004304
8.250	0.004330
8.255	0.004343
8.260	0.004397
8.265	0.004387
8.270	0.004405
8.275	0.004437
8.280	0.004442
8.285	0.004483
8.290	0.004483
8.295	0.004498
8.300	0.004535
8.305	0.004528
8.310	0.004528
8.315	0.004556
8.320	0.004611
8.325	0.004653
8.330	0.004619
8.335	0.004655
8.340	0.004688
8.345	0.004695
8.350	0.004722
8.355	0.004731
8.360	0.004746
8.365	0.004772
8.370	0.004763
8.375	0.004797
8.380	0.004798
8.385	0.004806
8.390	0.004841
8.395	0.004849
8.400	0.004855
8.405	0.004903
8.410	0.004886
8.415	0.004886
8.420	0.004964
8.425	0.004973
8.430	0.004952
8.435	0.004943
8.440	0.004991
8.445	0.004997
8.450	0.005031
8.455	0.005059
8.460	0.005099
8.465	0.005100
8.470	0.005128
8.475	0.005172
8.480	0.005163
8.485	0.005240
8.490	0.005301
8.495	0.005308
8.500	0.005338
8.505	0.005333
8.510	0.005281
8.515	0.005229
8.520	0.005240
8.525	0.005325
8.530	0.005334
8.535	0.005392
8.540	0.005411
8.545	0.005430
8.550	0.005471
8.555	0.005485
8.560	0.005521
8.565	0.005562
8.570	0.005540
8.575	0.005581
8.580	0.005609
8.585	0.005630
8.590	0.005636
8.595	0.005692
8.600	0.005728
8.605	0.005755
8.610	0.005742
8.615	0.005791
8.620	0.005780
8.625	0.005864
8.630	0.005870
8.635	0.005902
8.640	0.005950
8.645	0.005964
8.650	0.005991
8.655	0.005997
8.660	0.006053
8.665	0.006086
8.670	0.006106
8.675	0.006119
8.680	0.006174
8.685	0.006202
8.690	0.006218
8.695	0.006267
8.700	0.006304
8.705	0.006290
8.710	0.006358
8.715	0.006407
8.720	0.006428
8.725	0.006488
8.730	0.006495
8.735	0.006530
8.740	0.006597
8.745	0.006604
8.750	0.006617
8.755	0.006668
8.760	0.006676
8.765	0.006694
8.770	0.006741
8.775	0.006776
8.780	0.006803
8.785	0.006845
8.790	0.006900
8.795	0.006949
8.800	0.006970
8.805	0.007046
8.810	0.007054
8.815	0.007096
8.820	0.007167
8.825	0.007198
8.830	0.007238
8.835	0.007281
8.840	0.007334
8.845	0.007368
8.850	0.007418
8.855	0.007454
8.860	0.007497
8.865	0.007544
8.870	0.007612
8.875	0.007665
8.880	0.007680
8.885	0.007710
8.890	0.007746
8.895	0.007802
8.900	0.007817
8.905	0.007880
8.910	0.007936
8.915	0.007979
8.920	0.008041
8.925	0.008056
8.930	0.008180
8.935	0.008194
8.940	0.008243
8.945	0.008326
8.950	0.008375
8.955	0.008462
8.960	0.008461
8.965	0.008578
8.970	0.008632
8.975	0.008710
8.980	0.008781
8.985	0.008859
8.990	0.008888
8.995	0.008987
9.000	0.009052
9.005	0.009103
9.010	0.009176
9.015	0.009267
9.020	0.009308
9.025	0.009398
9.030	0.009473
9.035	0.009556
9.040	0.009631
9.045	0.009729
9.050	0.009760
9.055	0.009867
9.060	0.009941
9.065	0.010003
9.070	0.010053
9.075	0.010149
9.080	0.010206
9.085	0.010306
9.090	0.010386
9.095	0.010476
9.100	0.010603
9.105	0.010715
9.110	0.010793
9.115	0.010924
9.120	0.011038
9.125	0.011100
9.130	0.011223
9.135	0.011305
9.140	0.011443
9.145	0.011546
9.150	0.011700
9.155	0.011818
9.160	0.011958
9.165	0.012057
9.170	0.012206
9.175	0.012298
9.180	0.012436
9.185	0.012604
9.190	0.012760
9.195	0.012884
9.200	0.013032
9.205	0.013099
9.210	0.013147
9.215	0.013287
9.220	0.013530
9.225	0.013809
9.230	0.014061
9.235	0.014304
9.240	0.014513
9.245	0.014737
9.250	0.015016
9.255	0.015214
9.260	0.015481
9.265	0.015754
9.270	0.015996
9.275	0.016311
9.280	0.016580
9.285	0.016868
9.290	0.017175
9.295	0.017490
9.300	0.017827
9.305	0.018171
9.310	0.018519
9.315	0.018931
9.320	0.019296
9.325	0.019732
9.330	0.020173
9.335	0.020610
9.340	0.021106
9.345	0.021603
9.350	0.022201
9.355	0.022755
9.360	0.023415
9.365	0.024110
9.370	0.024929
9.375	0.025868
9.380	0.026914
9.385	0.028140
9.390	0.029628
9.395	0.031404
9.400	0.033498
9.405	0.035773
9.410	0.038237
9.415	0.040766
9.420	0.042921
9.425	0.044971
9.430	0.046545
9.435	0.047633
9.440	0.048378
9.445	0.048576
9.450	0.047856
9.455	0.046210
9.460	0.043904
9.465	0.040890
9.470	0.036807
9.475	0.031281
9.480	0.024515
9.485	0.017326
9.490	0.010803
9.495	0.005788
9.500	0.002387
9.505	0.000329
9.510	-0.000785
9.515	-0.001314
9.520	-0.001582
9.525	-0.001713
9.530	-0.001768
9.535	-0.001843
9.540	-0.001898
9.545	-0.001892
9.550	-0.001898
9.555	-0.001919
9.560	-0.001905
9.565	-0.001926
9.570	-0.001940
9.575	-0.001912
9.580	-0.001940
9.585	-0.001919
9.590	-0.001926
9.595	-0.001967
9.600	-0.001954
9.605	-0.001954
9.610	-0.001981
9.615	-0.001974
9.620	-0.001974
9.625	-0.001954
9.630	-0.001995
9.635	-0.002009
9.640	-0.001974
9.645	-0.001974
9.650	-0.001981
9.655	-0.001988
9.660	-0.001995
9.665	-0.001988
9.670	-0.001981
9.675	-0.001995
9.680	-0.002002
9.685	-0.002004
9.690	-0.002011
9.695	-0.002004
9.700	-0.001983
9.705	-0.002031
9.710	-0.002031
9.715	-0.001956
9.720	-0.001990
9.725	-0.002004
9.730	-0.002011
9.735	-0.002011
9.740	-0.002025
9.745	-0.002011
9.750	-0.002004
9.755	-0.001997
9.760	-0.002032
9.765	-0.002004
9.770	-0.002018
9.775	-0.002039
9.780	-0.002018
9.785	-0.002032
9.790	-0.002004
9.795	-0.002011
9.800	-0.002032
9.805	-0.001998
9.810	-0.002018
9.815	-0.002018
9.820	-0.002059
9.825	-0.002039
9.830	-0.002011
9.835	-0.002039
9.840	-0.002018
9.845	-0.002039
9.850	-0.002032
9.855	-0.002060
9.860	-0.002012
9.865	-0.002046
9.870	-0.002039
9.875	-0.002032
9.880	-0.002032
9.885	-0.002046
9.890	-0.002026
9.895	-0.002060
9.900	-0.002060
9.905	-0.002067
9.910	-0.002060
9.915	-0.002033
9.920	-0.002046
9.925	-0.002026
9.930	-0.002053
9.935	-0.002040
9.940	-0.002067
9.945	-0.002026
9.950	-0.002040
9.955	-0.002040
9.960	-0.002067
9.965	-0.002074
9.970	-0.002061
9.975	-0.002067
9.980	-0.002081
9.985	-0.002102
9.990	-0.002061
9.995	-0.002088
10.000	-0.002068
10.005	-0.002068
10.010	-0.002033
10.015	-0.002061
10.020	-0.002061
10.025	-0.002061
10.030	-0.002061
10.035	-0.002089
10.040	-0.002088
10.045	-0.002075
10.050	-0.002089
10.055	-0.002061
10.060	-0.002089
10.065	-0.002061
10.070	-0.002040
10.075	-0.002047
10.080	-0.002075
10.085	-0.002068
10.090	-0.002096
10.095	-0.002075
10.100	-0.002110
10.105	-0.002061
10.110	-0.002089
10.115	-0.002082
10.120	-0.002075
10.125	-0.002082
10.130	-0.002089
10.135	-0.002068
10.140	-0.002075
10.145	-0.002096
10.150	-0.002117
10.155	-0.002096
10.160	-0.002089
10.165	-0.002096
10.170	-0.002110
10.175	-0.002117
10.180	-0.002103
10.185	-0.002138
10.190	-0.002103
10.195	-0.002096
10.200	-0.002138
10.205	-0.002117
10.210	-0.002110
10.215	-0.002090
10.220	-0.002124
10.225	-0.002124
10.230	-0.002110
10.235	-0.002152
10.240	-0.002124
10.245	-0.002117
10.250	-0.002117
10.255	-0.002152
10.260	-0.002131
10.265	-0.002103
10.270	-0.002172
10.275	-0.002124
10.280	-0.002131
10.285	-0.002165
10.290	-0.002152
10.295	-0.002152
10.300	-0.002124
10.305	-0.002152
10.310	-0.002152
10.315	-0.002172
10.320	-0.002159
10.325	-0.002145
10.330	-0.002207
10.335	-0.002145
10.340	-0.002172
10.345	-0.002152
10.350	-0.002166
10.355	-0.002159
10.360	-0.002166
10.365	-0.002200
10.370	-0.002186
10.375	-0.002173
10.380	-0.002186
10.385	-0.002186
10.390	-0.002186
10.395	-0.002193
10.400	-0.002186
10.405	-0.002193
10.410	-0.002166
10.415	-0.002200
10.420	-0.002214
10.425	-0.002228
10.430	-0.002200
10.435	-0.002214
10.440	-0.002221
10.445	-0.002180
10.450	-0.002200
10.455	-0.002221
10.460	-0.002221
10.465	-0.002214
10.470	-0.002228
10.475	-0.002221
10.480	-0.002214
10.485	-0.002228
10.490	-0.002214
10.495	-0.002262
10.500	-0.002187
10.505	-0.002214
10.510	-0.002228
10.515	-0.002228
10.520	-0.002242
10.525	-0.002269
10.530	-0.002256
10.535	-0.002242
10.540	-0.002235
10.545	-0.002208
10.550	-0.002256
10.555	-0.002263
10.560	-0.002256
10.565	-0.002221
10.570	-0.002228
10.575	-0.002242
10.580	-0.002276
10.585	-0.002276
10.590	-0.002290
10.595	-0.002270
10.600	-0.002235
10.605	-0.002263
10.610	-0.002290
10.615	-0.002256
10.620	-0.002249
10.625	-0.002297
10.630	-0.002277
10.635	-0.002263
10.640	-0.002304
10.645	-0.002283
10.650	-0.002297
10.655	-0.002325
10.660	-0.002318
10.665	-0.002263
10.670	-0.002277
10.675	-0.002304
10.680	-0.002318
10.685	-0.002297
10.690	-0.002311
10.695	-0.002305
10.700	-0.002332
10.705	-0.002291
10.710	-0.002298
10.715	-0.002291
10.720	-0.002318
10.725	-0.002325
10.730	-0.002277
10.735	-0.002325
10.740	-0.002339
10.745	-0.002318
10.750	-0.002325
10.755	-0.002346
10.760	-0.002312
10.765	-0.002339
10.770	-0.002319
10.775	-0.002353
10.780	-0.002312
10.785	-0.002346
10.790	-0.002360
10.795	-0.002360
10.800	-0.002319
10.805	-0.002312
10.810	-0.002339
10.815	-0.002339
10.820	-0.002353
10.825	-0.002339
10.830	-0.002360
10.835	-0.002367
10.840	-0.002367
10.845	-0.002388
10.850	-0.002367
10.855	-0.002339
10.860	-0.002381
10.865	-0.002360
10.870	-0.002340
10.875	-0.002395
10.880	-0.002333
10.885	-0.002353
10.890	-0.002374
10.895	-0.002395
10.900	-0.002381
10.905	-0.002409
10.910	-0.002415
10.915	-0.002367
10.920	-0.002402
10.925	-0.002402
10.930	-0.002402
10.935	-0.002402
10.940	-0.002402
10.945	-0.002375
10.950	-0.002409
10.955	-0.002416
10.960	-0.002395
10.965	-0.002395
10.970	-0.002395
10.975	-0.002402
10.980	-0.002389
10.985	-0.002416
10.990	-0.002396
10.995	-0.002409
11.000	-0.002409
11.005	-0.002389
11.010	-0.002409
11.015	-0.002416
11.020	-0.002423
11.025	-0.002423
11.030	-0.002396
11.035	-0.002416
11.040	-0.002409
11.045	-0.002423
11.050	-0.002396
11.055	-0.002437
11.060	-0.002430
11.065	-0.002396
11.070	-0.002396
11.075	-0.002417
11.080	-0.002417
11.085	-0.002424
11.090	-0.002444
11.095	-0.002445
11.100	-0.002417
11.105	-0.002486
11.110	-0.002458
11.115	-0.002458
11.120	-0.002458
11.125	-0.002438
11.130	-0.002452
11.135	-0.002410
11.140	-0.002438
11.145	-0.002459
11.150	-0.002459
11.155	-0.002459
11.160	-0.002459
11.165	-0.002445
11.170	-0.002466
11.175	-0.002466
11.180	-0.002466
11.185	-0.002418
11.190	-0.002473
11.195	-0.002486
11.200	-0.002452
11.205	-0.002466
11.210	-0.002445
11.215	-0.002473
11.220	-0.002473
11.225	-0.002480
11.230	-0.002480
11.235	-0.002466
11.240	-0.002494
11.245	-0.002494
11.250	-0.002501
11.255	-0.002466
11.260	-0.002473
11.265	-0.002480
11.270	-0.002473
11.275	-0.002473
11.280	-0.002487
11.285	-0.002453
11.290	-0.002460
11.295	-0.002494
11.300	-0.002515
11.305	-0.002515
11.310	-0.002480
11.315	-0.002494
11.320	-0.002528
11.325	-0.002480
11.330	-0.002522
11.335	-0.002508
11.340	-0.002501
11.345	-0.002508
11.350	-0.002508
11.355	-0.002501
11.360	-0.002501
11.365	-0.002522
11.370	-0.002508
11.375	-0.002508
11.380	-0.002529
11.385	-0.002501
11.390	-0.002515
11.395	-0.002522
11.400	-0.002508
11.405	-0.002529
11.410	-0.002501
11.415	-0.002494
11.420	-0.002522
11.425	-0.002529
11.430	-0.002536
11.435	-0.002564
11.440	-0.002557
11.445	-0.002536
11.450	-0.002543
11.455	-0.002515
11.460	-0.002522
11.465	-0.002522
11.470	-0.002557
11.475	-0.002529
11.480	-0.002550
11.485	-0.002543
11.490	-0.002529
11.495	-0.002543
11.500	-0.002550
11.505	-0.002564
11.510	-0.002550
11.515	-0.002564
11.520	-0.002564
11.525	-0.002564
11.530	-0.002578
11.535	-0.002557
11.540	-0.002578
11.545	-0.002571
11.550	-0.002564
11.555	-0.002557
11.560	-0.002571
11.565	-0.002571
11.570	-0.002591
11.575	-0.002592
11.580	-0.002578
11.585	-0.002571
11.590	-0.002585
11.595	-0.002557
11.600	-0.002578
11.605	-0.002571
11.610	-0.002557
11.615	-0.002585
11.620	-0.002564
11.625	-0.002592
11.630	-0.002599
11.635	-0.002585
11.640	-0.002578
11.645	-0.002612
11.650	-0.002564
11.655	-0.002585
11.660	-0.002571
11.665	-0.002619
11.670	-0.002599
11.675	-0.002606
11.680	-0.002619
11.685	-0.002619
11.690	-0.002620
11.695	-0.002586
11.700	-0.002654
11.705	-0.002606
11.710	-0.002606
11.715	-0.002620
11.720	-0.002633
11.725	-0.002627
11.730	-0.002592
11.735	-0.002627
11.740	-0.002627
11.745	-0.002620
11.750	-0.002620
11.755	-0.002620
11.760	-0.002634
11.765	-0.002655
11.770	-0.002634
11.775	-0.002641
11.780	-0.002648
11.785	-0.002620
11.790	-0.002648
11.795	-0.002627
11.800	-0.002634
11.805	-0.002613
11.810	-0.002648
11.815	-0.002607
11.820	-0.002655
11.825	-0.002634
11.830	-0.002683
11.835	-0.002669
11.840	-0.002648
11.845	-0.002655
11.850	-0.002641
11.855	-0.002676
11.860	-0.002669
11.865	-0.002683
11.870	-0.002634
11.875	-0.002641
11.880	-0.002641
11.885	-0.002676
11.890	-0.002655
11.895	-0.002669
11.900	-0.002669
11.905	-0.002683
11.910	-0.002683
11.915	-0.002697
11.920	-0.002669
11.925	-0.002711
11.930	-0.002690
11.935	-0.002669
11.940	-0.002676
11.945	-0.002697
11.950	-0.002683
11.955	-0.002690
11.960	-0.002697
11.965	-0.002704
11.970	-0.002669
11.975	-0.002697
11.980	-0.002683
11.985	-0.002683
11.990	-0.002690
11.995	-0.002704
12.000	-0.002704
12.005	-0.002704
12.010	-0.002697
12.015	-0.002677
12.020	-0.002697
12.025	-0.002691
12.030	-0.002705
12.035	-0.002698
12.040	-0.002725
12.045	-0.002711
12.050	-0.002718
12.055	-0.002691
12.060	-0.002725
12.065	-0.002711
12.070	-0.002732
12.075	-0.002711
12.080	-0.002711
12.085	-0.002739
12.090	-0.002712
12.095	-0.002746
12.100	-0.002719
12.105	-0.002746
12.110	-0.002732
12.115	-0.002773
12.120	-0.002739
12.125	-0.002705
12.130	-0.002746
12.135	-0.002739
12.140	-0.002732
12.145	-0.002718
12.150	-0.002773
12.155	-0.002753
12.160	-0.002760
12.165	-0.002753
12.170	-0.002767
12.175	-0.002760
12.180	-0.002753
12.185	-0.002808
12.190	-0.002753
12.195	-0.002739
12.200	-0.002753
12.205	-0.002746
12.210	-0.002767
12.215	-0.002753
12.220	-0.002774
12.225	-0.002774
12.230	-0.002774
12.235	-0.002781
12.240	-0.002781
12.245	-0.002781
12.250	-0.002780
12.255	-0.002780
12.260	-0.002801
12.265	-0.002760
12.270	-0.002746
12.275	-0.002794
12.280	-0.002780
12.285	-0.002767
12.290	-0.002801
12.295	-0.002781
12.300	-0.002794
12.305	-0.002801
12.310	-0.002787
12.315	-0.002808
12.320	-0.002767
12.325	-0.002829
12.330	-0.002794
12.335	-0.002767
12.340	-0.002787
12.345	-0.002801
12.350	-0.002822
12.355	-0.002822
12.360	-0.002836
12.365	-0.002822
12.370	-0.002842
12.375	-0.002821
12.380	-0.002821
12.385	-0.002842
12.390	-0.002835
12.395	-0.002821
12.400	-0.002849
12.405	-0.002794
12.410	-0.002801
12.415	-0.002787
12.420	-0.002829
12.425	-0.002870
12.430	-0.002843
12.435	-0.002849
12.440	-0.002842
12.445	-0.002849
12.450	-0.002849
12.455	-0.002897
12.460	-0.002863
12.465	-0.002849
12.470	-0.002835
12.475	-0.002856
12.480	-0.002869
12.485	-0.002869
12.490	-0.002890
12.495	-0.002870
12.500	-0.002877
12.505	-0.002904
12.510	-0.002849
12.515	-0.002890
12.520	-0.002917
12.525	-0.002904
12.530	-0.002883
12.535	-0.002890
12.540	-0.002876
12.545	-0.002904
12.550	-0.002876
12.555	-0.002897
12.560	-0.002890
12.565	-0.002911
12.570	-0.002911
12.575	-0.002911
12.580	-0.002897
12.585	-0.002911
12.590	-0.002924
12.595	-0.002911
12.600	-0.002917
12.605	-0.002918
12.610	-0.002904
12.615	-0.002924
12.620	-0.002924
12.625	-0.002931
12.630	-0.002939
12.635	-0.002924
12.640	-0.002958
12.645	-0.002931
12.650	-0.002938
12.655	-0.002945
12.660	-0.002924
12.665	-0.002959
12.670	-0.002924
12.675	-0.002924
12.680	-0.002938
12.685	-0.002959
12.690	-0.002966
12.695	-0.002945
12.700	-0.002973
12.705	-0.002965
12.710	-0.002979
12.715	-0.002959
12.720	-0.002979
12.725	-0.002952
12.730	-0.002952
12.735	-0.003000
12.740	-0.002979
12.745	-0.002945
12.750	-0.002993
12.755	-0.002986
12.760	-0.002993
12.765	-0.003000
12.770	-0.003020
12.775	-0.002993
12.780	-0.003013
12.785	-0.002979
12.790	-0.003034
12.795	-0.002986
12.800	-0.002986
12.805	-0.002972
12.810	-0.003000
12.815	-0.003027
12.820	-0.002993
12.825	-0.003021
12.830	-0.003000
12.835	-0.003007
12.840	-0.003014
12.845	-0.003041
12.850	-0.003027
12.855	-0.003014
12.860	-0.003034
12.865	-0.003055
12.870	-0.003014
12.875	-0.003027
12.880	-0.003041
12.885	-0.003034
12.890	-0.003041
12.895	-0.003041
12.900	-0.003041
12.905	-0.003041
12.910	-0.003034
12.915	-0.003041
12.920	-0.003055
12.925	-0.003075
12.930	-0.003069
12.935	-0.003062
12.940	-0.003075
12.945	-0.003068
12.950	-0.003055
12.955	-0.003090
12.960	-0.003069
12.965	-0.003090
12.970	-0.003082
12.975	-0.003069
12.980	-0.003082
12.985	-0.003055
12.990	-0.003096
12.995	-0.003089
13.000	-0.003076
13.005	-0.003076
13.010	-0.003082
13.015	-0.003089
13.020	-0.003062
13.025	-0.003103
13.030	-0.003090
13.035	-0.003144
13.040	-0.003117
13.045	-0.003055
13.050	-0.003103
13.055	-0.003124
13.060	-0.003103
13.065	-0.003096
13.070	-0.003103
13.075	-0.003103
13.080	-0.003124
13.085	-0.003124
13.090	-0.003131
13.095	-0.003145
13.100	-0.003110
13.105	-0.003110
13.110	-0.003145
13.115	-0.003152
13.120	-0.003131
13.125	-0.003124
13.130	-0.003138
13.135	-0.003138
13.140	-0.003104
13.145	-0.003151
13.150	-0.003138
13.155	-0.003138
13.160	-0.003166
13.165	-0.003152
13.170	-0.003145
13.175	-0.003172
13.180	-0.003159
13.185	-0.003179
13.190	-0.003152
13.195	-0.003125
13.200	-0.003138
13.205	-0.003166
13.210	-0.003173
13.215	-0.003200
13.220	-0.003201
13.225	-0.003173
13.230	-0.003180
13.235	-0.003159
13.240	-0.003173
13.245	-0.003214
13.250	-0.003160
13.255	-0.003187
13.260	-0.003242
13.265	-0.003174
13.270	-0.003180
13.275	-0.003208
13.280	-0.003153
13.285	-0.003208
13.290	-0.003194
13.295	-0.003202
13.300	-0.003222
13.305	-0.003215
13.310	-0.003215
13.315	-0.003222
13.320	-0.003222
13.325	-0.003215
13.330	-0.003209
13.335	-0.003222
13.340	-0.003222
13.345	-0.003243
13.350	-0.003264
13.355	-0.003223
13.360	-0.003223
13.365	-0.003257
13.370	-0.003271
13.375	-0.003250
13.380	-0.003237
13.385	-0.003237
13.390	-0.003257
13.395	-0.003237
13.400	-0.003237
13.405	-0.003210
13.410	-0.003209
13.415	-0.003244
13.420	-0.003285
13.425	-0.003258
13.430	-0.003272
13.435	-0.003299
13.440	-0.003278
13.445	-0.003265
13.450	-0.003299
13.455	-0.003278
13.460	-0.003272
13.465	-0.003272
13.470	-0.003313
13.475	-0.003285
13.480	-0.003258
13.485	-0.003320
13.490	-0.003307
13.495	-0.003300
13.500	-0.003279
13.505	-0.003327
13.510	-0.003293
13.515	-0.003306
13.520	-0.003286
13.525	-0.003300
13.530	-0.003293
13.535	-0.003320
13.540	-0.003314
13.545	-0.003300
13.550	-0.003327
13.555	-0.003307
13.560	-0.003321
13.565	-0.003328
13.570	-0.003348
13.575	-0.003355
13.580	-0.003368
13.585	-0.003341
13.590	-0.003355
13.595	-0.003327
13.600	-0.003348
13.605	-0.003334
13.610	-0.003320
13.615	-0.003362
13.620	-0.003376
13.625	-0.003369
13.630	-0.003342
13.635	-0.003361
13.640	-0.003375
13.645	-0.003355
13.650	-0.003382
13.655	-0.003369
13.660	-0.003341
13.665	-0.003389
13.670	-0.003341
13.675	-0.003376
13.680	-0.003368
13.685	-0.003430
13.690	-0.003369
13.695	-0.003390
13.700	-0.003382
13.705	-0.003417
13.710	-0.003389
13.715	-0.003382
13.720	-0.003375
13.725	-0.003403
13.730	-0.003389
13.735	-0.003396
13.740	-0.003382
13.745	-0.003416
13.750	-0.003423
13.755	-0.003444
13.760	-0.003431
13.765	-0.003458
13.770	-0.003403
13.775	-0.003416
13.780	-0.003437
13.785	-0.003437
13.790	-0.003423
13.795	-0.003458
13.800	-0.003464
13.805	-0.003464
13.810	-0.003444
13.815	-0.003464
13.820	-0.003464
13.825	-0.003444
13.830	-0.003458
13.835	-0.003437
13.840	-0.003443
13.845	-0.003471
13.850	-0.003471
13.855	-0.003471
13.860	-0.003471
13.865	-0.003464
13.870	-0.003464
13.875	-0.003491
13.880	-0.003471
13.885	-0.003485
13.890	-0.003458
13.895	-0.003499
13.900	-0.003485
13.905	-0.003491
13.910	-0.003498
13.915	-0.003485
13.920	-0.003478
13.925	-0.003505
13.930	-0.003526
13.935	-0.003533
13.940	-0.003526
13.945	-0.003512
13.950	-0.003512
13.955	-0.003513
13.960	-0.003513
13.965	-0.003513
13.970	-0.003512
13.975	-0.003526
13.980	-0.003532
13.985	-0.003512
13.990	-0.003526
13.995	-0.003505
14.000	-0.003512
14.005	-0.003533
14.010	-0.003547
14.015	-0.003554
14.020	-0.003527
14.025	-0.003541
14.030	-0.003506
14.035	-0.003547
14.040	-0.003561
14.045	-0.003561
14.050	-0.003595
14.055	-0.003588
14.060	-0.003568
14.065	-0.003568
14.070	-0.003561
14.075	-0.003561
14.080	-0.003533
14.085	-0.003574
14.090	-0.003568
14.095	-0.003582
14.100	-0.003581
14.105	-0.003595
14.110	-0.003588
14.115	-0.003602
14.120	-0.003608
14.125	-0.003595
14.130	-0.003554
14.135	-0.003595
14.140	-0.003602
14.145	-0.003595
14.150	-0.003602
14.155	-0.003610
14.160	-0.003630
14.165	-0.003630
14.170	-0.003581
14.175	-0.003616
14.180	-0.003629
14.185	-0.003603
14.190	-0.003602
14.195	-0.003643
14.200	-0.003602
14.205	-0.003603
14.210	-0.003609
14.215	-0.003650
14.220	-0.003644
14.225	-0.003630
14.230	-0.003610
14.235	-0.003630
14.240	-0.003664
14.245	-0.003650
14.250	-0.003650
14.255	-0.003650
14.260	-0.003657
14.265	-0.003637
14.270	-0.003650
14.275	-0.003664
14.280	-0.003637
14.285	-0.003651
14.290	-0.003665
14.295	-0.003665
14.300	-0.003706
14.305	-0.003671
14.310	-0.003685
14.315	-0.003692
14.320	-0.003685
14.325	-0.003679
14.330	-0.003672
14.335	-0.003679
14.340	-0.003692
14.345	-0.003692
14.350	-0.003692
14.355	-0.003727
14.360	-0.003707
14.365	-0.003706
14.370	-0.003733
14.375	-0.003747
14.380	-0.003706
14.385	-0.003699
14.390	-0.003734
14.395	-0.003727
14.400	-0.003720
14.405	-0.003741
14.410	-0.003740
14.415	-0.003754
14.420	-0.003748
14.425	-0.003755
14.430	-0.003762
14.435	-0.003775
14.440	-0.003727
14.445	-0.003741
14.450	-0.003761
14.455	-0.003755
14.460	-0.003748
14.465	-0.003789
14.470	-0.003789
14.475	-0.003755
14.480	-0.003775
14.485	-0.003789
14.490	-0.003755
14.495	-0.003810
14.500	-0.003796
14.505	-0.003789
14.510	-0.003809
14.515	-0.003769
14.520	-0.003776
14.525	-0.003789
14.530	-0.003783
14.535	-0.003789
14.540	-0.003782
14.545	-0.003817
14.550	-0.003796
14.555	-0.003790
14.560	-0.003790
14.565	-0.003804
14.570	-0.003824
14.575	-0.003824
14.580	-0.003838
14.585	-0.003810
14.590	-0.003838
14.595	-0.003811
14.600	-0.003838
14.605	-0.003825
14.610	-0.003852
14.615	-0.003845
14.620	-0.003845
14.625	-0.003873
14.630	-0.003873
14.635	-0.003852
14.640	-0.003831
14.645	-0.003859
14.650	-0.003866
14.655	-0.003825
14.660	-0.003838
14.665	-0.003866
14.670	-0.003893
14.675	-0.003859
14.680	-0.003873
14.685	-0.003873
14.690	-0.003888
14.695	-0.003888
14.700	-0.003874
14.705	-0.003880
14.710	-0.003915
14.715	-0.003894
14.720	-0.003908
14.725	-0.003922
14.730	-0.003915
14.735	-0.003916
14.740	-0.003881
14.745	-0.003895
14.750	-0.003929
14.755	-0.003916
14.760	-0.003903
14.765	-0.003937
14.770	-0.003950
14.775	-0.003923
14.780	-0.003930
14.785	-0.003916
14.790	-0.003937
14.795	-0.003950
14.800	-0.003944
14.805	-0.003964
14.810	-0.003958
14.815	-0.003958
14.820	-0.003958
14.825	-0.003945
14.830	-0.003980
14.835	-0.003972
14.840	-0.003965
14.845	-0.003959
14.850	-0.003925
14.855	-0.003972
14.860	-0.003973
14.865	-0.003952
14.870	-0.003966
14.875	-0.003959
14.880	-0.003987
14.885	-0.003959
14.890	-0.003994
14.895	-0.004001
14.900	-0.004000
14.905	-0.004007
14.910	-0.003986
14.915	-0.003986
14.920	-0.003986
14.925	-0.003987
14.930	-0.004014
14.935	-0.003953
14.940	-0.004008
14.945	-0.004035
14.950	-0.004021
14.955	-0.004036
14.960	-0.004015
14.965	-0.004008
14.970	-0.004007
14.975	-0.004041
14.980	-0.004048
14.985	-0.004028
14.990	-0.004028
14.995	-0.004014
15.000	-0.004021
15.005	-0.004021
15.010	-0.004021
15.015	-0.003993
15.020	-0.004062
15.025	-0.004036
15.030	-0.004015
15.035	-0.004034
15.040	-0.004034
15.045	-0.004048
15.050	-0.004069
15.055	-0.004062
15.060	-0.004041
15.065	-0.004069
15.070	-0.004089
15.075	-0.004082
15.080	-0.004089
15.085	-0.004076
15.090	-0.004104
15.095	-0.004084
15.100	-0.004082
15.105	-0.004089
15.110	-0.004103
15.115	-0.004062
15.120	-0.004110
15.125	-0.004090
15.130	-0.004083
15.135	-0.004117
15.140	-0.004076
15.145	-0.004110
15.150	-0.004117
15.155	-0.004132
15.160	-0.004132
15.165	-0.004139
15.170	-0.004097
15.175	-0.004152
15.180	-0.004138
15.185	-0.004118
15.190	-0.004097
15.195	-0.004159
15.200	-0.004145
15.205	-0.004132
15.210	-0.004132
15.215	-0.004139
15.220	-0.004201
15.225	-0.004161
15.230	-0.004174
15.235	-0.004181
15.240	-0.004167
15.245	-0.004188
15.250	-0.004194
15.255	-0.004174
15.260	-0.004174
15.265	-0.004174
15.270	-0.004174
15.275	-0.004154
15.280	-0.004195
15.285	-0.004202
15.290	-0.004203
15.295	-0.004217
15.300	-0.004202
15.305	-0.004195
15.310	-0.004236
15.315	-0.004188
15.320	-0.004189
15.325	-0.004237
15.330	-0.004210
15.335	-0.004217
15.340	-0.004217
15.345	-0.004231
15.350	-0.004245
15.355	-0.004232
15.360	-0.004246
15.365	-0.004231
15.370	-0.004280
15.375	-0.004258
15.380	-0.004238
15.385	-0.004293
15.390	-0.004252
15.395	-0.004259
15.400	-0.004266
15.405	-0.004239
15.410	-0.004314
15.415	-0.004266
15.420	-0.004280
15.425	-0.004295
15.430	-0.004281
15.435	-0.004307
15.440	-0.004280
15.445	-0.004280
15.450	-0.004294
15.455	-0.004274
15.460	-0.004274
15.465	-0.004280
15.470	-0.004308
15.475	-0.004294
15.480	-0.004322
15.485	-0.004329
15.490	-0.004330
15.495	-0.004316
15.500	-0.004294
15.505	-0.004322
15.510	-0.004343
15.515	-0.004350
15.520	-0.004315
15.525	-0.004329
15.530	-0.004363
15.535	-0.004336
15.540	-0.004356
15.545	-0.004370
15.550	-0.004370
15.555	-0.004323
15.560	-0.004351
15.565	-0.004350
15.570	-0.004390
15.575	-0.004397
15.580	-0.004377
15.585	-0.004377
15.590	-0.004383
15.595	-0.004356
15.600	-0.004377
15.605	-0.004384
15.610	-0.004391
15.615	-0.004411
15.620	-0.004357
15.625	-0.004378
15.630	-0.004391
15.635	-0.004377
15.640	-0.004391
15.645	-0.004404
15.650	-0.004432
15.655	-0.004397
15.660	-0.004390
15.665	-0.004397
15.670	-0.004397
15.675	-0.004384
15.680	-0.004410
15.685	-0.004432
15.690	-0.004432
15.695	-0.004404
15.700	-0.004452
15.705	-0.004452
15.710	-0.004465
15.715	-0.004458
15.720	-0.004438
15.725	-0.004438
15.730	-0.004424
15.735	-0.004466
15.740	-0.004445
15.745	-0.004466
15.750	-0.004459
15.755	-0.004494
15.760	-0.004480
15.765	-0.004466
15.770	-0.004486
15.775	-0.004473
15.780	-0.004501
15.785	-0.004486
15.790	-0.004493
15.795	-0.004472
15.800	-0.004466
15.805	-0.004479
15.810	-0.004472
15.815	-0.004486
15.820	-0.004507
15.825	-0.004501
15.830	-0.004521
15.835	-0.004520
15.840	-0.004520
15.845	-0.004500
15.850	-0.004500
15.855	-0.004514
15.860	-0.004520
15.865	-0.004500
15.870	-0.004514
15.875	-0.004554
15.880	-0.004554
15.885	-0.004528
15.890	-0.004555
15.895	-0.004541
15.900	-0.004562
15.905	-0.004534
15.910	-0.004555
15.915	-0.004576
15.920	-0.004541
15.925	-0.004548
15.930	-0.004548
15.935	-0.004583
15.940	-0.004569
15.945	-0.004555
15.950	-0.004582
15.955	-0.004590
15.960	-0.004611
15.965	-0.004575
15.970	-0.004623
15.975	-0.004589
15.980	-0.004610
15.985	-0.004651
15.990	-0.004610
15.995	-0.004589
16.000	-0.004603
16.005	-0.004617
16.010	-0.004624
16.015	-0.004610
16.020	-0.004632
16.025	-0.004639
16.030	-0.004618
16.035	-0.004631
16.040	-0.004652
16.045	-0.004631
16.050	-0.004618
16.055	-0.004639
16.060	-0.004611
16.065	-0.004646
16.070	-0.004625
16.075	-0.004639
16.080	-0.004659
16.085	-0.004660
16.090	-0.004640
16.095	-0.004681
16.100	-0.004687
16.105	-0.004693
16.110	-0.004680
16.115	-0.004667
16.120	-0.004687
16.125	-0.004721
16.130	-0.004701
16.135	-0.004680
16.140	-0.004680
16.145	-0.004694
16.150	-0.004715
16.155	-0.004695
16.160	-0.004688
16.165	-0.004708
16.170	-0.004728
16.175	-0.004715
16.180	-0.004694
16.185	-0.004687
16.190	-0.004715
16.195	-0.004735
16.200	-0.004715
16.205	-0.004749
16.210	-0.004736
16.215	-0.004749
16.220	-0.004730
16.225	-0.004764
16.230	-0.004757
16.235	-0.004729
16.240	-0.004743
16.245	-0.004743
16.250	-0.004763
16.255	-0.004770
16.260	-0.004798
16.265	-0.004750
16.270	-0.004777
16.275	-0.004771
16.280	-0.004784
16.285	-0.004792
16.290	-0.004793
16.295	-0.004799
16.300	-0.004825
16.305	-0.004799
16.310	-0.004806
16.315	-0.004805
16.320	-0.004834
16.325	-0.004806
16.330	-0.004841
16.335	-0.004800
16.340	-0.004819
16.345	-0.004833
16.350	-0.004827
16.355	-0.004842
16.360	-0.004869
16.365	-0.004854
16.370	-0.004861
16.375	-0.004882
16.380	-0.004868
16.385	-0.004875
16.390	-0.004882
16.395	-0.004876
16.400	-0.004889
16.405	-0.004828
16.410	-0.004889
16.415	-0.004903
16.420	-0.004898
16.425	-0.004871
16.430	-0.004856
16.435	-0.004910
16.440	-0.004889
16.445	-0.004897
16.450	-0.004890
16.455	-0.004897
16.460	-0.004924
16.465	-0.004890
16.470	-0.004869
16.475	-0.004931
16.480	-0.004910
16.485	-0.004945
16.490	-0.004953
16.495	-0.004918
16.500	-0.004937
16.505	-0.004944
16.510	-0.004958
16.515	-0.004924
16.520	-0.004910
16.525	-0.004944
16.530	-0.004971
16.535	-0.004958
16.540	-0.004965
16.545	-0.004951
16.550	-0.004985
16.555	-0.004959
16.560	-0.004993
16.565	-0.004972
16.570	-0.004978
16.575	-0.004999
16.580	-0.005013
16.585	-0.004999
16.590	-0.005027
16.595	-0.005027
16.600	-0.005007
16.605	-0.005019
16.610	-0.005012
16.615	-0.005026
16.620	-0.005014
16.625	-0.005007
16.630	-0.005021
16.635	-0.005047
16.640	-0.005068
16.645	-0.005054
16.650	-0.005054
16.655	-0.005041
16.660	-0.005028
16.665	-0.005076
16.670	-0.005083
16.675	-0.005062
16.680	-0.005062
16.685	-0.005064
16.690	-0.005064
16.695	-0.005098
16.700	-0.005090
16.705	-0.005091
16.710	-0.005084
16.715	-0.005105
16.720	-0.005112
16.725	-0.005092
16.730	-0.005126
16.735	-0.005092
16.740	-0.005133
16.745	-0.005133
16.750	-0.005114
16.755	-0.005135
16.760	-0.005149
16.765	-0.005134
16.770	-0.005148
16.775	-0.005176
16.780	-0.005183
16.785	-0.005170
16.790	-0.005149
16.795	-0.005211
16.800	-0.005184
16.805	-0.005184
16.810	-0.005198
16.815	-0.005206
16.820	-0.005173
16.825	-0.005221
16.830	-0.005213
16.835	-0.005186
16.840	-0.005220
16.845	-0.005248
16.850	-0.005256
16.855	-0.005242
16.860	-0.005236
16.865	-0.005243
16.870	-0.005209
16.875	-0.005244
16.880	-0.005244
16.885	-0.005266
16.890	-0.005287
16.895	-0.005253
16.900	-0.005293
16.905	-0.005273
16.910	-0.005259
16.915	-0.005301
16.920	-0.005287
16.925	-0.005301
16.930	-0.005335
16.935	-0.005294
16.940	-0.005287
16.945	-0.005322
16.950	-0.005302
16.955	-0.005310
16.960	-0.005316
16.965	-0.005315
16.970	-0.005342
16.975	-0.005343
16.980	-0.005322
16.985	-0.005321
16.990	-0.005363
16.995	-0.005321
17.000	-0.005369
17.005	-0.005377
17.010	-0.005369
17.015	-0.005397
17.020	-0.005391
17.025	-0.005371
17.030	-0.005383
17.035	-0.005382
17.040	-0.005396
17.045	-0.005375
17.050	-0.005409
17.055	-0.005409
17.060	-0.005422
17.065	-0.005409
17.070	-0.005408
17.075	-0.005415
17.080	-0.005415
17.085	-0.005423
17.090	-0.005424
17.095	-0.005450
17.100	-0.005449
17.105	-0.005456
17.110	-0.005443
17.115	-0.005450
17.120	-0.005450
17.125	-0.005470
17.130	-0.005463
17.135	-0.005470
17.140	-0.005490
17.145	-0.005518
17.150	-0.005518
17.155	-0.005478
17.160	-0.005520
17.165	-0.005484
17.170	-0.005504
17.175	-0.005531
17.180	-0.005504
17.185	-0.005497
17.190	-0.005517
17.195	-0.005517
17.200	-0.005545
17.205	-0.005511
17.210	-0.005545
17.215	-0.005532
17.220	-0.005547
17.225	-0.005567
17.230	-0.005559
17.235	-0.005518
17.240	-0.005553
17.245	-0.005546
17.250	-0.005553
17.255	-0.005574
17.260	-0.005567
17.265	-0.005601
17.270	-0.005622
17.275	-0.005574
17.280	-0.005608
17.285	-0.005637
17.290	-0.005616
17.295	-0.005615
17.300	-0.005601
17.305	-0.005656
17.310	-0.005636
17.315	-0.005642
17.320	-0.005643
17.325	-0.005629
17.330	-0.005629
17.335	-0.005657
17.340	-0.005636
17.345	-0.005657
17.350	-0.005679
17.355	-0.005659
17.360	-0.005666
17.365	-0.005699
17.370	-0.005678
17.375	-0.005685
17.380	-0.005706
17.385	-0.005672
17.390	-0.005699
17.395	-0.005714
17.400	-0.005693
17.405	-0.005714
17.410	-0.005734
17.415	-0.005720
17.420	-0.005748
17.425	-0.005728
17.430	-0.005740
17.435	-0.005747
17.440	-0.005719
17.445	-0.005726
17.450	-0.005761
17.455	-0.005760
17.460	-0.005774
17.465	-0.005767
17.470	-0.005794
17.475	-0.005795
17.480	-0.005781
17.485	-0.005810
17.490	-0.005810
17.495	-0.005823
17.500	-0.005836
17.505	-0.005815
17.510	-0.005829
17.515	-0.005843
17.520	-0.005829
17.525	-0.005822
17.530	-0.005836
17.535	-0.005829
17.540	-0.005849
17.545	-0.005870
17.550	-0.005850
17.555	-0.005866
17.560	-0.005872
17.565	-0.005865
17.570	-0.005905
17.575	-0.005892
17.580	-0.005906
17.585	-0.005933
17.590	-0.005926
17.595	-0.005919
17.600	-0.005905
17.605	-0.005940
17.610	-0.005939
17.615	-0.005927
17.620	-0.005941
17.625	-0.005969
17.630	-0.005974
17.635	-0.005947
17.640	-0.005954
17.645	-0.005995
17.650	-0.005947
17.655	-0.005967
17.660	-0.005981
17.665	-0.006009
17.670	-0.005988
17.675	-0.005981
17.680	-0.005994
17.685	-0.006016
17.690	-0.006009
17.695	-0.006049
17.700	-0.006035
17.705	-0.006056
17.710	-0.006055
17.715	-0.006049
17.720	-0.006076
17.725	-0.006041
17.730	-0.006048
17.735	-0.006048
17.740	-0.006055
17.745	-0.006103
17.750	-0.006083
17.755	-0.006077
17.760	-0.006062
17.765	-0.006116
17.770	-0.006116
17.775	-0.006123
17.780	-0.006136
17.785	-0.006143
17.790	-0.006095
17.795	-0.006123
17.800	-0.006142
17.805	-0.006162
17.810	-0.006162
17.815	-0.006135
17.820	-0.006190
17.825	-0.006170
17.830	-0.006188
17.835	-0.006168
17.840	-0.006181
17.845	-0.006201
17.850	-0.006228
17.855	-0.006229
17.860	-0.006188
17.865	-0.006222
17.870	-0.006214
17.875	-0.006234
17.880	-0.006262
17.885	-0.006256
17.890	-0.006243
17.895	-0.006262
17.900	-0.006247
17.905	-0.006261
17.910	-0.006268
17.915	-0.006302
17.920	-0.006309
17.925	-0.006274
17.930	-0.006309
17.935	-0.006295
17.940	-0.006274
17.945	-0.006322
17.950	-0.006337
17.955	-0.006331
17.960	-0.006338
17.965	-0.006337
17.970	-0.006365
17.975	-0.006351
17.980	-0.006358
17.985	-0.006364
17.990	-0.006379
17.995	-0.006400
18.000	-0.006372
18.005	-0.006420
18.010	-0.006413
18.015	-0.006407
18.020	-0.006402
18.025	-0.006416
18.030	-0.006407
18.035	-0.006400
18.040	-0.006422
18.045	-0.006443
18.050	-0.006402
18.055	-0.006477
18.060	-0.006477
18.065	-0.006470
18.070	-0.006463
18.075	-0.006478
18.080	-0.006451
18.085	-0.006472
18.090	-0.006507
18.095	-0.006499
18.100	-0.006499
18.105	-0.006478
18.110	-0.006506
18.115	-0.006492
18.120	-0.006492
18.125	-0.006533
18.130	-0.006560
18.135	-0.006519
18.140	-0.006533
18.145	-0.006561
18.150	-0.006555
18.155	-0.006555
18.160	-0.006596
18.165	-0.006546
18.170	-0.006581
18.175	-0.006596
18.180	-0.006589
18.185	-0.006582
18.190	-0.006595
18.195	-0.006589
18.200	-0.006631
18.205	-0.006639
18.210	-0.006611
18.215	-0.006632
18.220	-0.006632
18.225	-0.006660
18.230	-0.006638
18.235	-0.006707
18.240	-0.006687
18.245	-0.006701
18.250	-0.006701
18.255	-0.006694
18.260	-0.006715
18.265	-0.006681
18.270	-0.006729
18.275	-0.006743
18.280	-0.006743
18.285	-0.006724
18.290	-0.006758
18.295	-0.006784
18.300	-0.006749
18.305	-0.006771
18.310	-0.006777
18.315	-0.006792
18.320	-0.006799
18.325	-0.006819
18.330	-0.006840
18.335	-0.006805
18.340	-0.006833
18.345	-0.006832
18.350	-0.006847
18.355	-0.006855
18.360	-0.006841
18.365	-0.006867
18.370	-0.006839
18.375	-0.006873
18.380	-0.006873
18.385	-0.006874
18.390	-0.006887
18.395	-0.006875
18.400	-0.006923
18.405	-0.006923
18.410	-0.006868
18.415	-0.006938
18.420	-0.006925
18.425	-0.006952
18.430	-0.006978
18.435	-0.006965
18.440	-0.006973
18.445	-0.006994
18.450	-0.007015
18.455	-0.006994
18.460	-0.007035
18.465	-0.007015
18.470	-0.007022
18.475	-0.007002
18.480	-0.007023
18.485	-0.007052
18.490	-0.007032
18.495	-0.007066
18.500	-0.007044
18.505	-0.007046
18.510	-0.007045
18.515	-0.007087
18.520	-0.007088
18.525	-0.007087
18.530	-0.007094
18.535	-0.007082
18.540	-0.007117
18.545	-0.007145
18.550	-0.007139
18.555	-0.007146
18.560	-0.007112
18.565	-0.007145
18.570	-0.007159
18.575	-0.007208
18.580	-0.007167
18.585	-0.007174
18.590	-0.007221
18.595	-0.007202
18.600	-0.007188
18.605	-0.007209
18.610	-0.007249
18.615	-0.007215
18.620	-0.007224
18.625	-0.007237
18.630	-0.007242
18.635	-0.007277
18.640	-0.007291
18.645	-0.007299
18.650	-0.007293
18.655	-0.007320
18.660	-0.007313
18.665	-0.007327
18.670	-0.007320
18.675	-0.007313
18.680	-0.007334
18.685	-0.007345
18.690	-0.007339
18.695	-0.007385
18.700	-0.007370
18.705	-0.007377
18.710	-0.007363
18.715	-0.007378
18.720	-0.007413
18.725	-0.007413
18.730	-0.007453
18.735	-0.007439
18.740	-0.007459
18.745	-0.007446
18.750	-0.007455
18.755	-0.007449
18.760	-0.007476
18.765	-0.007502
18.770	-0.007515
18.775	-0.007501
18.780	-0.007508
18.785	-0.007487
18.790	-0.007502
18.795	-0.007523
18.800	-0.007551
18.805	-0.007544
18.810	-0.007579
18.815	-0.007587
18.820	-0.007582
18.825	-0.007598
18.830	-0.007616
18.835	-0.007622
18.840	-0.007629
18.845	-0.007629
18.850	-0.007622
18.855	-0.007636
18.860	-0.007665
18.865	-0.007651
18.870	-0.007673
18.875	-0.007693
18.880	-0.007702
18.885	-0.007677
18.890	-0.007720
18.895	-0.007746
18.900	-0.007752
18.905	-0.007768
18.910	-0.007762
18.915	-0.007799
18.920	-0.007757
18.925	-0.007763
18.930	-0.007756
18.935	-0.007765
18.940	-0.007812
18.945	-0.007769
18.950	-0.007790
18.955	-0.007798
18.960	-0.007790
18.965	-0.007817
18.970	-0.007846
18.975	-0.007854
18.980	-0.007848
18.985	-0.007894
18.990	-0.007884
18.995	-0.007883
19.000	-0.007909
19.005	-0.007900
19.010	-0.007919
19.015	-0.007982
19.020	-0.007949
19.025	-0.007950
19.030	-0.007975
19.035	-0.007960
19.040	-0.008001
19.045	-0.007973
19.050	-0.008008
19.055	-0.008001
19.060	-0.008043
19.065	-0.008043
19.070	-0.008049
19.075	-0.008096
19.080	-0.008105
19.085	-0.008086
19.090	-0.008072
19.095	-0.008132
19.100	-0.008145
19.105	-0.008125
19.110	-0.008123
19.115	-0.008159
19.120	-0.008166
19.125	-0.008207
19.130	-0.008173
19.135	-0.008202
19.140	-0.008222
19.145	-0.008207
19.150	-0.008223
19.155	-0.008253
19.160	-0.008251
19.165	-0.008263
19.170	-0.008291
19.175	-0.008283
19.180	-0.008297
19.185	-0.008338
19.190	-0.008319
19.195	-0.008328
19.200	-0.008356
19.205	-0.008392
19.210	-0.008399
19.215	-0.008396
19.220	-0.008412
19.225	-0.008460
19.230	-0.008445
19.235	-0.008475
19.240	-0.008462
19.245	-0.008471
19.250	-0.008499
19.255	-0.008495
19.260	-0.008496
19.265	-0.008537
19.270	-0.008514
19.275	-0.008555
19.280	-0.008554
19.285	-0.008564
19.290	-0.008564
19.295	-0.008570
19.300	-0.008610
19.305	-0.008617
19.310	-0.008631
19.315	-0.008623
19.320	-0.008635
19.325	-0.008615
19.330	-0.008669
19.335	-0.008669
19.340	-0.008668
19.345	-0.008669
19.350	-0.008670
19.355	-0.008697
19.360	-0.008729
19.365	-0.008713
19.370	-0.008732
19.375	-0.008765
19.380	-0.008757
19.385	-0.008765
19.390	-0.008819
19.395	-0.008834
19.400	-0.008791
19.405	-0.008845
19.410	-0.008844
19.415	-0.008827
19.420	-0.008856
19.425	-0.008904
19.430	-0.008915
19.435	-0.008963
19.440	-0.008928
19.445	-0.008983
19.450	-0.008961
19.455	-0.008948
19.460	-0.008996
19.465	-0.009010
19.470	-0.008989
19.475	-0.009032
19.480	-0.009068
19.485	-0.009084
19.490	-0.009069
19.495	-0.009095
19.500	-0.009095
19.505	-0.009151
19.510	-0.009109
19.515	-0.009145
19.520	-0.009147
19.525	-0.009189
19.530	-0.009190
19.535	-0.009205
19.540	-0.009218
19.545	-0.009226
19.550	-0.009228
19.555	-0.009244
19.560	-0.009282
19.565	-0.009268
19.570	-0.009317
19.575	-0.009317
19.580	-0.009317
19.585	-0.009332
19.590	-0.009354
19.595	-0.009355
19.600	-0.009362
19.605	-0.009386
19.610	-0.009440
19.615	-0.009420
19.620	-0.009457
19.625	-0.009434
19.630	-0.009468
19.635	-0.009484
19.640	-0.009510
19.645	-0.009516
19.650	-0.009523
19.655	-0.009537
19.660	-0.009522
19.665	-0.009571
19.670	-0.009581
19.675	-0.009588
19.680	-0.009597
19.685	-0.009630
19.690	-0.009658
19.695	-0.009655
19.700	-0.009688
19.705	-0.009704
19.710	-0.009740
19.715	-0.009707
19.720	-0.009769
19.725	-0.009763
19.730	-0.009798
19.735	-0.009800
19.740	-0.009815
19.745	-0.009857
19.750	-0.009872
19.755	-0.009879
19.760	-0.009903
19.765	-0.009905
19.770	-0.009905
19.775	-0.009954
19.780	-0.009980
19.785	-0.010002
19.790	-0.010002
19.795	-0.010020
19.800	-0.010015
19.805	-0.010071
19.810	-0.010077
19.815	-0.010121
19.820	-0.010123
19.825	-0.010136
19.830	-0.010162
19.835	-0.010199
19.840	-0.010171
19.845	-0.010213
19.850	-0.010227
19.855	-0.010234
19.860	-0.010283
19.865	-0.010312
19.870	-0.010299
19.875	-0.010345
19.880	-0.010311
19.885	-0.010373
19.890	-0.010364
19.895	-0.010394
19.900	-0.010434
19.905	-0.010453
19.910	-0.010479
19.915	-0.010492
19.920	-0.010525
19.925	-0.010537
19.930	-0.010556
19.935	-0.010560
19.940	-0.010592
19.945	-0.010654
19.950	-0.010641
19.955	-0.010664
19.960	-0.010667
19.965	-0.010728
19.970	-0.010769
19.975	-0.010761
19.980	-0.010762
19.985	-0.010802
19.990	-0.010787
19.995	-0.010835
20.000	-0.010821
20.005	-0.010882
20.010	-0.010937
20.015	-0.010934
20.020	-0.010984
20.025	-0.010983
20.030	-0.011007
20.035	-0.011015
20.040	-0.011057
20.045	-0.011045
20.050	-0.011101
20.055	-0.011122
20.060	-0.011150
20.065	-0.011179
20.070	-0.011191
20.075	-0.011204
20.080	-0.011256
20.085	-0.011267
20.090	-0.011303
20.095	-0.011321
20.100	-0.011363
20.105	-0.011399
20.110	-0.011404
20.115	-0.011431
20.120	-0.011431
20.125	-0.011473
20.130	-0.011467
20.135	-0.011495
20.140	-0.011531
20.145	-0.011546
20.150	-0.011604
20.155	-0.011640
20.160	-0.011652
20.165	-0.011652
20.170	-0.011709
20.175	-0.011745
20.180	-0.011758
20.185	-0.011790
20.190	-0.011832
20.195	-0.011848
20.200	-0.011885
20.205	-0.011909
20.210	-0.011943
20.215	-0.011967
20.220	-0.011998
20.225	-0.011985
20.230	-0.012028
20.235	-0.012087
20.240	-0.012074
20.245	-0.012144
20.250	-0.012145
20.255	-0.012162
20.260	-0.012173
20.265	-0.012250
20.270	-0.012254
20.275	-0.012272
20.280	-0.012308
20.285	-0.012344
20.290	-0.012390
20.295	-0.012373
20.300	-0.012422
20.305	-0.012471
20.310	-0.012512
20.315	-0.012500
20.320	-0.012565
20.325	-0.012587
20.330	-0.012663
20.335	-0.012686
20.340	-0.012674
20.345	-0.012745
20.350	-0.012768
20.355	-0.012806
20.360	-0.012818
20.365	-0.012908
20.370	-0.012934
20.375	-0.012949
20.380	-0.013009
20.385	-0.013014
20.390	-0.013051
20.395	-0.013090
20.400	-0.013121
20.405	-0.013153
20.410	-0.013183
20.415	-0.013219
20.420	-0.013274
20.425	-0.013304
20.430	-0.013344
20.435	-0.013399
20.440	-0.013413
20.445	-0.013459
20.450	-0.013513
20.455	-0.013562
20.460	-0.013577
20.465	-0.013629
20.470	-0.013708
20.475	-0.013737
20.480	-0.013816
20.485	-0.013878
20.490	-0.013901
20.495	-0.013945
20.500	-0.014025
20.505	-0.014085
20.510	-0.014135
20.515	-0.014128
20.520	-0.014155
20.525	-0.014185
20.530	-0.014224
20.535	-0.014263
20.540	-0.014328
20.545	-0.014376
20.550	-0.014423
20.555	-0.014468
20.560	-0.014492
20.565	-0.014542
20.570	-0.014571
20.575	-0.014573
20.580	-0.014666
20.585	-0.014684
20.590	-0.014739
20.595	-0.014786
20.600	-0.014811
20.605	-0.014873
20.610	-0.014936
20.615	-0.014986
20.620	-0.015050
20.625	-0.015100
20.630	-0.015189
20.635	-0.015248
20.640	-0.015286
20.645	-0.015334
20.650	-0.015407
20.655	-0.015477
20.660	-0.015556
20.665	-0.015591
20.670	-0.015635
20.675	-0.015713
20.680	-0.015767
20.685	-0.015830
20.690	-0.015900
20.695	-0.015945
20.700	-0.016012
20.705	-0.016079
20.710	-0.016150
20.715	-0.016224
20.720	-0.016321
20.725	-0.016356
20.730	-0.016403
20.735	-0.016494
20.740	-0.016513
20.745	-0.016602
20.750	-0.016627
20.755	-0.016739
20.760	-0.016789
20.765	-0.016889
20.770	-0.016995
20.775	-0.017111
20.780	-0.017172
20.785	-0.017320
20.790	-0.017411
20.795	-0.017458
20.800	-0.017565
20.805	-0.017667
20.810	-0.017735
20.815	-0.017793
20.820	-0.017915
20.825	-0.017989
20.830	-0.018116
20.835	-0.018196
20.840	-0.018273
20.845	-0.018393
20.850	-0.018484
20.855	-0.018556
20.860	-0.018647
20.865	-0.018791
20.870	-0.018864
20.875	-0.018947
20.880	-0.019102
20.885	-0.019233
20.890	-0.019353
20.895	-0.019448
20.900	-0.019520
20.905	-0.019647
20.910	-0.019709
20.915	-0.019795
20.920	-0.019912
20.925	-0.019963
20.930	-0.020061
20.935	-0.020170
20.940	-0.020335
20.945	-0.020454
20.950	-0.020591
20.955	-0.020746
20.960	-0.020828
20.965	-0.020988
20.970	-0.021100
20.975	-0.021238
20.980	-0.021334
20.985	-0.021464
20.990	-0.021600
20.995	-0.021721
21.000	-0.021905
21.005	-0.022059
21.010	-0.022228
21.015	-0.022320
21.020	-0.022539
21.025	-0.022709
21.030	-0.022917
21.035	-0.023084
21.040	-0.023281
21.045	-0.023493
21.050	-0.023747
21.055	-0.023944
21.060	-0.024148
21.065	-0.024294
21.070	-0.024513
21.075	-0.024811
21.080	-0.025015
21.085	-0.025236
21.090	-0.025476
21.095	-0.025705
21.100	-0.026006
21.105	-0.026296
21.110	-0.026575
21.115	-0.026882
21.120	-0.027136
21.125	-0.027415
21.130	-0.027821
21.135	-0.028155
21.140	-0.028652
21.145	-0.028979
21.150	-0.029043
21.155	-0.029180
21.160	-0.029654
21.165	-0.029870
21.170	-0.030413
21.175	-0.030994
21.180	-0.031437
21.185	-0.031921
21.190	-0.032529
21.195	-0.033045
21.200	-0.033589
21.205	-0.034281
21.210	-0.034794
21.215	-0.035258
21.220	-0.036068
21.225	-0.037106
21.230	-0.037798
21.235	-0.038884
21.240	-0.039456
21.245	-0.039714
21.250	-0.041530
21.255	-0.042696
21.260	-0.043021
21.265	-0.043975
21.270	-0.045175
21.275	-0.046404
21.280	-0.047332
21.285	-0.047847
21.290	-0.047869
21.295	-0.047771
21.300	-0.047291
21.305	-0.046317
21.310	-0.044734
21.315	-0.042412
21.320	-0.039675
21.325	-0.036328
21.330	-0.032405
21.335	-0.028499
21.340	-0.024598
21.345	-0.020354
21.350	-0.015733
21.355	-0.011174
21.360	-0.007292
21.365	-0.004423
21.370	-0.002477
21.375	-0.001353
21.380	-0.000729
21.385	-0.000412
21.390	-0.000209
21.395	-0.000176
21.400	-0.000108
21.405	-0.000095
21.410	-0.000035
21.415	-0.000027
21.420	-0.000034
21.425	-0.000021
21.430	-0.000008
21.435	-0.000028
21.440	-0.000014
21.445	-0.000001
21.450	-0.000014
21.455	0.000006
21.460	0.000019
21.465	0.000013
21.470	0.000019
21.475	0.000019
21.480	0.000020
21.485	0.000007
21.490	-0.000001
21.495	-0.000001
21.500	0.000019
21.505	0.000053
21.510	0.000026
21.515	-0.000001
21.520	0.000026
21.525	0.000026
21.530	0.000033
21.535	0.000026
21.540	0.000026
21.545	0.000053
21.550	0.000019
21.555	0.000020
21.560	0.000046
21.565	0.000012
21.570	0.000018
21.575	0.000012
21.580	0.000025
21.585	0.000039
21.590	0.000032
21.595	0.000019
21.600	0.000046
21.605	0.000046
21.610	0.000032
21.615	0.000019
21.620	0.000046
21.625	0.000012
21.630	0.000018
21.635	0.000059
21.640	0.000025
21.645	0.000018
21.650	0.000032
21.655	0.000039
21.660	0.000059
21.665	0.000038
21.670	0.000045
21.675	-0.000016
21.680	0.000012
21.685	0.000026
21.690	0.000018
21.695	0.000045
21.700	0.000038
21.705	-0.000002
21.710	0.000018
21.715	0.000031
21.720	0.000018
21.725	0.000031
21.730	0.000051
21.735	0.000038
21.740	0.000058
21.745	0.000018
21.750	0.000019
21.755	0.000032
21.760	0.000024
21.765	0.000045
21.770	0.000018
21.775	0.000052
21.780	0.000072
21.785	0.000025
21.790	0.000038
21.795	0.000031
21.800	0.000024
21.805	0.000044
21.810	0.000038
21.815	0.000052
21.820	0.000038
21.825	0.000024
21.830	0.000058
21.835	0.000037
21.840	0.000024
21.845	0.000065
21.850	0.000037
21.855	0.000030
21.860	0.000051
21.865	0.000051
21.870	0.000017
21.875	0.000010
21.880	0.000065
21.885	0.000025
21.890	0.000031
21.895	0.000051
21.900	0.000037
21.905	0.000030
21.910	0.000064
21.915	0.000010
21.920	0.000051
21.925	0.000057
21.930	0.000030
21.935	0.000050
21.940	0.000037
21.945	0.000057
21.950	0.000051
21.955	0.000058
21.960	0.000050
21.965	0.000050
21.970	0.000057
21.975	0.000050
21.980	0.000009
21.985	0.000030
21.990	0.000071
21.995	0.000057
22.000	0.000057
22.005	0.000016
22.010	0.000037
22.015	0.000051
22.020	0.000057
22.025	0.000023
22.030	0.000016
22.035	0.000050
22.040	0.000023
22.045	0.000036
22.050	0.000036
22.055	0.000050
22.060	0.000036
22.065	0.000043
22.070	0.000036
22.075	0.000063
22.080	0.000064
22.085	0.000037
22.090	0.000043
22.095	0.000043
22.100	0.000022
22.105	0.000049
22.110	0.000049
22.115	0.000016
22.120	0.000022
22.125	0.000049
22.130	0.000036
22.135	0.000043
22.140	0.000036
22.145	0.000043
22.150	0.000043
22.155	0.000043
22.160	0.000015
22.165	0.000009
22.170	0.000056
22.175	0.000049
22.180	0.000022
22.185	0.000016
22.190	0.000036
22.195	0.000029
22.200	0.000036
22.205	0.000035
22.210	0.000056
22.215	0.000036
22.220	0.000029
22.225	0.000022
22.230	0.000029
22.235	0.000022
22.240	0.000042
22.245	0.000015
22.250	0.000042
22.255	0.000062
22.260	0.000055
22.265	0.000069
22.270	0.000035
22.275	0.000049
22.280	0.000008
22.285	0.000043
22.290	0.000056
22.295	0.000035
22.300	0.000028
22.305	0.000042
22.310	0.000021
22.315	0.000048
22.320	0.000015
22.325	0.000021
22.330	0.000062
22.335	0.000055
22.340	0.000048
22.345	0.000042
22.350	0.000008
22.355	0.000042
22.360	0.000028
22.365	0.000014
22.370	0.000027
22.375	-0.000013
22.380	0.000035
22.385	0.000028
22.390	0.000007
22.395	0.000028
22.400	0.000041
22.405	0.000028
22.410	0.000068
22.415	0.000035
22.420	0.000001
22.425	0.000055
22.430	0.000021
22.435	0.000007
22.440	0.000041
22.445	0.000014
22.450	0.000048
22.455	0.000027
22.460	0.000041
22.465	0.000027
22.470	0.000054
22.475	0.000027
22.480	0.000014
22.485	0.000035
22.490	0.000021
22.495	0.000034
22.500	0.000034
22.505	0.000034
22.510	0.000034
22.515	0.000034
22.520	0.000041
22.525	0.000054
22.530	0.000047
22.535	0.000041
22.540	0.000034
22.545	0.000055
22.550	0.000062
22.555	0.000041
22.560	0.000027
22.565	0.000013
22.570	0.000047
22.575	0.000034
22.580	0.000054
22.585	0.000040
22.590	0.000033
22.595	0.000040
22.600	0.000013
22.605	0.000040
22.610	0.000040
22.615	0.000027
22.620	0.000013
22.625	0.000040
22.630	0.000040
22.635	0.000047
22.640	0.000040
22.645	0.000040
22.650	0.000006
22.655	0.000033
22.660	0.000013
22.665	0.000012
22.670	0.000053
22.675	0.000013
22.680	0.000027
22.685	0.000061
22.690	0.000026
22.695	0.000006
22.700	0.000026
22.705	0.000012
22.710	0.000046
22.715	0.000019
22.720	0.000019
22.725	0.000060
22.730	0.000026
22.735	0.000039
22.740	0.000012
22.745	0.000019
22.750	0.000053
22.755	0.000019
22.760	0.000039
22.765	0.000026
22.770	0.000032
22.775	0.000026
22.780	0.000019
22.785	0.000073
22.790	0.000046
22.795	0.000019
22.800	0.000019
22.805	0.000012
22.810	0.000026
22.815	0.000047
22.820	0.000019
22.825	0.000019
22.830	0.000032
22.835	0.000025
22.840	0.000019
22.845	0.000012
22.850	0.000025
22.855	0.000025
22.860	0.000025
22.865	0.000032
22.870	0.000059
22.875	0.000039
22.880	0.000032
22.885	0.000006
22.890	0.000032
22.895	0.000039
22.900	0.000018
22.905	0.000032
22.910	0.000018
22.915	0.000025
22.920	0.000032
22.925	0.000032
22.930	0.000059
22.935	0.000018
22.940	0.000018
22.945	0.000039
22.950	0.000019
22.955	0.000039
22.960	0.000025
22.965	0.000038
22.970	0.000045
22.975	0.000052
22.980	0.000025
22.985	0.000011
22.990	0.000025
22.995	0.000025
23.000	0.000011
23.005	0.000031
23.010	0.000004
23.015	-0.000002
23.020	0.000032
23.025	0.000038
23.030	0.000004
23.035	0.000004
23.040	0.000031
23.045	0.000011
23.050	0.000058
23.055	0.000018
23.060	0.000038
23.065	0.000018
23.070	0.000024
23.075	0.000038
23.080	0.000011
23.085	0.000032
23.090	0.000038
23.095	0.000038
23.100	0.000017
23.105	0.000024
23.110	0.000004
23.115	0.000024
23.120	0.000011
23.125	0.000058
23.130	0.000017
23.135	0.000010
23.140	0.000003
23.145	0.000024
23.150	-0.000009
23.155	0.000031
23.160	0.000017
23.165	0.000037
23.170	0.000017
23.175	0.000044
23.180	0.000010
23.185	0.000024
23.190	0.000017
23.195	-0.000003
23.200	0.000017
23.205	0.000017
23.210	0.000031
23.215	0.000011
23.220	0.000038
23.225	0.000024
23.230	0.000017
23.235	0.000017
23.240	-0.000004
23.245	0.000030
23.250	0.000010
23.255	0.000037
23.260	0.000024
23.265	0.000030
23.270	0.000016
23.275	0.000017
23.280	0.000017
23.285	0.000024
23.290	0.000050
23.295	0.000037
23.300	0.000016
23.305	0.000030
23.310	0.000030
23.315	0.000037
23.320	0.000016
23.325	0.000030
23.330	0.000023
23.335	0.000016
23.340	0.000043
23.345	-0.000017
23.350	0.000017
23.355	0.000010
23.360	0.000003
23.365	0.000023
23.370	0.000030
23.375	0.000016
23.380	-0.000004
23.385	0.000043
23.390	0.000023
23.395	0.000016
23.400	0.000022
23.405	0.000043
23.410	0.000043
23.415	0.000023
23.420	0.000023
23.425	0.000036
23.430	0.000016
23.435	-0.000005
23.440	-0.000012
23.445	0.000029
23.450	0.000029
23.455	0.000022
23.460	0.000022
23.465	0.000029
23.470	0.000022
23.475	0.000029
23.480	0.000036
23.485	0.000036
23.490	0.000029
23.495	0.000029
23.500	0.000009
23.505	-0.000012
23.510	0.000022
23.515	0.000002
23.520	0.000015
23.525	0.000043
23.530	0.000022
23.535	0.000009
23.540	0.000022
23.545	-0.000012
23.550	0.000016
23.555	0.000022
23.560	-0.000005
23.565	0.000022
23.570	0.000021
23.575	0.000015
23.580	0.000008
23.585	0.000022
23.590	0.000035
23.595	0.000055
23.600	0.000021
23.605	0.000022
23.610	0.000029
23.615	0.000016
23.620	0.000029
23.625	0.000008
23.630	0.000021
23.635	-0.000005
23.640	0.000028
23.645	0.000015
23.650	0.000022
23.655	0.000022
23.660	0.000035
23.665	0.000048
23.670	0.000008
23.675	-0.000013
23.680	0.000015
23.685	0.000008
23.690	0.000035
23.695	-0.000019
23.700	0.000028
23.705	0.000001
23.710	-0.000013
23.715	-0.000013
23.720	0.000041
23.725	0.000021
23.730	0.000028
23.735	0.000028
23.740	0.000008
23.745	0.000035
23.750	0.000015
23.755	-0.000013
23.760	0.000021
23.765	0.000014
23.770	0.000021
23.775	0.000001
23.780	0.000007
23.785	0.000021
23.790	-0.000006
23.795	0.000027
23.800	0.000021
23.805	-0.000013
23.810	-0.000006
23.815	0.000028
23.820	0.000014
23.825	0.000027
23.830	-0.000007
23.835	0.000000
23.840	0.000007
23.845	0.000014
23.850	-0.000007
23.855	-0.000013
23.860	0.000020
23.865	0.000020
23.870	0.000020
23.875	0.000048
23.880	0.000008
23.885	0.000008
23.890	0.000014
23.895	0.000041
23.900	0.000020
23.905	-0.000000
23.910	0.000020
23.915	0.000020
23.920	0.000014
23.925	0.000014
23.930	0.000034
23.935	-0.000007
23.940	0.000040
23.945	0.000034
23.950	-0.000013
23.955	0.000013
23.960	-0.000007
23.965	-0.000001
23.970	0.000013
23.975	0.000006
23.980	0.000013
23.985	0.000020
23.990	0.000006
23.995	-0.000007
24.000	0.000026
24.005	0.000027
24.010	0.000034
24.015	0.000014
24.020	0.000034
24.025	0.000013
24.030	0.000033
24.035	0.000033
24.040	0.000033
24.045	0.000026
24.050	0.000033
24.055	0.000040
24.060	0.000040
24.065	0.000013
24.070	0.000019
24.075	0.000026
24.080	-0.000014
24.085	0.000040
24.090	-0.000021
24.095	-0.000014
24.100	0.000019
24.105	-0.000001
24.110	0.000039
24.115	0.000040
24.120	-0.000001
24.125	-0.000008
24.130	0.000039
24.135	0.000040
24.140	-0.000001
24.145	-0.000000
24.150	0.000013
24.155	0.000026
24.160	0.000012
24.165	0.000006
24.170	0.000026
24.175	0.000026
24.180	-0.000008
24.185	0.000026
24.190	0.000012
24.195	0.000006
24.200	0.000006
24.205	0.000012
24.210	0.000019
24.215	-0.000008
24.220	0.000019
24.225	0.000026
24.230	0.000012
24.235	0.000012
24.240	0.000025
24.245	-0.000008
24.250	0.000005
24.255	0.000026
24.260	0.000052
24.265	0.000012
24.270	0.000018
24.275	-0.000008
24.280	0.000013
24.285	-0.000008
24.290	0.000019
24.295	-0.000009
24.300	0.000005
24.305	0.000018
24.310	-0.000009
24.315	-0.000002
24.320	0.000012
24.325	0.000025
24.330	0.000012
24.335	0.000018
24.340	0.000011
24.345	0.000012
24.350	-0.000001
24.355	0.000005
24.360	0.000018
24.365	0.000005
24.370	0.000031
24.375	0.000005
24.380	0.000032
24.385	0.000011
24.390	0.000011
24.395	0.000011
24.400	0.000025
24.405	-0.000009
24.410	-0.000002
24.415	0.000012
24.420	-0.000002
24.425	-0.000009
24.430	0.000018
24.435	0.000025
24.440	0.000018
24.445	0.000031
24.450	0.000031
24.455	-0.000002
24.460	0.000038
24.465	0.000011
24.470	0.000011
24.475	0.000004
24.480	0.000005
24.485	0.000018
24.490	0.000024
24.495	0.000011
24.500	0.000017
24.505	0.000024
24.510	-0.000003
24.515	0.000017
24.520	0.000031
24.525	-0.000016
24.530	0.000004
24.535	0.000017
24.540	0.000004
24.545	0.000005
24.550	0.000011
24.555	0.000004
24.560	0.000004
24.565	-0.000010
24.570	0.000038
24.575	0.000017
24.580	0.000004
24.585	0.000017
24.590	0.000004
24.595	0.000017
24.600	0.000010
24.605	-0.000003
24.610	0.000045
24.615	0.000011
24.620	0.000004
24.625	0.000017
24.630	0.000030
24.635	0.000003
24.640	-0.000010
24.645	0.000003
24.650	0.000003
24.655	0.000031
24.660	0.000023
24.665	0.000023
24.670	0.000037
24.675	0.000010
24.680	-0.000016
24.685	0.000017
24.690	-0.000004
24.695	-0.000010
24.700	0.000044
24.705	0.000010
24.710	0.000030
24.715	-0.000024
24.720	-0.000004
24.725	0.000010
24.730	0.000030
24.735	0.000009
24.740	-0.000004
24.745	0.000010
24.750	0.000031
24.755	0.000003
24.760	0.000016
24.765	0.000002
24.770	0.000002
24.775	0.000009
24.780	0.000016
24.785	0.000023
24.790	-0.000011
24.795	0.000002
24.800	-0.000011
24.805	0.000016
24.810	0.000023
24.815	-0.000010
24.820	-0.000011
24.825	0.000029
24.830	0.000009
24.835	-0.000025
24.840	0.000023
24.845	0.000009
24.850	-0.000011
24.855	0.000002
24.860	0.000016
24.865	0.000002
24.870	0.000022
24.875	0.000002
24.880	0.000010
24.885	-0.000024
24.890	0.000022
24.895	0.000029
24.900	0.000008
24.905	-0.000005
24.910	0.000002
24.915	0.000029
24.920	0.000036
24.925	0.000009
24.930	0.000029
24.935	0.000002
24.940	0.000009
24.945	0.000009
24.950	0.000016
24.955	0.000015
24.960	-0.000005
24.965	-0.000019
24.970	-0.000005
24.975	-0.000012
24.980	0.000002
24.985	-0.000005
24.990	-0.000005
24.995	0.000022
25.000	-0.000005
25.005	-0.000012
25.010	0.000009
25.015	-0.000005
25.020	-0.000032
25.025	0.000001
25.030	0.000001
25.035	0.000015
25.040	-0.000012
25.045	0.000035
25.050	0.000008
25.055	0.000028
25.060	0.000028
25.065	0.000015
25.070	-0.000013
25.075	0.000029
25.080	0.000008
25.085	0.000009
25.090	0.000001
25.095	0.000015
25.100	-0.000012
25.105	0.000008
25.110	0.000001
25.115	0.000015
25.120	0.000008
25.125	0.000014
25.130	0.000035
25.135	-0.000006
25.140	0.000014
25.145	-0.000019
25.150	-0.000012
25.155	0.000008
25.160	-0.000013
25.165	0.000000
25.170	0.000007
25.175	0.000014
25.180	0.000014
25.185	0.000034
25.190	-0.000007
25.195	0.000021
25.200	0.000021
25.205	0.000021
25.210	0.000022
25.215	0.000022
25.220	-0.000013
25.225	0.000027
25.230	0.000007
25.235	0.000014
25.240	0.000021
25.245	-0.000020
25.250	0.000007
25.255	0.000014
25.260	-0.000013
25.265	0.000014
25.270	0.000020
25.275	0.000007
25.280	0.000014
25.285	-0.000006
25.290	0.000007
25.295	-0.000007
25.300	-0.000014
25.305	0.000041
25.310	-0.000000
25.315	0.000007
25.320	-0.000007
25.325	0.000020
25.330	-0.000007
25.335	0.000013
25.340	0.000020
25.345	0.000007
25.350	0.000014
25.355	0.000007
25.360	-0.000007
25.365	0.000020
25.370	0.000013
25.375	-0.000007
25.380	-0.000014
25.385	0.000027
25.390	0.000013
25.395	0.000020
25.400	-0.000028
25.405	0.000006
25.410	-0.000000
25.415	0.000014
25.420	-0.000007
25.425	0.000013
25.430	0.000013
25.435	0.000026
25.440	-0.000028
25.445	-0.000021
25.450	0.000013
25.455	0.000006
25.460	0.000006
25.465	0.000019
25.470	0.000047
25.475	0.000020
25.480	0.000020
25.485	0.000006
25.490	-0.000015
25.495	0.000026
25.500	0.000026
25.505	0.000026
25.510	0.000019
25.515	-0.000014
25.520	0.000012
25.525	-0.000021
25.530	0.000005
25.535	-0.000008
25.540	-0.000008
25.545	-0.000001
25.550	-0.000014
25.555	0.000005
25.560	0.000026
25.565	0.000005
25.570	0.000005
25.575	-0.000008
25.580	0.000012
25.585	-0.000002
25.590	0.000005
25.595	-0.000009
25.600	0.000012
25.605	0.000005
25.610	0.000019
25.615	-0.000008
25.620	-0.000008
25.625	0.000005
25.630	0.000005
25.635	0.000012
25.640	-0.000015
25.645	0.000019
25.650	-0.000002
25.655	0.000012
25.660	-0.000009
25.665	0.000011
25.670	-0.000009
25.675	-0.000008
25.680	-0.000008
25.685	0.000012
25.690	0.000011
25.695	0.000011
25.700	0.000004
25.705	0.000018
25.710	-0.000029
25.715	-0.000002
25.720	-0.000002
25.725	0.000004
25.730	0.000004
25.735	-0.000030
25.740	-0.000029
25.745	0.000005
25.750	-0.000008
25.755	-0.000003
25.760	0.000018
25.765	0.000004
25.770	0.000024
25.775	0.000011
25.780	0.000018
25.785	0.000004
25.790	0.000011
25.795	-0.000003
25.800	-0.000003
25.805	0.000018
25.810	0.000038
25.815	0.000025
25.820	0.000018
25.825	-0.000003
25.830	-0.000003
25.835	0.000017
25.840	-0.000003
25.845	-0.000017
25.850	0.000004
25.855	0.000011
25.860	0.000004
25.865	-0.000017
25.870	0.000010
25.875	0.000018
25.880	0.000005
25.885	0.000011
25.890	0.000017
25.895	-0.000017
25.900	-0.000024
25.905	0.000017
25.910	-0.000003
25.915	0.000010
25.920	-0.000010
25.925	-0.000003
25.930	0.000010
25.935	0.000024
25.940	0.000010
25.945	0.000004
25.950	0.000011
25.955	-0.000004
25.960	0.000003
25.965	-0.000011
25.970	0.000023
25.975	0.000024
25.980	-0.000024
25.985	-0.000004
25.990	-0.000010
25.995	0.000010
26.000	-0.000004
26.005	0.000023
26.010	-0.000017
26.015	-0.000010
26.020	0.000017
26.025	0.000010
26.030	-0.000031
26.035	0.000023
26.040	-0.000004
26.045	0.000017
26.050	0.000043
26.055	0.000003
26.060	0.000030
26.065	-0.000004
26.070	-0.000004
26.075	0.000003
26.080	0.000003
26.085	-0.000024
26.090	0.000009
26.095	0.000009
26.100	-0.000004
26.105	-0.000031
26.110	-0.000011
26.115	-0.000018
26.120	0.000003
26.125	0.000023
26.130	0.000002
26.135	0.000016
26.140	0.000003
26.145	0.000024
26.150	-0.000004
26.155	0.000016
26.160	0.000023
26.165	0.000009
26.170	0.000009
26.175	0.000009
26.180	-0.000005
26.185	-0.000032
26.190	0.000009
26.195	0.000016
26.200	0.000002
26.205	-0.000018
26.210	-0.000011
26.215	-0.000017
26.220	-0.000018
26.225	0.000029
26.230	0.000002
26.235	-0.000005
26.240	0.000015
26.245	0.000008
26.250	0.000009
26.255	0.000029
26.260	-0.000005
26.265	-0.000018
26.270	-0.000019
26.275	-0.000004
26.280	-0.000018
26.285	0.000043
26.290	0.000022
26.295	-0.000032
26.300	0.000002
26.305	0.000002
26.310	0.000029
26.315	0.000036
26.320	0.000022
26.325	-0.000019
26.330	0.000001
26.335	0.000035
26.340	-0.000012
26.345	-0.000018
26.350	0.000022
26.355	-0.000032
26.360	0.000002
26.365	0.000002
26.370	0.000029
26.375	0.000036
26.380	0.000022
26.385	-0.000019
26.390	0.000001
26.395	0.000035
26.400	-0.000012
26.405	-0.000018
