PK2650 Deflection Data
Z Position (mm)	100.000	W Position (deg)	72.00
Preform ID	Diameter (mm)	Time Stamp	Start Time	Operator	Serial Number
Test 1	25	03-Nov-22 18:05:01	03-Nov-22 18:05:53	[no user]	266007708
Radius (mm)	Deflection
-26.345	0.000020
-26.340	0.000007
-26.335	-0.000007
-26.330	0.000020
-26.325	0.000027
-26.320	0.000007
-26.315	0.000027
-26.310	-0.000000
-26.305	0.000027
-26.300	0.000027
-26.295	0.000041
-26.290	0.000041
-26.285	0.000013
-26.280	0.000013
-26.275	0.000020
-26.270	0.000033
-26.265	0.000033
-26.260	-0.000021
-26.255	0.000013
-26.250	0.000013
-26.245	0.000013
-26.240	0.000006
-26.235	0.000033
-26.230	0.000054
-26.225	0.000053
-26.220	0.000019
-26.215	0.000033
-26.210	-0.000001
-26.205	0.000026
-26.200	-0.000001
-26.195	0.000040
-26.190	-0.000008
-26.185	-0.000001
-26.180	0.000006
-26.175	0.000005
-26.170	0.000026
-26.165	0.000026
-26.160	0.000040
-26.155	0.000039
-26.150	0.000039
-26.145	0.000012
-26.140	-0.000001
-26.135	0.000032
-26.130	0.000005
-26.125	0.000012
-26.120	0.000019
-26.115	-0.000001
-26.110	0.000005
-26.105	0.000019
-26.100	0.000019
-26.095	0.000012
-26.090	0.000012
-26.085	0.000046
-26.080	0.000025
-26.075	0.000005
-26.070	0.000012
-26.065	-0.000016
-26.060	-0.000029
-26.055	0.000012
-26.050	0.000005
-26.045	-0.000022
-26.040	0.000066
-26.035	0.000032
-26.030	0.000025
-26.025	0.000012
-26.020	0.000032
-26.015	0.000045
-26.010	0.000005
-26.005	0.000032
-26.000	0.000011
-25.995	0.000004
-25.990	0.000005
-25.985	0.000005
-25.980	0.000032
-25.975	0.000052
-25.970	0.000038
-25.965	0.000045
-25.960	0.000011
-25.955	0.000018
-25.950	0.000018
-25.945	-0.000003
-25.940	0.000024
-25.935	0.000017
-25.930	0.000004
-25.925	0.000017
-25.920	-0.000002
-25.915	0.000011
-25.910	0.000011
-25.905	0.000004
-25.900	0.000004
-25.895	0.000038
-25.890	0.000024
-25.885	0.000038
-25.880	0.000017
-25.875	0.000045
-25.870	-0.000023
-25.865	0.000024
-25.860	0.000038
-25.855	0.000011
-25.850	0.000038
-25.845	0.000024
-25.840	0.000038
-25.835	0.000010
-25.830	0.000038
-25.825	0.000051
-25.820	0.000031
-25.815	0.000065
-25.810	0.000017
-25.805	0.000003
-25.800	0.000003
-25.795	-0.000004
-25.790	0.000010
-25.785	0.000004
-25.780	0.000038
-25.775	0.000024
-25.770	-0.000003
-25.765	0.000024
-25.760	0.000037
-25.755	0.000017
-25.750	0.000017
-25.745	0.000044
-25.740	0.000031
-25.735	0.000010
-25.730	0.000003
-25.725	0.000010
-25.720	-0.000017
-25.715	-0.000010
-25.710	-0.000010
-25.705	0.000030
-25.700	0.000057
-25.695	0.000030
-25.690	0.000051
-25.685	-0.000017
-25.680	0.000030
-25.675	0.000016
-25.670	0.000030
-25.665	0.000023
-25.660	0.000023
-25.655	-0.000004
-25.650	0.000010
-25.645	0.000017
-25.640	0.000030
-25.635	0.000071
-25.630	0.000016
-25.625	0.000016
-25.620	0.000030
-25.615	0.000010
-25.610	0.000037
-25.605	0.000016
-25.600	0.000009
-25.595	-0.000011
-25.590	0.000023
-25.585	0.000037
-25.580	0.000030
-25.575	0.000016
-25.570	0.000030
-25.565	0.000050
-25.560	0.000009
-25.555	0.000023
-25.550	0.000023
-25.545	0.000016
-25.540	0.000029
-25.535	0.000022
-25.530	0.000022
-25.525	0.000016
-25.520	-0.000004
-25.515	0.000023
-25.510	0.000030
-25.505	0.000036
-25.500	0.000056
-25.495	0.000050
-25.490	0.000043
-25.485	0.000063
-25.480	0.000043
-25.475	0.000023
-25.470	0.000002
-25.465	0.000009
-25.460	0.000036
-25.455	-0.000004
-25.450	0.000050
-25.445	0.000036
-25.440	0.000022
-25.435	0.000022
-25.430	0.000002
-25.425	0.000043
-25.420	0.000050
-25.415	0.000008
-25.410	0.000042
-25.405	0.000042
-25.400	0.000042
-25.395	0.000002
-25.390	0.000029
-25.385	0.000029
-25.380	0.000009
-25.375	0.000015
-25.370	0.000049
-25.365	0.000029
-25.360	0.000015
-25.355	0.000056
-25.350	0.000002
-25.345	0.000022
-25.340	0.000008
-25.335	0.000029
-25.330	-0.000005
-25.325	0.000022
-25.320	0.000029
-25.315	0.000029
-25.310	0.000042
-25.305	0.000015
-25.300	0.000049
-25.295	0.000022
-25.290	0.000029
-25.285	0.000028
-25.280	0.000035
-25.275	0.000022
-25.270	0.000035
-25.265	0.000015
-25.260	0.000001
-25.255	-0.000012
-25.250	0.000036
-25.245	0.000001
-25.240	0.000035
-25.235	0.000028
-25.230	0.000049
-25.225	0.000056
-25.220	0.000028
-25.215	0.000015
-25.210	0.000008
-25.205	0.000055
-25.200	0.000008
-25.195	0.000015
-25.190	0.000008
-25.185	0.000049
-25.180	0.000042
-25.175	0.000015
-25.170	0.000035
-25.165	0.000021
-25.160	0.000021
-25.155	0.000014
-25.150	0.000008
-25.145	0.000035
-25.140	0.000008
-25.135	0.000014
-25.130	0.000048
-25.125	0.000028
-25.120	0.000049
-25.115	0.000028
-25.110	0.000035
-25.105	0.000035
-25.100	0.000048
-25.095	0.000021
-25.090	0.000041
-25.085	0.000041
-25.080	0.000021
-25.075	0.000028
-25.070	0.000021
-25.065	0.000028
-25.060	0.000014
-25.055	0.000042
-25.050	0.000015
-25.045	0.000035
-25.040	0.000028
-25.035	0.000034
-25.030	0.000028
-25.025	0.000041
-25.020	0.000048
-25.015	0.000028
-25.010	0.000034
-25.005	0.000014
-25.000	0.000034
-24.995	0.000014
-24.990	0.000021
-24.985	0.000028
-24.980	0.000035
-24.975	0.000041
-24.970	0.000055
-24.965	0.000055
-24.960	0.000028
-24.955	0.000041
-24.950	0.000048
-24.945	0.000000
-24.940	0.000007
-24.935	0.000014
-24.930	0.000021
-24.925	0.000034
-24.920	0.000028
-24.915	0.000041
-24.910	0.000027
-24.905	0.000041
-24.900	0.000034
-24.895	0.000041
-24.890	0.000054
-24.885	0.000034
-24.880	0.000034
-24.875	0.000048
-24.870	0.000027
-24.865	0.000013
-24.860	0.000014
-24.855	0.000014
-24.850	0.000041
-24.845	0.000027
-24.840	0.000027
-24.835	0.000014
-24.830	0.000041
-24.825	0.000020
-24.820	0.000014
-24.815	0.000034
-24.810	0.000068
-24.805	0.000041
-24.800	0.000041
-24.795	0.000007
-24.790	0.000048
-24.785	0.000041
-24.780	0.000028
-24.775	0.000027
-24.770	0.000047
-24.765	0.000020
-24.760	0.000054
-24.755	0.000020
-24.750	0.000047
-24.745	0.000020
-24.740	0.000047
-24.735	0.000034
-24.730	0.000041
-24.725	0.000027
-24.720	0.000007
-24.715	0.000021
-24.710	0.000061
-24.705	0.000034
-24.700	0.000020
-24.695	0.000075
-24.690	0.000054
-24.685	0.000027
-24.680	0.000020
-24.675	0.000020
-24.670	0.000054
-24.665	0.000020
-24.660	0.000006
-24.655	0.000027
-24.650	0.000027
-24.645	0.000047
-24.640	0.000061
-24.635	0.000033
-24.630	0.000054
-24.625	0.000047
-24.620	0.000040
-24.615	0.000020
-24.610	0.000040
-24.605	0.000019
-24.600	0.000020
-24.595	0.000026
-24.590	0.000020
-24.585	0.000054
-24.580	0.000027
-24.575	0.000040
-24.570	0.000033
-24.565	0.000020
-24.560	0.000027
-24.555	0.000020
-24.550	0.000040
-24.545	0.000033
-24.540	0.000020
-24.535	0.000040
-24.530	0.000040
-24.525	0.000013
-24.520	0.000020
-24.515	0.000027
-24.510	0.000026
-24.505	0.000047
-24.500	0.000047
-24.495	0.000067
-24.490	0.000040
-24.485	0.000053
-24.480	0.000019
-24.475	0.000026
-24.470	0.000053
-24.465	0.000033
-24.460	0.000046
-24.455	0.000033
-24.450	0.000026
-24.445	0.000033
-24.440	0.000033
-24.435	0.000067
-24.430	0.000074
-24.425	0.000033
-24.420	0.000040
-24.415	0.000040
-24.410	0.000047
-24.405	0.000033
-24.400	0.000040
-24.395	0.000012
-24.390	0.000019
-24.385	0.000047
-24.380	0.000054
-24.375	0.000033
-24.370	0.000060
-24.365	0.000080
-24.360	0.000019
-24.355	0.000053
-24.350	0.000066
-24.345	0.000060
-24.340	0.000039
-24.335	0.000053
-24.330	0.000046
-24.325	0.000032
-24.320	0.000019
-24.315	0.000046
-24.310	0.000005
-24.305	0.000046
-24.300	0.000060
-24.295	0.000053
-24.290	0.000073
-24.285	0.000046
-24.280	0.000039
-24.275	0.000039
-24.270	0.000039
-24.265	0.000052
-24.260	0.000032
-24.255	0.000032
-24.250	0.000012
-24.245	0.000032
-24.240	0.000059
-24.235	0.000032
-24.230	0.000046
-24.225	0.000018
-24.220	0.000052
-24.215	0.000066
-24.210	0.000025
-24.205	0.000045
-24.200	0.000005
-24.195	0.000032
-24.190	0.000025
-24.185	0.000019
-24.180	0.000039
-24.175	0.000032
-24.170	0.000052
-24.165	0.000045
-24.160	0.000073
-24.155	0.000052
-24.150	0.000052
-24.145	0.000045
-24.140	0.000011
-24.135	0.000018
-24.130	0.000045
-24.125	0.000038
-24.120	0.000032
-24.115	-0.000002
-24.110	0.000032
-24.105	0.000038
-24.100	0.000038
-24.095	0.000093
-24.090	0.000038
-24.085	0.000031
-24.080	0.000025
-24.075	0.000038
-24.070	0.000025
-24.065	0.000018
-24.060	0.000018
-24.055	0.000011
-24.050	0.000032
-24.045	-0.000003
-24.040	0.000058
-24.035	0.000045
-24.030	0.000038
-24.025	0.000024
-24.020	0.000018
-24.015	0.000052
-24.010	0.000052
-24.005	0.000024
-24.000	0.000045
-23.995	0.000010
-23.990	0.000031
-23.985	0.000011
-23.980	0.000025
-23.975	0.000011
-23.970	0.000051
-23.965	0.000038
-23.960	0.000045
-23.955	0.000024
-23.950	0.000058
-23.945	0.000044
-23.940	0.000031
-23.935	0.000017
-23.930	0.000044
-23.925	0.000017
-23.920	0.000004
-23.915	0.000010
-23.910	0.000064
-23.905	0.000030
-23.900	0.000017
-23.895	0.000017
-23.890	0.000051
-23.885	0.000017
-23.880	0.000030
-23.875	0.000017
-23.870	0.000037
-23.865	0.000010
-23.860	0.000023
-23.855	0.000017
-23.850	0.000024
-23.845	0.000030
-23.840	0.000030
-23.835	0.000037
-23.830	0.000030
-23.825	0.000023
-23.820	0.000043
-23.815	0.000044
-23.810	0.000064
-23.805	0.000023
-23.800	0.000009
-23.795	0.000043
-23.790	0.000023
-23.785	0.000023
-23.780	0.000037
-23.775	0.000036
-23.770	0.000030
-23.765	0.000030
-23.760	0.000050
-23.755	0.000050
-23.750	0.000037
-23.745	0.000036
-23.740	0.000009
-23.735	0.000036
-23.730	0.000016
-23.725	0.000023
-23.720	0.000023
-23.715	0.000023
-23.710	0.000036
-23.705	0.000029
-23.700	0.000057
-23.695	0.000050
-23.690	0.000036
-23.685	0.000036
-23.680	0.000016
-23.675	0.000016
-23.670	-0.000005
-23.665	0.000022
-23.660	0.000022
-23.655	0.000030
-23.650	0.000016
-23.645	-0.000012
-23.640	0.000049
-23.635	0.000022
-23.630	0.000022
-23.625	0.000022
-23.620	0.000050
-23.615	0.000002
-23.610	0.000029
-23.605	0.000002
-23.600	-0.000005
-23.595	-0.000026
-23.590	0.000016
-23.585	-0.000005
-23.580	-0.000025
-23.575	0.000035
-23.570	0.000008
-23.565	0.000008
-23.560	0.000015
-23.555	0.000008
-23.550	0.000022
-23.545	0.000008
-23.540	0.000008
-23.535	-0.000040
-23.530	0.000001
-23.525	-0.000012
-23.520	-0.000032
-23.515	-0.000012
-23.510	-0.000033
-23.505	0.000008
-23.500	0.000022
-23.495	-0.000006
-23.490	-0.000033
-23.485	-0.000019
-23.480	-0.000019
-23.475	-0.000019
-23.470	-0.000020
-23.465	-0.000020
-23.460	-0.000020
-23.455	-0.000006
-23.450	-0.000012
-23.445	-0.000013
-23.440	0.000001
-23.435	0.000001
-23.430	0.000007
-23.425	0.000035
-23.420	-0.000020
-23.415	0.000001
-23.410	-0.000013
-23.405	-0.000020
-23.400	-0.000020
-23.395	-0.000007
-23.390	0.000007
-23.385	-0.000013
-23.380	0.000007
-23.375	0.000014
-23.370	-0.000007
-23.365	0.000007
-23.360	-0.000020
-23.355	0.000000
-23.350	0.000007
-23.345	-0.000027
-23.340	-0.000020
-23.335	-0.000027
-23.330	0.000007
-23.325	0.000000
-23.320	-0.000020
-23.315	-0.000006
-23.310	-0.000020
-23.305	-0.000000
-23.300	0.000007
-23.295	-0.000014
-23.290	0.000007
-23.285	0.000013
-23.280	-0.000014
-23.275	0.000013
-23.270	-0.000007
-23.265	-0.000014
-23.260	-0.000034
-23.255	-0.000000
-23.250	-0.000000
-23.245	-0.000028
-23.240	-0.000007
-23.235	-0.000007
-23.230	-0.000021
-23.225	0.000013
-23.220	0.000006
-23.215	-0.000028
-23.210	-0.000014
-23.205	-0.000014
-23.200	0.000013
-23.195	-0.000014
-23.190	-0.000014
-23.185	-0.000000
-23.180	-0.000014
-23.175	-0.000014
-23.170	-0.000035
-23.165	-0.000028
-23.160	-0.000008
-23.155	-0.000015
-23.150	-0.000014
-23.145	0.000006
-23.140	-0.000015
-23.135	-0.000022
-23.130	0.000006
-23.125	-0.000028
-23.120	-0.000014
-23.115	-0.000021
-23.110	0.000013
-23.105	-0.000015
-23.100	-0.000001
-23.095	-0.000015
-23.090	-0.000001
-23.085	-0.000008
-23.080	-0.000008
-23.075	-0.000029
-23.070	-0.000022
-23.065	-0.000035
-23.060	-0.000022
-23.055	-0.000015
-23.050	-0.000042
-23.045	-0.000015
-23.040	-0.000002
-23.035	-0.000001
-23.030	0.000019
-23.025	-0.000001
-23.020	-0.000008
-23.015	-0.000036
-23.010	-0.000002
-23.005	-0.000029
-23.000	-0.000022
-22.995	-0.000036
-22.990	0.000006
-22.985	-0.000028
-22.980	-0.000029
-22.975	-0.000022
-22.970	-0.000002
-22.965	-0.000008
-22.960	-0.000002
-22.955	-0.000029
-22.950	0.000005
-22.945	-0.000015
-22.940	-0.000036
-22.935	-0.000009
-22.930	-0.000002
-22.925	-0.000029
-22.920	-0.000015
-22.915	-0.000042
-22.910	-0.000002
-22.905	0.000005
-22.900	-0.000022
-22.895	-0.000016
-22.890	-0.000016
-22.885	0.000011
-22.880	-0.000016
-22.875	-0.000016
-22.870	-0.000029
-22.865	-0.000063
-22.860	-0.000036
-22.855	-0.000015
-22.850	-0.000015
-22.845	-0.000002
-22.840	-0.000023
-22.835	0.000004
-22.830	0.000005
-22.825	-0.000022
-22.820	-0.000036
-22.815	-0.000009
-22.810	-0.000030
-22.805	-0.000036
-22.800	-0.000023
-22.795	-0.000003
-22.790	-0.000029
-22.785	0.000005
-22.780	-0.000016
-22.775	-0.000009
-22.770	-0.000009
-22.765	0.000018
-22.760	-0.000016
-22.755	0.000004
-22.750	0.000011
-22.745	-0.000016
-22.740	-0.000023
-22.735	-0.000030
-22.730	-0.000037
-22.725	-0.000030
-22.720	-0.000029
-22.715	0.000004
-22.710	-0.000003
-22.705	-0.000003
-22.700	-0.000010
-22.695	0.000011
-22.690	0.000004
-22.685	-0.000016
-22.680	-0.000050
-22.675	0.000004
-22.670	0.000004
-22.665	-0.000030
-22.660	-0.000023
-22.655	-0.000043
-22.650	-0.000030
-22.645	-0.000017
-22.640	-0.000010
-22.635	-0.000003
-22.630	0.000017
-22.625	-0.000037
-22.620	-0.000024
-22.615	-0.000010
-22.610	-0.000024
-22.605	-0.000024
-22.600	-0.000024
-22.595	-0.000044
-22.590	-0.000051
-22.585	-0.000023
-22.580	-0.000030
-22.575	-0.000044
-22.570	0.000003
-22.565	-0.000017
-22.560	-0.000024
-22.555	-0.000003
-22.550	-0.000030
-22.545	-0.000038
-22.540	0.000010
-22.535	-0.000038
-22.530	-0.000044
-22.525	-0.000065
-22.520	-0.000051
-22.515	-0.000024
-22.510	-0.000031
-22.505	-0.000024
-22.500	-0.000031
-22.495	-0.000031
-22.490	-0.000004
-22.485	-0.000052
-22.480	-0.000038
-22.475	-0.000045
-22.470	-0.000038
-22.465	-0.000058
-22.460	-0.000045
-22.455	-0.000038
-22.450	-0.000024
-22.445	0.000003
-22.440	-0.000038
-22.435	0.000003
-22.430	-0.000065
-22.425	0.000010
-22.420	-0.000058
-22.415	0.000003
-22.410	-0.000058
-22.405	-0.000065
-22.400	-0.000025
-22.395	-0.000052
-22.390	-0.000051
-22.385	-0.000045
-22.380	-0.000038
-22.375	-0.000025
-22.370	-0.000011
-22.365	0.000016
-22.360	-0.000011
-22.355	-0.000025
-22.350	-0.000011
-22.345	-0.000039
-22.340	-0.000052
-22.335	-0.000025
-22.330	-0.000039
-22.325	-0.000031
-22.320	-0.000024
-22.315	-0.000025
-22.310	-0.000039
-22.305	-0.000011
-22.300	-0.000025
-22.295	-0.000032
-22.290	-0.000005
-22.285	-0.000011
-22.280	-0.000025
-22.275	-0.000046
-22.270	-0.000046
-22.265	-0.000032
-22.260	-0.000025
-22.255	-0.000045
-22.250	-0.000059
-22.245	-0.000046
-22.240	-0.000005
-22.235	-0.000052
-22.230	0.000009
-22.225	-0.000032
-22.220	-0.000025
-22.215	-0.000025
-22.210	-0.000053
-22.205	-0.000032
-22.200	-0.000066
-22.195	-0.000039
-22.190	-0.000025
-22.185	-0.000045
-22.180	-0.000019
-22.175	-0.000046
-22.170	-0.000032
-22.165	-0.000012
-22.160	-0.000066
-22.155	-0.000039
-22.150	-0.000053
-22.145	-0.000032
-22.140	-0.000026
-22.135	-0.000060
-22.130	-0.000060
-22.125	-0.000053
-22.120	-0.000059
-22.115	-0.000018
-22.110	-0.000026
-22.105	-0.000053
-22.100	-0.000032
-22.095	-0.000005
-22.090	-0.000019
-22.085	-0.000053
-22.080	-0.000012
-22.075	-0.000033
-22.070	-0.000046
-22.065	-0.000080
-22.060	-0.000033
-22.055	-0.000046
-22.050	-0.000053
-22.045	-0.000033
-22.040	-0.000033
-22.035	-0.000053
-22.030	-0.000033
-22.025	-0.000046
-22.020	-0.000019
-22.015	-0.000053
-22.010	-0.000060
-22.005	-0.000060
-22.000	-0.000046
-21.995	-0.000040
-21.990	-0.000039
-21.985	0.000002
-21.980	-0.000033
-21.975	-0.000060
-21.970	-0.000040
-21.965	-0.000033
-21.960	-0.000006
-21.955	-0.000067
-21.950	-0.000020
-21.945	-0.000013
-21.940	-0.000033
-21.935	-0.000040
-21.930	-0.000033
-21.925	-0.000040
-21.920	-0.000046
-21.915	-0.000006
-21.910	-0.000020
-21.905	-0.000020
-21.900	-0.000006
-21.895	-0.000040
-21.890	-0.000020
-21.885	-0.000040
-21.880	-0.000040
-21.875	-0.000047
-21.870	-0.000033
-21.865	-0.000054
-21.860	-0.000040
-21.855	-0.000040
-21.850	-0.000033
-21.845	-0.000026
-21.840	-0.000047
-21.835	-0.000061
-21.830	-0.000047
-21.825	-0.000020
-21.820	-0.000020
-21.815	-0.000061
-21.810	-0.000020
-21.805	-0.000027
-21.800	-0.000040
-21.795	-0.000040
-21.790	-0.000040
-21.785	-0.000081
-21.780	-0.000020
-21.775	-0.000027
-21.770	-0.000040
-21.765	-0.000027
-21.760	-0.000033
-21.755	-0.000027
-21.750	-0.000020
-21.745	-0.000047
-21.740	-0.000020
-21.735	-0.000034
-21.730	-0.000020
-21.725	-0.000054
-21.720	-0.000047
-21.715	-0.000040
-21.710	-0.000007
-21.705	-0.000014
-21.700	-0.000007
-21.695	-0.000048
-21.690	-0.000027
-21.685	-0.000020
-21.680	-0.000020
-21.675	-0.000041
-21.670	-0.000054
-21.665	-0.000054
-21.660	-0.000041
-21.655	-0.000047
-21.650	-0.000034
-21.645	-0.000041
-21.640	-0.000021
-21.635	-0.000014
-21.630	-0.000020
-21.625	-0.000007
-21.620	-0.000014
-21.615	-0.000034
-21.610	-0.000020
-21.605	-0.000007
-21.600	-0.000034
-21.595	-0.000034
-21.590	-0.000020
-21.585	-0.000041
-21.580	-0.000020
-21.575	-0.000000
-21.570	-0.000007
-21.565	-0.000014
-21.560	-0.000027
-21.555	0.000013
-21.550	-0.000021
-21.545	-0.000048
-21.540	-0.000014
-21.535	-0.000028
-21.530	-0.000028
-21.525	-0.000034
-21.520	-0.000014
-21.515	-0.000055
-21.510	-0.000007
-21.505	0.000006
-21.500	-0.000007
-21.495	-0.000014
-21.490	0.000006
-21.485	0.000013
-21.480	-0.000014
-21.475	0.000006
-21.470	0.000006
-21.465	0.000013
-21.460	0.000020
-21.455	0.000068
-21.450	0.000102
-21.445	0.000129
-21.440	0.000259
-21.435	0.000396
-21.430	0.000636
-21.425	0.000966
-21.420	0.001420
-21.415	0.002042
-21.410	0.002889
-21.405	0.003911
-21.400	0.005211
-21.395	0.006744
-21.390	0.008557
-21.385	0.010699
-21.380	0.013213
-21.375	0.016060
-21.370	0.019107
-21.365	0.022424
-21.360	0.025897
-21.355	0.029553
-21.350	0.033242
-21.345	0.036864
-21.340	0.040592
-21.335	0.044271
-21.330	0.047765
-21.325	0.050497
-21.320	0.050483
-21.315	0.049533
-21.310	0.048719
-21.305	0.046802
-21.300	0.045194
-21.295	0.044352
-21.290	0.043452
-21.285	0.042547
-21.280	0.041954
-21.275	0.041380
-21.270	0.040009
-21.265	0.038813
-21.260	0.037948
-21.255	0.036928
-21.250	0.036287
-21.245	0.035778
-21.240	0.034926
-21.235	0.034334
-21.230	0.034032
-21.225	0.033382
-21.220	0.032820
-21.215	0.032314
-21.210	0.031902
-21.205	0.031486
-21.200	0.031150
-21.195	0.030829
-21.190	0.030634
-21.185	0.030608
-21.180	0.029924
-21.175	0.029034
-21.170	0.028627
-21.165	0.028419
-21.160	0.028104
-21.155	0.027551
-21.150	0.027224
-21.145	0.027169
-21.140	0.027243
-21.135	0.027455
-21.130	0.027094
-21.125	0.026213
-21.120	0.025821
-21.115	0.025674
-21.110	0.025504
-21.105	0.025236
-21.100	0.025085
-21.095	0.024956
-21.090	0.024653
-21.085	0.024314
-21.080	0.024079
-21.075	0.023919
-21.070	0.023701
-21.065	0.023459
-21.060	0.023173
-21.055	0.022970
-21.050	0.022810
-21.045	0.022747
-21.040	0.022617
-21.035	0.022437
-21.030	0.022277
-21.025	0.022154
-21.020	0.022006
-21.015	0.021876
-21.010	0.021789
-21.005	0.021707
-21.000	0.021637
-20.995	0.021531
-20.990	0.021338
-20.985	0.021102
-20.980	0.020933
-20.975	0.020791
-20.970	0.020688
-20.965	0.020550
-20.960	0.020417
-20.955	0.020271
-20.950	0.020194
-20.945	0.020040
-20.940	0.019927
-20.935	0.019798
-20.930	0.019691
-20.925	0.019572
-20.920	0.019464
-20.915	0.019326
-20.910	0.019289
-20.905	0.019152
-20.900	0.019041
-20.895	0.018959
-20.890	0.018863
-20.885	0.018739
-20.880	0.018659
-20.875	0.018551
-20.870	0.018462
-20.865	0.018393
-20.860	0.018323
-20.855	0.018237
-20.850	0.018126
-20.845	0.017988
-20.840	0.017929
-20.835	0.017790
-20.830	0.017704
-20.825	0.017614
-20.820	0.017502
-20.815	0.017414
-20.810	0.017359
-20.805	0.017234
-20.800	0.017181
-20.795	0.017123
-20.790	0.017088
-20.785	0.016989
-20.780	0.016944
-20.775	0.016911
-20.770	0.016824
-20.765	0.016753
-20.760	0.016680
-20.755	0.016602
-20.750	0.016449
-20.745	0.016388
-20.740	0.016303
-20.735	0.016283
-20.730	0.016188
-20.725	0.016098
-20.720	0.016072
-20.715	0.016021
-20.710	0.015947
-20.705	0.015862
-20.700	0.015834
-20.695	0.015731
-20.690	0.015686
-20.685	0.015621
-20.680	0.015570
-20.675	0.015483
-20.670	0.015487
-20.665	0.015393
-20.660	0.015363
-20.655	0.015312
-20.650	0.015280
-20.645	0.015178
-20.640	0.015146
-20.635	0.015105
-20.630	0.015047
-20.625	0.015017
-20.620	0.014989
-20.615	0.014891
-20.610	0.014816
-20.605	0.014787
-20.600	0.014724
-20.595	0.014721
-20.590	0.014651
-20.585	0.014595
-20.580	0.014529
-20.575	0.014531
-20.570	0.014448
-20.565	0.014385
-20.560	0.014337
-20.555	0.014256
-20.550	0.014240
-20.545	0.014167
-20.540	0.014152
-20.535	0.014106
-20.530	0.014037
-20.525	0.014013
-20.520	0.013986
-20.515	0.013932
-20.510	0.013895
-20.505	0.013854
-20.500	0.013800
-20.495	0.013799
-20.490	0.013768
-20.485	0.013732
-20.480	0.013678
-20.475	0.013647
-20.470	0.013607
-20.465	0.013589
-20.460	0.013548
-20.455	0.013500
-20.450	0.013455
-20.445	0.013412
-20.440	0.013335
-20.435	0.013349
-20.430	0.013280
-20.425	0.013241
-20.420	0.013199
-20.415	0.013160
-20.410	0.013114
-20.405	0.013089
-20.400	0.013069
-20.395	0.013023
-20.390	0.012962
-20.385	0.012925
-20.380	0.012944
-20.375	0.012892
-20.370	0.012849
-20.365	0.012861
-20.360	0.012794
-20.355	0.012729
-20.350	0.012716
-20.345	0.012661
-20.340	0.012635
-20.335	0.012599
-20.330	0.012537
-20.325	0.012545
-20.320	0.012478
-20.315	0.012469
-20.310	0.012434
-20.305	0.012403
-20.300	0.012360
-20.295	0.012316
-20.290	0.012312
-20.285	0.012267
-20.280	0.012209
-20.275	0.012182
-20.270	0.012174
-20.265	0.012104
-20.260	0.012126
-20.255	0.012112
-20.250	0.012055
-20.245	0.012050
-20.240	0.012031
-20.235	0.011992
-20.230	0.011983
-20.225	0.011952
-20.220	0.011888
-20.215	0.011905
-20.210	0.011856
-20.205	0.011815
-20.200	0.011772
-20.195	0.011777
-20.190	0.011766
-20.185	0.011713
-20.180	0.011672
-20.175	0.011671
-20.170	0.011644
-20.165	0.011623
-20.160	0.011596
-20.155	0.011551
-20.150	0.011579
-20.145	0.011529
-20.140	0.011492
-20.135	0.011460
-20.130	0.011430
-20.125	0.011410
-20.120	0.011394
-20.115	0.011373
-20.110	0.011326
-20.105	0.011288
-20.100	0.011292
-20.095	0.011248
-20.090	0.011238
-20.085	0.011194
-20.080	0.011150
-20.075	0.011134
-20.070	0.011113
-20.065	0.011100
-20.060	0.011070
-20.055	0.011015
-20.050	0.011041
-20.045	0.011023
-20.040	0.010974
-20.035	0.010974
-20.030	0.010948
-20.025	0.010969
-20.020	0.010891
-20.015	0.010878
-20.010	0.010864
-20.005	0.010821
-20.000	0.010779
-19.995	0.010774
-19.990	0.010763
-19.985	0.010738
-19.980	0.010707
-19.975	0.010690
-19.970	0.010677
-19.965	0.010650
-19.960	0.010630
-19.955	0.010617
-19.950	0.010585
-19.945	0.010584
-19.940	0.010521
-19.935	0.010542
-19.930	0.010466
-19.925	0.010465
-19.920	0.010494
-19.915	0.010451
-19.910	0.010461
-19.905	0.010401
-19.900	0.010426
-19.895	0.010427
-19.890	0.010366
-19.885	0.010360
-19.880	0.010348
-19.875	0.010292
-19.870	0.010295
-19.865	0.010276
-19.860	0.010230
-19.855	0.010206
-19.850	0.010228
-19.845	0.010193
-19.840	0.010190
-19.835	0.010148
-19.830	0.010141
-19.825	0.010139
-19.820	0.010137
-19.815	0.010084
-19.810	0.010050
-19.805	0.010062
-19.800	0.010019
-19.795	0.009977
-19.790	0.009980
-19.785	0.009955
-19.780	0.009910
-19.775	0.009905
-19.770	0.009863
-19.765	0.009897
-19.760	0.009843
-19.755	0.009837
-19.750	0.009782
-19.745	0.009801
-19.740	0.009753
-19.735	0.009716
-19.730	0.009730
-19.725	0.009678
-19.720	0.009693
-19.715	0.009642
-19.710	0.009632
-19.705	0.009603
-19.700	0.009584
-19.695	0.009570
-19.690	0.009557
-19.685	0.009544
-19.680	0.009510
-19.675	0.009496
-19.670	0.009473
-19.665	0.009451
-19.660	0.009447
-19.655	0.009398
-19.650	0.009406
-19.645	0.009390
-19.640	0.009379
-19.635	0.009365
-19.630	0.009344
-19.625	0.009338
-19.620	0.009311
-19.615	0.009324
-19.610	0.009303
-19.605	0.009306
-19.600	0.009290
-19.595	0.009282
-19.590	0.009215
-19.585	0.009213
-19.580	0.009192
-19.575	0.009221
-19.570	0.009230
-19.565	0.009221
-19.560	0.009221
-19.555	0.009220
-19.550	0.009151
-19.545	0.009143
-19.540	0.009111
-19.535	0.009094
-19.530	0.009087
-19.525	0.009083
-19.520	0.009074
-19.515	0.009064
-19.510	0.009040
-19.505	0.009050
-19.500	0.009048
-19.495	0.009053
-19.490	0.009005
-19.485	0.009015
-19.480	0.009009
-19.475	0.009003
-19.470	0.008983
-19.465	0.008955
-19.460	0.008960
-19.455	0.008898
-19.450	0.008910
-19.445	0.008937
-19.440	0.008897
-19.435	0.008863
-19.430	0.008851
-19.425	0.008830
-19.420	0.008833
-19.415	0.008825
-19.410	0.008785
-19.405	0.008793
-19.400	0.008753
-19.395	0.008784
-19.390	0.008744
-19.385	0.008757
-19.380	0.008795
-19.375	0.008742
-19.370	0.008709
-19.365	0.008699
-19.360	0.008713
-19.355	0.008663
-19.350	0.008667
-19.345	0.008658
-19.340	0.008623
-19.335	0.008645
-19.330	0.008577
-19.325	0.008585
-19.320	0.008574
-19.315	0.008567
-19.310	0.008594
-19.305	0.008545
-19.300	0.008578
-19.295	0.008542
-19.290	0.008517
-19.285	0.008512
-19.280	0.008520
-19.275	0.008510
-19.270	0.008487
-19.265	0.008465
-19.260	0.008459
-19.255	0.008451
-19.250	0.008441
-19.245	0.008421
-19.240	0.008394
-19.235	0.008386
-19.230	0.008413
-19.225	0.008390
-19.220	0.008348
-19.215	0.008361
-19.210	0.008374
-19.205	0.008332
-19.200	0.008313
-19.195	0.008308
-19.190	0.008305
-19.185	0.008269
-19.180	0.008267
-19.175	0.008287
-19.170	0.008269
-19.165	0.008269
-19.160	0.008264
-19.155	0.008251
-19.150	0.008239
-19.145	0.008218
-19.140	0.008220
-19.135	0.008193
-19.130	0.008202
-19.125	0.008192
-19.120	0.008179
-19.115	0.008177
-19.110	0.008184
-19.105	0.008165
-19.100	0.008174
-19.095	0.008166
-19.090	0.008136
-19.085	0.008100
-19.080	0.008121
-19.075	0.008079
-19.070	0.008059
-19.065	0.008065
-19.060	0.008076
-19.055	0.008063
-19.050	0.008047
-19.045	0.008043
-19.040	0.008059
-19.035	0.008043
-19.030	0.007982
-19.025	0.008000
-19.020	0.008007
-19.015	0.007972
-19.010	0.007936
-19.005	0.007985
-19.000	0.007946
-18.995	0.007907
-18.990	0.007945
-18.985	0.007922
-18.980	0.007879
-18.975	0.007886
-18.970	0.007902
-18.965	0.007846
-18.960	0.007846
-18.955	0.007839
-18.950	0.007817
-18.945	0.007795
-18.940	0.007774
-18.935	0.007766
-18.930	0.007719
-18.925	0.007710
-18.920	0.007710
-18.915	0.007715
-18.910	0.007721
-18.905	0.007707
-18.900	0.007700
-18.895	0.007680
-18.890	0.007666
-18.885	0.007653
-18.880	0.007662
-18.875	0.007620
-18.870	0.007606
-18.865	0.007592
-18.860	0.007615
-18.855	0.007600
-18.850	0.007597
-18.845	0.007595
-18.840	0.007590
-18.835	0.007597
-18.830	0.007564
-18.825	0.007554
-18.820	0.007549
-18.815	0.007520
-18.810	0.007507
-18.805	0.007456
-18.800	0.007489
-18.795	0.007481
-18.790	0.007489
-18.785	0.007459
-18.780	0.007474
-18.775	0.007457
-18.770	0.007468
-18.765	0.007466
-18.760	0.007445
-18.755	0.007442
-18.750	0.007428
-18.745	0.007427
-18.740	0.007405
-18.735	0.007410
-18.730	0.007370
-18.725	0.007387
-18.720	0.007344
-18.715	0.007342
-18.710	0.007375
-18.705	0.007353
-18.700	0.007339
-18.695	0.007317
-18.690	0.007344
-18.685	0.007343
-18.680	0.007281
-18.675	0.007253
-18.670	0.007300
-18.665	0.007251
-18.660	0.007226
-18.655	0.007247
-18.650	0.007244
-18.645	0.007213
-18.640	0.007269
-18.635	0.007233
-18.630	0.007233
-18.625	0.007231
-18.620	0.007197
-18.615	0.007196
-18.610	0.007196
-18.605	0.007174
-18.600	0.007168
-18.595	0.007175
-18.590	0.007149
-18.585	0.007133
-18.580	0.007146
-18.575	0.007174
-18.570	0.007106
-18.565	0.007120
-18.560	0.007126
-18.555	0.007105
-18.550	0.007119
-18.545	0.007063
-18.540	0.007056
-18.535	0.007047
-18.530	0.007063
-18.525	0.007065
-18.520	0.007053
-18.515	0.007050
-18.510	0.007042
-18.505	0.007035
-18.500	0.007036
-18.495	0.007035
-18.490	0.007036
-18.485	0.007000
-18.480	0.006993
-18.475	0.006972
-18.470	0.006979
-18.465	0.006993
-18.460	0.006984
-18.455	0.006997
-18.450	0.006967
-18.445	0.006965
-18.440	0.006952
-18.435	0.006951
-18.430	0.006931
-18.425	0.006923
-18.420	0.006937
-18.415	0.006909
-18.410	0.006846
-18.405	0.006895
-18.400	0.006894
-18.395	0.006876
-18.390	0.006884
-18.385	0.006855
-18.380	0.006861
-18.375	0.006860
-18.370	0.006868
-18.365	0.006846
-18.360	0.006868
-18.355	0.006810
-18.350	0.006818
-18.345	0.006789
-18.340	0.006783
-18.335	0.006810
-18.330	0.006777
-18.325	0.006765
-18.320	0.006750
-18.315	0.006740
-18.310	0.006753
-18.305	0.006733
-18.300	0.006761
-18.295	0.006734
-18.290	0.006720
-18.285	0.006705
-18.280	0.006712
-18.275	0.006698
-18.270	0.006726
-18.265	0.006676
-18.260	0.006680
-18.255	0.006645
-18.250	0.006685
-18.245	0.006670
-18.240	0.006671
-18.235	0.006692
-18.230	0.006645
-18.225	0.006632
-18.220	0.006646
-18.215	0.006632
-18.210	0.006626
-18.205	0.006621
-18.200	0.006593
-18.195	0.006589
-18.190	0.006577
-18.185	0.006583
-18.180	0.006576
-18.175	0.006598
-18.170	0.006544
-18.165	0.006607
-18.160	0.006545
-18.155	0.006580
-18.150	0.006554
-18.145	0.006532
-18.140	0.006547
-18.135	0.006518
-18.130	0.006541
-18.125	0.006509
-18.120	0.006517
-18.115	0.006523
-18.110	0.006510
-18.105	0.006526
-18.100	0.006499
-18.095	0.006513
-18.090	0.006507
-18.085	0.006500
-18.080	0.006505
-18.075	0.006498
-18.070	0.006458
-18.065	0.006464
-18.060	0.006461
-18.055	0.006487
-18.050	0.006486
-18.045	0.006462
-18.040	0.006454
-18.035	0.006427
-18.030	0.006426
-18.025	0.006467
-18.020	0.006419
-18.015	0.006418
-18.010	0.006430
-18.005	0.006367
-18.000	0.006428
-17.995	0.006381
-17.990	0.006362
-17.985	0.006352
-17.980	0.006398
-17.975	0.006362
-17.970	0.006355
-17.965	0.006361
-17.960	0.006340
-17.955	0.006353
-17.950	0.006318
-17.945	0.006330
-17.940	0.006310
-17.935	0.006301
-17.930	0.006289
-17.925	0.006270
-17.920	0.006298
-17.915	0.006273
-17.910	0.006288
-17.905	0.006281
-17.900	0.006295
-17.895	0.006302
-17.890	0.006246
-17.885	0.006246
-17.880	0.006232
-17.875	0.006231
-17.870	0.006232
-17.865	0.006197
-17.860	0.006235
-17.855	0.006241
-17.850	0.006218
-17.845	0.006189
-17.840	0.006223
-17.835	0.006202
-17.830	0.006223
-17.825	0.006195
-17.820	0.006174
-17.815	0.006173
-17.810	0.006208
-17.805	0.006160
-17.800	0.006188
-17.795	0.006175
-17.790	0.006161
-17.785	0.006180
-17.780	0.006184
-17.775	0.006150
-17.770	0.006130
-17.765	0.006171
-17.760	0.006129
-17.755	0.006094
-17.750	0.006107
-17.745	0.006106
-17.740	0.006071
-17.735	0.006070
-17.730	0.006064
-17.725	0.006053
-17.720	0.006080
-17.715	0.006070
-17.710	0.006070
-17.705	0.006083
-17.700	0.006028
-17.695	0.006021
-17.690	0.006021
-17.685	0.006020
-17.680	0.006013
-17.675	0.005991
-17.670	0.005992
-17.665	0.006014
-17.660	0.005977
-17.655	0.005992
-17.650	0.005941
-17.645	0.005959
-17.640	0.005966
-17.635	0.005973
-17.630	0.005939
-17.625	0.005953
-17.620	0.005919
-17.615	0.005919
-17.610	0.005939
-17.605	0.005890
-17.600	0.005864
-17.595	0.005895
-17.590	0.005903
-17.585	0.005901
-17.580	0.005871
-17.575	0.005912
-17.570	0.005899
-17.565	0.005899
-17.560	0.005870
-17.555	0.005889
-17.550	0.005849
-17.545	0.005848
-17.540	0.005862
-17.535	0.005827
-17.530	0.005836
-17.525	0.005837
-17.520	0.005836
-17.515	0.005854
-17.510	0.005806
-17.505	0.005835
-17.500	0.005806
-17.495	0.005833
-17.490	0.005800
-17.485	0.005785
-17.480	0.005798
-17.475	0.005769
-17.470	0.005768
-17.465	0.005761
-17.460	0.005749
-17.455	0.005784
-17.450	0.005775
-17.445	0.005746
-17.440	0.005754
-17.435	0.005766
-17.430	0.005752
-17.425	0.005711
-17.420	0.005726
-17.415	0.005738
-17.410	0.005697
-17.405	0.005696
-17.400	0.005723
-17.395	0.005699
-17.390	0.005698
-17.385	0.005697
-17.380	0.005703
-17.375	0.005675
-17.370	0.005716
-17.365	0.005702
-17.360	0.005660
-17.355	0.005715
-17.350	0.005673
-17.345	0.005652
-17.340	0.005637
-17.335	0.005643
-17.330	0.005631
-17.325	0.005612
-17.320	0.005638
-17.315	0.005622
-17.310	0.005636
-17.305	0.005607
-17.300	0.005642
-17.295	0.005620
-17.290	0.005586
-17.285	0.005592
-17.280	0.005571
-17.275	0.005577
-17.270	0.005585
-17.265	0.005578
-17.260	0.005581
-17.255	0.005573
-17.250	0.005572
-17.245	0.005544
-17.240	0.005558
-17.235	0.005545
-17.230	0.005544
-17.225	0.005516
-17.220	0.005529
-17.215	0.005522
-17.210	0.005515
-17.205	0.005522
-17.200	0.005495
-17.195	0.005485
-17.190	0.005506
-17.185	0.005498
-17.180	0.005504
-17.175	0.005490
-17.170	0.005484
-17.165	0.005498
-17.160	0.005504
-17.155	0.005483
-17.150	0.005448
-17.145	0.005468
-17.140	0.005474
-17.135	0.005482
-17.130	0.005463
-17.125	0.005430
-17.120	0.005456
-17.115	0.005440
-17.110	0.005440
-17.105	0.005433
-17.100	0.005405
-17.095	0.005398
-17.090	0.005439
-17.085	0.005447
-17.080	0.005405
-17.075	0.005397
-17.070	0.005391
-17.065	0.005404
-17.060	0.005387
-17.055	0.005386
-17.050	0.005390
-17.045	0.005395
-17.040	0.005403
-17.035	0.005395
-17.030	0.005395
-17.025	0.005382
-17.020	0.005367
-17.015	0.005346
-17.010	0.005360
-17.005	0.005305
-17.000	0.005354
-16.995	0.005321
-16.990	0.005321
-16.985	0.005327
-16.980	0.005333
-16.975	0.005313
-16.970	0.005306
-16.965	0.005328
-16.960	0.005341
-16.955	0.005313
-16.950	0.005286
-16.945	0.005307
-16.940	0.005307
-16.935	0.005285
-16.930	0.005266
-16.925	0.005233
-16.920	0.005246
-16.915	0.005263
-16.910	0.005251
-16.905	0.005279
-16.900	0.005266
-16.895	0.005231
-16.890	0.005245
-16.885	0.005217
-16.880	0.005230
-16.875	0.005250
-16.870	0.005197
-16.865	0.005239
-16.860	0.005228
-16.855	0.005214
-16.850	0.005213
-16.845	0.005220
-16.840	0.005214
-16.835	0.005229
-16.830	0.005175
-16.825	0.005210
-16.820	0.005217
-16.815	0.005175
-16.810	0.005189
-16.805	0.005168
-16.800	0.005181
-16.795	0.005176
-16.790	0.005157
-16.785	0.005170
-16.780	0.005175
-16.775	0.005147
-16.770	0.005155
-16.765	0.005162
-16.760	0.005120
-16.755	0.005112
-16.750	0.005126
-16.745	0.005112
-16.740	0.005118
-16.735	0.005105
-16.730	0.005149
-16.725	0.005122
-16.720	0.005107
-16.715	0.005099
-16.710	0.005085
-16.705	0.005093
-16.700	0.005107
-16.695	0.005093
-16.690	0.005085
-16.685	0.005064
-16.680	0.005057
-16.675	0.005071
-16.670	0.005064
-16.665	0.005051
-16.660	0.005053
-16.655	0.005039
-16.650	0.005039
-16.645	0.005045
-16.640	0.005032
-16.635	0.005044
-16.630	0.005024
-16.625	0.005004
-16.620	0.004997
-16.615	0.004982
-16.610	0.004962
-16.605	0.005004
-16.600	0.004977
-16.595	0.004973
-16.590	0.004980
-16.585	0.004957
-16.580	0.004977
-16.575	0.004977
-16.570	0.004985
-16.565	0.004943
-16.560	0.004964
-16.555	0.004950
-16.550	0.004964
-16.545	0.004943
-16.540	0.004950
-16.535	0.004928
-16.530	0.004937
-16.525	0.004952
-16.520	0.004938
-16.515	0.004950
-16.510	0.004916
-16.505	0.004902
-16.500	0.004923
-16.495	0.004916
-16.490	0.004922
-16.485	0.004894
-16.480	0.004900
-16.475	0.004879
-16.470	0.004871
-16.465	0.004885
-16.460	0.004880
-16.455	0.004893
-16.450	0.004912
-16.445	0.004892
-16.440	0.004906
-16.435	0.004879
-16.430	0.004885
-16.425	0.004884
-16.420	0.004856
-16.415	0.004855
-16.410	0.004876
-16.405	0.004862
-16.400	0.004862
-16.395	0.004843
-16.390	0.004857
-16.385	0.004842
-16.380	0.004861
-16.375	0.004868
-16.370	0.004862
-16.365	0.004868
-16.360	0.004819
-16.355	0.004797
-16.350	0.004846
-16.345	0.004824
-16.340	0.004818
-16.335	0.004823
-16.330	0.004805
-16.325	0.004805
-16.320	0.004818
-16.315	0.004775
-16.310	0.004818
-16.305	0.004797
-16.300	0.004750
-16.295	0.004798
-16.290	0.004791
-16.285	0.004797
-16.280	0.004784
-16.275	0.004762
-16.270	0.004769
-16.265	0.004790
-16.260	0.004744
-16.255	0.004778
-16.250	0.004735
-16.245	0.004764
-16.240	0.004764
-16.235	0.004791
-16.230	0.004779
-16.225	0.004751
-16.220	0.004723
-16.215	0.004737
-16.210	0.004730
-16.205	0.004696
-16.200	0.004717
-16.195	0.004712
-16.190	0.004705
-16.185	0.004732
-16.180	0.004704
-16.175	0.004732
-16.170	0.004713
-16.165	0.004714
-16.160	0.004708
-16.155	0.004693
-16.150	0.004693
-16.145	0.004700
-16.140	0.004687
-16.135	0.004694
-16.130	0.004691
-16.125	0.004706
-16.120	0.004677
-16.115	0.004682
-16.110	0.004697
-16.105	0.004691
-16.100	0.004671
-16.095	0.004686
-16.090	0.004658
-16.085	0.004643
-16.080	0.004664
-16.075	0.004636
-16.070	0.004658
-16.065	0.004624
-16.060	0.004633
-16.055	0.004672
-16.050	0.004657
-16.045	0.004622
-16.040	0.004650
-16.035	0.004629
-16.030	0.004684
-16.025	0.004671
-16.020	0.004615
-16.015	0.004637
-16.010	0.004629
-16.005	0.004567
-16.000	0.004608
-15.995	0.004624
-15.990	0.004603
-15.985	0.004622
-15.980	0.004620
-15.975	0.004598
-15.970	0.004626
-15.965	0.004640
-15.960	0.004606
-15.955	0.004605
-15.950	0.004604
-15.945	0.004582
-15.940	0.004568
-15.935	0.004589
-15.930	0.004583
-15.925	0.004583
-15.920	0.004526
-15.915	0.004580
-15.910	0.004573
-15.905	0.004574
-15.900	0.004560
-15.895	0.004580
-15.890	0.004552
-15.885	0.004565
-15.880	0.004524
-15.875	0.004530
-15.870	0.004528
-15.865	0.004522
-15.860	0.004538
-15.855	0.004536
-15.850	0.004541
-15.845	0.004547
-15.840	0.004548
-15.835	0.004540
-15.830	0.004518
-15.825	0.004525
-15.820	0.004504
-15.815	0.004490
-15.810	0.004483
-15.805	0.004475
-15.800	0.004475
-15.795	0.004442
-15.790	0.004498
-15.785	0.004476
-15.780	0.004482
-15.775	0.004475
-15.770	0.004496
-15.765	0.004469
-15.760	0.004469
-15.755	0.004462
-15.750	0.004442
-15.745	0.004468
-15.740	0.004447
-15.735	0.004468
-15.730	0.004415
-15.725	0.004443
-15.720	0.004435
-15.715	0.004427
-15.710	0.004448
-15.705	0.004435
-15.700	0.004415
-15.695	0.004435
-15.690	0.004400
-15.685	0.004407
-15.680	0.004387
-15.675	0.004386
-15.670	0.004393
-15.665	0.004409
-15.660	0.004410
-15.655	0.004388
-15.650	0.004401
-15.645	0.004394
-15.640	0.004381
-15.635	0.004375
-15.630	0.004430
-15.625	0.004396
-15.620	0.004410
-15.615	0.004389
-15.610	0.004369
-15.605	0.004355
-15.600	0.004369
-15.595	0.004351
-15.590	0.004329
-15.585	0.004370
-15.580	0.004355
-15.575	0.004377
-15.570	0.004369
-15.565	0.004348
-15.560	0.004369
-15.555	0.004334
-15.550	0.004361
-15.545	0.004348
-15.540	0.004321
-15.535	0.004335
-15.530	0.004301
-15.525	0.004329
-15.520	0.004328
-15.515	0.004320
-15.510	0.004334
-15.505	0.004328
-15.500	0.004328
-15.495	0.004335
-15.490	0.004301
-15.485	0.004301
-15.480	0.004281
-15.475	0.004281
-15.470	0.004267
-15.465	0.004268
-15.460	0.004289
-15.455	0.004275
-15.450	0.004273
-15.445	0.004266
-15.440	0.004253
-15.435	0.004266
-15.430	0.004259
-15.425	0.004265
-15.420	0.004252
-15.415	0.004245
-15.410	0.004231
-15.405	0.004238
-15.400	0.004231
-15.395	0.004240
-15.390	0.004253
-15.385	0.004252
-15.380	0.004196
-15.375	0.004259
-15.370	0.004238
-15.365	0.004237
-15.360	0.004230
-15.355	0.004230
-15.350	0.004216
-15.345	0.004224
-15.340	0.004223
-15.335	0.004196
-15.330	0.004211
-15.325	0.004184
-15.320	0.004191
-15.315	0.004216
-15.310	0.004203
-15.305	0.004175
-15.300	0.004189
-15.295	0.004168
-15.290	0.004198
-15.285	0.004184
-15.280	0.004203
-15.275	0.004161
-15.270	0.004183
-15.265	0.004170
-15.260	0.004172
-15.255	0.004164
-15.250	0.004164
-15.245	0.004157
-15.240	0.004152
-15.235	0.004172
-15.230	0.004151
-15.225	0.004179
-15.220	0.004152
-15.215	0.004125
-15.210	0.004112
-15.205	0.004105
-15.200	0.004127
-15.195	0.004116
-15.190	0.004124
-15.185	0.004116
-15.180	0.004138
-15.175	0.004131
-15.170	0.004105
-15.165	0.004092
-15.160	0.004149
-15.155	0.004080
-15.150	0.004095
-15.145	0.004082
-15.140	0.004097
-15.135	0.004070
-15.130	0.004058
-15.125	0.004079
-15.120	0.004079
-15.115	0.004106
-15.110	0.004071
-15.105	0.004072
-15.100	0.004107
-15.095	0.004051
-15.090	0.004079
-15.085	0.004093
-15.080	0.004092
-15.075	0.004064
-15.070	0.004064
-15.065	0.004058
-15.060	0.004059
-15.055	0.004073
-15.050	0.004058
-15.045	0.004051
-15.040	0.004065
-15.035	0.004078
-15.030	0.004106
-15.025	0.004085
-15.020	0.004057
-15.015	0.004071
-15.010	0.004036
-15.005	0.004077
-15.000	0.004049
-14.995	0.004043
-14.990	0.004042
-14.985	0.004046
-14.980	0.004066
-14.975	0.004058
-14.970	0.004044
-14.965	0.004057
-14.960	0.004050
-14.955	0.004021
-14.950	0.004026
-14.945	0.003998
-14.940	0.004011
-14.935	0.003955
-14.930	0.003992
-14.925	0.004026
-14.920	0.004018
-14.915	0.003975
-14.910	0.004029
-14.905	0.004028
-14.900	0.004014
-14.895	0.003993
-14.890	0.003978
-14.885	0.004005
-14.880	0.003984
-14.875	0.003970
-14.870	0.003970
-14.865	0.003977
-14.860	0.003964
-14.855	0.003969
-14.850	0.003995
-14.845	0.003975
-14.840	0.003961
-14.835	0.003961
-14.830	0.003953
-14.825	0.003952
-14.820	0.003954
-14.815	0.003941
-14.810	0.003941
-14.805	0.003918
-14.800	0.003898
-14.795	0.003913
-14.790	0.003919
-14.785	0.003911
-14.780	0.003918
-14.775	0.003918
-14.770	0.003924
-14.765	0.003889
-14.760	0.003883
-14.755	0.003896
-14.750	0.003883
-14.745	0.003855
-14.740	0.003883
-14.735	0.003917
-14.730	0.003935
-14.725	0.003844
-14.720	0.003864
-14.715	0.003884
-14.710	0.003892
-14.705	0.003885
-14.700	0.003899
-14.695	0.003884
-14.690	0.003870
-14.685	0.003877
-14.680	0.003857
-14.675	0.003816
-14.670	0.003850
-14.665	0.003838
-14.660	0.003845
-14.655	0.003851
-14.650	0.003864
-14.645	0.003836
-14.640	0.003850
-14.635	0.003871
-14.630	0.003864
-14.625	0.003836
-14.620	0.003850
-14.615	0.003814
-14.610	0.003808
-14.605	0.003827
-14.600	0.003821
-14.595	0.003802
-14.590	0.003830
-14.585	0.003800
-14.580	0.003821
-14.575	0.003807
-14.570	0.003829
-14.565	0.003808
-14.560	0.003827
-14.555	0.003785
-14.550	0.003799
-14.545	0.003770
-14.540	0.003764
-14.535	0.003783
-14.530	0.003806
-14.525	0.003800
-14.520	0.003785
-14.515	0.003770
-14.510	0.003798
-14.505	0.003776
-14.500	0.003763
-14.495	0.003762
-14.490	0.003776
-14.485	0.003768
-14.480	0.003781
-14.475	0.003726
-14.470	0.003747
-14.465	0.003768
-14.460	0.003728
-14.455	0.003754
-14.450	0.003760
-14.445	0.003739
-14.440	0.003761
-14.435	0.003726
-14.430	0.003767
-14.425	0.003745
-14.420	0.003731
-14.415	0.003758
-14.410	0.003731
-14.405	0.003731
-14.400	0.003704
-14.395	0.003704
-14.390	0.003690
-14.385	0.003702
-14.380	0.003716
-14.375	0.003716
-14.370	0.003682
-14.365	0.003709
-14.360	0.003723
-14.355	0.003702
-14.350	0.003675
-14.345	0.003654
-14.340	0.003661
-14.335	0.003674
-14.330	0.003690
-14.325	0.003655
-14.320	0.003675
-14.315	0.003702
-14.310	0.003689
-14.305	0.003681
-14.300	0.003667
-14.295	0.003647
-14.290	0.003661
-14.285	0.003654
-14.280	0.003640
-14.275	0.003640
-14.270	0.003647
-14.265	0.003628
-14.260	0.003649
-14.255	0.003614
-14.250	0.003639
-14.245	0.003668
-14.240	0.003633
-14.235	0.003626
-14.230	0.003620
-14.225	0.003633
-14.220	0.003619
-14.215	0.003626
-14.210	0.003647
-14.205	0.003613
-14.200	0.003620
-14.195	0.003621
-14.190	0.003621
-14.185	0.003653
-14.180	0.003633
-14.175	0.003633
-14.170	0.003585
-14.165	0.003640
-14.160	0.003613
-14.155	0.003605
-14.150	0.003598
-14.145	0.003577
-14.140	0.003591
-14.135	0.003591
-14.130	0.003586
-14.125	0.003551
-14.120	0.003599
-14.115	0.003563
-14.110	0.003597
-14.105	0.003590
-14.100	0.003583
-14.095	0.003576
-14.090	0.003575
-14.085	0.003561
-14.080	0.003541
-14.075	0.003548
-14.070	0.003540
-14.065	0.003528
-14.060	0.003522
-14.055	0.003535
-14.050	0.003534
-14.045	0.003554
-14.040	0.003548
-14.035	0.003506
-14.030	0.003548
-14.025	0.003540
-14.020	0.003519
-14.015	0.003505
-14.010	0.003525
-14.005	0.003518
-14.000	0.003506
-13.995	0.003501
-13.990	0.003528
-13.985	0.003513
-13.980	0.003507
-13.975	0.003498
-13.970	0.003498
-13.965	0.003497
-13.960	0.003512
-13.955	0.003483
-13.950	0.003491
-13.945	0.003497
-13.940	0.003463
-13.935	0.003484
-13.930	0.003465
-13.925	0.003493
-13.920	0.003463
-13.915	0.003463
-13.910	0.003484
-13.905	0.003477
-13.900	0.003443
-13.895	0.003485
-13.890	0.003464
-13.885	0.003477
-13.880	0.003478
-13.875	0.003443
-13.870	0.003443
-13.865	0.003444
-13.860	0.003431
-13.855	0.003437
-13.850	0.003470
-13.845	0.003435
-13.840	0.003422
-13.835	0.003435
-13.830	0.003463
-13.825	0.003455
-13.820	0.003448
-13.815	0.003441
-13.810	0.003434
-13.805	0.003434
-13.800	0.003428
-13.795	0.003429
-13.790	0.003449
-13.785	0.003427
-13.780	0.003434
-13.775	0.003454
-13.770	0.003448
-13.765	0.003454
-13.760	0.003434
-13.755	0.003392
-13.750	0.003426
-13.745	0.003391
-13.740	0.003405
-13.735	0.003405
-13.730	0.003427
-13.725	0.003393
-13.720	0.003399
-13.715	0.003411
-13.710	0.003397
-13.705	0.003418
-13.700	0.003419
-13.695	0.003370
-13.690	0.003411
-13.685	0.003383
-13.680	0.003390
-13.675	0.003382
-13.670	0.003375
-13.665	0.003377
-13.660	0.003398
-13.655	0.003370
-13.650	0.003389
-13.645	0.003362
-13.640	0.003370
-13.635	0.003355
-13.630	0.003342
-13.625	0.003356
-13.620	0.003376
-13.615	0.003362
-13.610	0.003370
-13.605	0.003362
-13.600	0.003330
-13.595	0.003324
-13.590	0.003316
-13.585	0.003315
-13.580	0.003343
-13.575	0.003350
-13.570	0.003329
-13.565	0.003308
-13.560	0.003336
-13.555	0.003329
-13.550	0.003315
-13.545	0.003294
-13.540	0.003323
-13.535	0.003329
-13.530	0.003284
-13.525	0.003325
-13.520	0.003297
-13.515	0.003324
-13.510	0.003325
-13.505	0.003325
-13.500	0.003298
-13.495	0.003319
-13.490	0.003291
-13.485	0.003298
-13.480	0.003298
-13.475	0.003271
-13.470	0.003259
-13.465	0.003307
-13.460	0.003254
-13.455	0.003302
-13.450	0.003293
-13.445	0.003273
-13.440	0.003281
-13.435	0.003295
-13.430	0.003282
-13.425	0.003275
-13.420	0.003275
-13.415	0.003268
-13.410	0.003269
-13.405	0.003227
-13.400	0.003291
-13.395	0.003256
-13.390	0.003270
-13.385	0.003261
-13.380	0.003276
-13.375	0.003283
-13.370	0.003276
-13.365	0.003276
-13.360	0.003236
-13.355	0.003257
-13.350	0.003271
-13.345	0.003263
-13.340	0.003235
-13.335	0.003247
-13.330	0.003257
-13.325	0.003263
-13.320	0.003227
-13.315	0.003240
-13.310	0.003247
-13.305	0.003261
-13.300	0.003239
-13.295	0.003232
-13.290	0.003232
-13.285	0.003231
-13.280	0.003238
-13.275	0.003238
-13.270	0.003218
-13.265	0.003205
-13.260	0.003219
-13.255	0.003211
-13.250	0.003238
-13.245	0.003210
-13.240	0.003217
-13.235	0.003238
-13.230	0.003224
-13.225	0.003203
-13.220	0.003210
-13.215	0.003203
-13.210	0.003188
-13.205	0.003195
-13.200	0.003210
-13.195	0.003183
-13.190	0.003210
-13.185	0.003215
-13.180	0.003201
-13.175	0.003180
-13.170	0.003201
-13.165	0.003173
-13.160	0.003187
-13.155	0.003166
-13.150	0.003186
-13.145	0.003158
-13.140	0.003179
-13.135	0.003158
-13.130	0.003174
-13.125	0.003167
-13.120	0.003144
-13.115	0.003137
-13.110	0.003144
-13.105	0.003172
-13.100	0.003145
-13.095	0.003158
-13.090	0.003131
-13.085	0.003165
-13.080	0.003145
-13.075	0.003138
-13.070	0.003131
-13.065	0.003098
-13.060	0.003140
-13.055	0.003118
-13.050	0.003144
-13.045	0.003117
-13.040	0.003110
-13.035	0.003117
-13.030	0.003131
-13.025	0.003117
-13.020	0.003110
-13.015	0.003096
-13.010	0.003075
-13.005	0.003096
-13.000	0.003098
-12.995	0.003112
-12.990	0.003104
-12.985	0.003110
-12.980	0.003117
-12.975	0.003090
-12.970	0.003104
-12.965	0.003084
-12.960	0.003076
-12.955	0.003055
-12.950	0.003069
-12.945	0.003068
-12.940	0.003055
-12.935	0.003070
-12.930	0.003064
-12.925	0.003050
-12.920	0.003049
-12.915	0.003083
-12.910	0.003035
-12.905	0.003055
-12.900	0.003034
-12.895	0.003062
-12.890	0.003055
-12.885	0.003041
-12.880	0.003027
-12.875	0.003013
-12.870	0.003061
-12.865	0.003008
-12.860	0.003028
-12.855	0.003041
-12.850	0.003054
-12.845	0.003033
-12.840	0.003040
-12.835	0.003040
-12.830	0.003054
-12.825	0.003019
-12.820	0.003026
-12.815	0.003025
-12.810	0.002998
-12.805	0.003004
-12.800	0.003040
-12.795	0.002985
-12.790	0.003006
-12.785	0.003004
-12.780	0.003018
-12.775	0.002990
-12.770	0.002983
-12.765	0.003004
-12.760	0.003004
-12.755	0.003003
-12.750	0.002989
-12.745	0.003002
-12.740	0.002975
-12.735	0.002982
-12.730	0.002984
-12.725	0.002963
-12.720	0.002983
-12.715	0.002975
-12.710	0.002982
-12.705	0.002989
-12.700	0.002969
-12.695	0.002962
-12.690	0.002955
-12.685	0.002954
-12.680	0.002954
-12.675	0.002953
-12.670	0.002974
-12.665	0.002955
-12.660	0.002990
-12.655	0.002947
-12.650	0.002953
-12.645	0.002980
-12.640	0.002939
-12.635	0.002960
-12.630	0.002959
-12.625	0.002966
-12.620	0.002945
-12.615	0.002904
-12.610	0.002925
-12.605	0.002932
-12.600	0.002905
-12.595	0.002947
-12.590	0.002912
-12.585	0.002938
-12.580	0.002945
-12.575	0.002952
-12.570	0.002938
-12.565	0.002946
-12.560	0.002939
-12.555	0.002925
-12.550	0.002918
-12.545	0.002917
-12.540	0.002925
-12.535	0.002904
-12.530	0.002919
-12.525	0.002918
-12.520	0.002903
-12.515	0.002910
-12.510	0.002910
-12.505	0.002924
-12.500	0.002896
-12.495	0.002897
-12.490	0.002910
-12.485	0.002882
-12.480	0.002896
-12.475	0.002862
-12.470	0.002834
-12.465	0.002891
-12.460	0.002864
-12.455	0.002890
-12.450	0.002848
-12.445	0.002875
-12.440	0.002876
-12.435	0.002869
-12.430	0.002876
-12.425	0.002848
-12.420	0.002882
-12.415	0.002847
-12.410	0.002854
-12.405	0.002861
-12.400	0.002862
-12.395	0.002849
-12.390	0.002828
-12.385	0.002875
-12.380	0.002868
-12.375	0.002854
-12.370	0.002882
-12.365	0.002881
-12.360	0.002819
-12.355	0.002846
-12.350	0.002846
-12.345	0.002860
-12.340	0.002833
-12.335	0.002840
-12.330	0.002855
-12.325	0.002847
-12.320	0.002832
-12.315	0.002818
-12.310	0.002826
-12.305	0.002853
-12.300	0.002833
-12.295	0.002846
-12.290	0.002804
-12.285	0.002818
-12.280	0.002812
-12.275	0.002818
-12.270	0.002811
-12.265	0.002806
-12.260	0.002806
-12.255	0.002777
-12.250	0.002804
-12.245	0.002824
-12.240	0.002783
-12.235	0.002811
-12.230	0.002797
-12.225	0.002803
-12.220	0.002824
-12.215	0.002775
-12.210	0.002762
-12.205	0.002768
-12.200	0.002750
-12.195	0.002777
-12.190	0.002776
-12.185	0.002768
-12.180	0.002802
-12.175	0.002795
-12.170	0.002802
-12.165	0.002789
-12.160	0.002782
-12.155	0.002754
-12.150	0.002761
-12.145	0.002747
-12.140	0.002774
-12.135	0.002768
-12.130	0.002762
-12.125	0.002741
-12.120	0.002788
-12.115	0.002767
-12.110	0.002732
-12.105	0.002767
-12.100	0.002760
-12.095	0.002746
-12.090	0.002752
-12.085	0.002717
-12.080	0.002711
-12.075	0.002745
-12.070	0.002732
-12.065	0.002726
-12.060	0.002740
-12.055	0.002745
-12.050	0.002745
-12.045	0.002772
-12.040	0.002745
-12.035	0.002752
-12.030	0.002717
-12.025	0.002758
-12.020	0.002738
-12.015	0.002737
-12.010	0.002731
-12.005	0.002723
-12.000	0.002711
-11.995	0.002711
-11.990	0.002717
-11.985	0.002710
-11.980	0.002737
-11.975	0.002764
-11.970	0.002703
-11.965	0.002730
-11.960	0.002709
-11.955	0.002716
-11.950	0.002696
-11.945	0.002682
-11.940	0.002689
-11.935	0.002703
-11.930	0.002704
-11.925	0.002710
-11.920	0.002723
-11.915	0.002696
-11.910	0.002716
-11.905	0.002702
-11.900	0.002675
-11.895	0.002696
-11.890	0.002695
-11.885	0.002709
-11.880	0.002681
-11.875	0.002681
-11.870	0.002695
-11.865	0.002669
-11.860	0.002683
-11.855	0.002668
-11.850	0.002688
-11.845	0.002729
-11.840	0.002709
-11.835	0.002702
-11.830	0.002681
-11.825	0.002694
-11.820	0.002667
-11.815	0.002674
-11.810	0.002681
-11.805	0.002687
-11.800	0.002655
-11.795	0.002662
-11.790	0.002668
-11.785	0.002668
-11.780	0.002695
-11.775	0.002661
-11.770	0.002674
-11.765	0.002661
-11.760	0.002675
-11.755	0.002661
-11.750	0.002647
-11.745	0.002654
-11.740	0.002640
-11.735	0.002621
-11.730	0.002635
-11.725	0.002669
-11.720	0.002620
-11.715	0.002627
-11.710	0.002641
-11.705	0.002628
-11.700	0.002668
-11.695	0.002634
-11.690	0.002655
-11.685	0.002627
-11.680	0.002627
-11.675	0.002621
-11.670	0.002635
-11.665	0.002622
-11.660	0.002656
-11.655	0.002634
-11.650	0.002635
-11.645	0.002641
-11.640	0.002614
-11.635	0.002607
-11.630	0.002629
-11.625	0.002622
-11.620	0.002574
-11.615	0.002587
-11.610	0.002622
-11.605	0.002601
-11.600	0.002630
-11.595	0.002609
-11.590	0.002609
-11.585	0.002608
-11.580	0.002608
-11.575	0.002608
-11.570	0.002601
-11.565	0.002601
-11.560	0.002573
-11.555	0.002615
-11.550	0.002608
-11.545	0.002607
-11.540	0.002588
-11.535	0.002623
-11.530	0.002568
-11.525	0.002581
-11.520	0.002608
-11.515	0.002635
-11.510	0.002616
-11.505	0.002588
-11.500	0.002602
-11.495	0.002582
-11.490	0.002581
-11.485	0.002602
-11.480	0.002581
-11.475	0.002560
-11.470	0.002581
-11.465	0.002562
-11.460	0.002569
-11.455	0.002582
-11.450	0.002574
-11.445	0.002574
-11.440	0.002602
-11.435	0.002581
-11.430	0.002567
-11.425	0.002539
-11.420	0.002553
-11.415	0.002546
-11.410	0.002525
-11.405	0.002560
-11.400	0.002575
-11.395	0.002589
-11.390	0.002553
-11.385	0.002559
-11.380	0.002567
-11.375	0.002580
-11.370	0.002560
-11.365	0.002580
-11.360	0.002560
-11.355	0.002532
-11.350	0.002525
-11.345	0.002552
-11.340	0.002539
-11.335	0.002519
-11.330	0.002493
-11.325	0.002520
-11.320	0.002546
-11.315	0.002553
-11.310	0.002546
-11.305	0.002566
-11.300	0.002546
-11.295	0.002552
-11.290	0.002532
-11.285	0.002545
-11.280	0.002525
-11.275	0.002532
-11.270	0.002505
-11.265	0.002513
-11.260	0.002506
-11.255	0.002511
-11.250	0.002546
-11.245	0.002519
-11.240	0.002539
-11.235	0.002498
-11.230	0.002525
-11.225	0.002533
-11.220	0.002525
-11.215	0.002504
-11.210	0.002477
-11.205	0.002504
-11.200	0.002478
-11.195	0.002533
-11.190	0.002519
-11.185	0.002504
-11.180	0.002532
-11.175	0.002504
-11.170	0.002511
-11.165	0.002483
-11.160	0.002470
-11.155	0.002504
-11.150	0.002497
-11.145	0.002483
-11.140	0.002470
-11.135	0.002478
-11.130	0.002492
-11.125	0.002477
-11.120	0.002469
-11.115	0.002476
-11.110	0.002484
-11.105	0.002483
-11.100	0.002484
-11.095	0.002504
-11.090	0.002477
-11.085	0.002462
-11.080	0.002436
-11.075	0.002455
-11.070	0.002442
-11.065	0.002451
-11.060	0.002464
-11.055	0.002449
-11.050	0.002476
-11.045	0.002490
-11.040	0.002462
-11.035	0.002469
-11.030	0.002456
-11.025	0.002476
-11.020	0.002462
-11.015	0.002428
-11.010	0.002427
-11.005	0.002413
-11.000	0.002450
-10.995	0.002429
-10.990	0.002456
-10.985	0.002441
-10.980	0.002421
-10.975	0.002428
-10.970	0.002463
-10.965	0.002456
-10.960	0.002462
-10.955	0.002448
-10.950	0.002428
-10.945	0.002441
-10.940	0.002434
-10.935	0.002421
-10.930	0.002408
-10.925	0.002435
-10.920	0.002440
-10.915	0.002426
-10.910	0.002426
-10.905	0.002420
-10.900	0.002433
-10.895	0.002419
-10.890	0.002412
-10.885	0.002391
-10.880	0.002412
-10.875	0.002405
-10.870	0.002412
-10.865	0.002414
-10.860	0.002413
-10.855	0.002404
-10.850	0.002432
-10.845	0.002398
-10.840	0.002412
-10.835	0.002412
-10.830	0.002377
-10.825	0.002397
-10.820	0.002397
-10.815	0.002390
-10.810	0.002369
-10.805	0.002383
-10.800	0.002406
-10.795	0.002412
-10.790	0.002391
-10.785	0.002397
-10.780	0.002404
-10.775	0.002431
-10.770	0.002417
-10.765	0.002424
-10.760	0.002369
-10.755	0.002376
-10.750	0.002396
-10.745	0.002341
-10.740	0.002362
-10.735	0.002356
-10.730	0.002391
-10.725	0.002369
-10.720	0.002383
-10.715	0.002382
-10.710	0.002362
-10.705	0.002383
-10.700	0.002369
-10.695	0.002383
-10.690	0.002362
-10.685	0.002375
-10.680	0.002369
-10.675	0.002362
-10.670	0.002355
-10.665	0.002322
-10.660	0.002336
-10.655	0.002362
-10.650	0.002355
-10.645	0.002341
-10.640	0.002335
-10.635	0.002355
-10.630	0.002361
-10.625	0.002348
-10.620	0.002335
-10.615	0.002328
-10.610	0.002376
-10.605	0.002307
-10.600	0.002343
-10.595	0.002343
-10.590	0.002335
-10.585	0.002334
-10.580	0.002335
-10.575	0.002356
-10.570	0.002357
-10.565	0.002336
-10.560	0.002329
-10.555	0.002371
-10.550	0.002343
-10.545	0.002343
-10.540	0.002350
-10.535	0.002310
-10.530	0.002338
-10.525	0.002316
-10.520	0.002322
-10.515	0.002343
-10.510	0.002357
-10.505	0.002344
-10.500	0.002316
-10.495	0.002323
-10.490	0.002330
-10.485	0.002309
-10.480	0.002323
-10.475	0.002309
-10.470	0.002323
-10.465	0.002317
-10.460	0.002330
-10.455	0.002322
-10.450	0.002323
-10.445	0.002323
-10.440	0.002330
-10.435	0.002350
-10.430	0.002317
-10.425	0.002309
-10.420	0.002316
-10.415	0.002268
-10.410	0.002288
-10.405	0.002336
-10.400	0.002283
-10.395	0.002296
-10.390	0.002316
-10.385	0.002315
-10.380	0.002323
-10.375	0.002309
-10.370	0.002295
-10.365	0.002287
-10.360	0.002295
-10.355	0.002267
-10.350	0.002267
-10.345	0.002301
-10.340	0.002287
-10.335	0.002261
-10.330	0.002275
-10.325	0.002288
-10.320	0.002266
-10.315	0.002294
-10.310	0.002294
-10.305	0.002266
-10.300	0.002259
-10.295	0.002266
-10.290	0.002273
-10.285	0.002245
-10.280	0.002279
-10.275	0.002279
-10.270	0.002287
-10.265	0.002239
-10.260	0.002260
-10.255	0.002265
-10.250	0.002238
-10.245	0.002279
-10.240	0.002245
-10.235	0.002259
-10.230	0.002224
-10.225	0.002271
-10.220	0.002244
-10.215	0.002258
-10.210	0.002272
-10.205	0.002224
-10.200	0.002226
-10.195	0.002245
-10.190	0.002238
-10.185	0.002231
-10.180	0.002258
-10.175	0.002251
-10.170	0.002245
-10.165	0.002265
-10.160	0.002251
-10.155	0.002237
-10.150	0.002203
-10.145	0.002230
-10.140	0.002217
-10.135	0.002197
-10.130	0.002238
-10.125	0.002210
-10.120	0.002236
-10.115	0.002216
-10.110	0.002223
-10.105	0.002216
-10.100	0.002216
-10.095	0.002216
-10.090	0.002223
-10.085	0.002195
-10.080	0.002195
-10.075	0.002209
-10.070	0.002203
-10.065	0.002162
-10.060	0.002210
-10.055	0.002208
-10.050	0.002202
-10.045	0.002216
-10.040	0.002175
-10.035	0.002195
-10.030	0.002188
-10.025	0.002222
-10.020	0.002208
-10.015	0.002180
-10.010	0.002167
-10.005	0.002153
-10.000	0.002182
-9.995	0.002189
-9.990	0.002182
-9.985	0.002174
-9.980	0.002201
-9.975	0.002174
-9.970	0.002174
-9.965	0.002174
-9.960	0.002174
-9.955	0.002152
-9.950	0.002139
-9.945	0.002153
-9.940	0.002188
-9.935	0.002175
-9.930	0.002175
-9.925	0.002133
-9.920	0.002153
-9.915	0.002146
-9.910	0.002147
-9.905	0.002195
-9.900	0.002161
-9.895	0.002153
-9.890	0.002140
-9.885	0.002167
-9.880	0.002105
-9.875	0.002139
-9.870	0.002133
-9.865	0.002120
-9.860	0.002141
-9.855	0.002140
-9.850	0.002140
-9.845	0.002153
-9.840	0.002147
-9.835	0.002140
-9.830	0.002153
-9.825	0.002118
-9.820	0.002125
-9.815	0.002139
-9.810	0.002111
-9.805	0.002126
-9.800	0.002141
-9.795	0.002120
-9.790	0.002132
-9.785	0.002146
-9.780	0.002105
-9.775	0.002105
-9.770	0.002146
-9.765	0.002133
-9.760	0.002126
-9.755	0.002118
-9.750	0.002105
-9.745	0.002105
-9.740	0.002077
-9.735	0.002099
-9.730	0.002106
-9.725	0.002105
-9.720	0.002098
-9.715	0.002118
-9.710	0.002091
-9.705	0.002118
-9.700	0.002077
-9.695	0.002118
-9.690	0.002070
-9.685	0.002069
-9.680	0.002070
-9.675	0.002035
-9.670	0.002057
-9.665	0.002071
-9.660	0.002105
-9.655	0.002056
-9.650	0.002042
-9.645	0.002077
-9.640	0.002084
-9.635	0.002057
-9.630	0.002077
-9.625	0.002063
-9.620	0.002036
-9.615	0.002022
-9.610	0.002042
-9.605	0.002008
-9.600	0.001996
-9.595	0.002003
-9.590	0.001995
-9.585	0.001939
-9.580	0.001863
-9.575	0.001719
-9.570	0.001436
-9.565	0.000974
-9.560	0.000286
-9.555	-0.000707
-9.550	-0.002059
-9.545	-0.003780
-9.540	-0.005996
-9.535	-0.008586
-9.530	-0.011438
-9.525	-0.014766
-9.520	-0.018269
-9.515	-0.022181
-9.510	-0.026458
-9.505	-0.030840
-9.500	-0.035243
-9.495	-0.039528
-9.490	-0.043549
-9.485	-0.047437
-9.480	-0.050848
-9.475	-0.053124
-9.470	-0.053296
-9.465	-0.051053
-9.460	-0.047305
-9.455	-0.043014
-9.450	-0.039027
-9.445	-0.035702
-9.440	-0.033047
-9.435	-0.030931
-9.430	-0.029281
-9.425	-0.027900
-9.420	-0.026808
-9.415	-0.025845
-9.410	-0.024952
-9.405	-0.024141
-9.400	-0.023466
-9.395	-0.022804
-9.390	-0.022254
-9.385	-0.021681
-9.380	-0.021160
-9.375	-0.020681
-9.370	-0.020203
-9.365	-0.019736
-9.360	-0.019359
-9.355	-0.018970
-9.350	-0.018600
-9.345	-0.018217
-9.340	-0.017905
-9.335	-0.017568
-9.330	-0.017285
-9.325	-0.016962
-9.320	-0.016685
-9.315	-0.016429
-9.310	-0.016125
-9.305	-0.015901
-9.300	-0.015635
-9.295	-0.015415
-9.290	-0.015194
-9.285	-0.014941
-9.280	-0.014761
-9.275	-0.014573
-9.270	-0.014342
-9.265	-0.014150
-9.260	-0.013967
-9.255	-0.013788
-9.250	-0.013630
-9.245	-0.013473
-9.240	-0.013253
-9.235	-0.013135
-9.230	-0.012975
-9.225	-0.012870
-9.220	-0.012713
-9.215	-0.012574
-9.210	-0.012432
-9.205	-0.012324
-9.200	-0.012182
-9.195	-0.012061
-9.190	-0.011954
-9.185	-0.011802
-9.180	-0.011649
-9.175	-0.011568
-9.170	-0.011402
-9.165	-0.011301
-9.160	-0.011246
-9.155	-0.011125
-9.150	-0.011034
-9.145	-0.010909
-9.140	-0.010794
-9.135	-0.010700
-9.130	-0.010574
-9.125	-0.010501
-9.120	-0.010416
-9.115	-0.010293
-9.110	-0.010232
-9.105	-0.010165
-9.100	-0.010063
-9.095	-0.010000
-9.090	-0.009888
-9.085	-0.009838
-9.080	-0.009775
-9.075	-0.009668
-9.070	-0.009594
-9.065	-0.009497
-9.060	-0.009393
-9.055	-0.009369
-9.050	-0.009288
-9.045	-0.009231
-9.040	-0.009187
-9.035	-0.009116
-9.030	-0.008992
-9.025	-0.008929
-9.020	-0.008859
-9.015	-0.008809
-9.010	-0.008752
-9.005	-0.008698
-9.000	-0.008617
-8.995	-0.008498
-8.990	-0.008447
-8.985	-0.008427
-8.980	-0.008366
-8.975	-0.008339
-8.970	-0.008291
-8.965	-0.008228
-8.960	-0.008178
-8.955	-0.008143
-8.950	-0.008023
-8.945	-0.007994
-8.940	-0.007986
-8.935	-0.007913
-8.930	-0.007869
-8.925	-0.007798
-8.920	-0.007762
-8.915	-0.007686
-8.910	-0.007631
-8.905	-0.007590
-8.900	-0.007550
-8.895	-0.007507
-8.890	-0.007472
-8.885	-0.007471
-8.880	-0.007394
-8.875	-0.007311
-8.870	-0.007319
-8.865	-0.007229
-8.860	-0.007215
-8.855	-0.007190
-8.850	-0.007134
-8.845	-0.007107
-8.840	-0.007052
-8.835	-0.007018
-8.830	-0.006962
-8.825	-0.006920
-8.820	-0.006919
-8.815	-0.006843
-8.810	-0.006810
-8.805	-0.006840
-8.800	-0.006773
-8.795	-0.006744
-8.790	-0.006719
-8.785	-0.006690
-8.780	-0.006640
-8.775	-0.006598
-8.770	-0.006558
-8.765	-0.006509
-8.760	-0.006495
-8.755	-0.006453
-8.750	-0.006406
-8.745	-0.006371
-8.740	-0.006351
-8.735	-0.006311
-8.730	-0.006262
-8.725	-0.006233
-8.720	-0.006165
-8.715	-0.006158
-8.710	-0.006151
-8.705	-0.006101
-8.700	-0.006087
-8.695	-0.006031
-8.690	-0.005997
-8.685	-0.005956
-8.680	-0.005955
-8.675	-0.005935
-8.670	-0.005896
-8.665	-0.005885
-8.660	-0.005854
-8.655	-0.005824
-8.650	-0.005766
-8.645	-0.005715
-8.640	-0.005675
-8.635	-0.005691
-8.630	-0.005649
-8.625	-0.005621
-8.620	-0.005593
-8.615	-0.005546
-8.610	-0.005533
-8.605	-0.005527
-8.600	-0.005493
-8.595	-0.005437
-8.590	-0.005458
-8.585	-0.005431
-8.580	-0.005355
-8.575	-0.005342
-8.570	-0.005322
-8.565	-0.005310
-8.560	-0.005283
-8.555	-0.005255
-8.550	-0.005270
-8.545	-0.005214
-8.540	-0.005200
-8.535	-0.005167
-8.530	-0.005133
-8.525	-0.005091
-8.520	-0.005056
-8.515	-0.005036
-8.510	-0.005022
-8.505	-0.004995
-8.500	-0.004975
-8.495	-0.004989
-8.490	-0.004968
-8.485	-0.004968
-8.480	-0.004912
-8.475	-0.004878
-8.470	-0.004873
-8.465	-0.004846
-8.460	-0.004830
-8.455	-0.004808
-8.450	-0.004761
-8.445	-0.004803
-8.440	-0.004753
-8.435	-0.004696
-8.430	-0.004724
-8.425	-0.004690
-8.420	-0.004669
-8.415	-0.004668
-8.410	-0.004632
-8.405	-0.004611
-8.400	-0.004591
-8.395	-0.004571
-8.390	-0.004549
-8.385	-0.004548
-8.380	-0.004533
-8.375	-0.004477
-8.370	-0.004498
-8.365	-0.004436
-8.360	-0.004465
-8.355	-0.004486
-8.350	-0.004444
-8.345	-0.004436
-8.340	-0.004429
-8.335	-0.004421
-8.330	-0.004399
-8.325	-0.004348
-8.320	-0.004361
-8.315	-0.004292
-8.310	-0.004298
-8.305	-0.004263
-8.300	-0.004257
-8.295	-0.004277
-8.290	-0.004256
-8.285	-0.004235
-8.280	-0.004194
-8.275	-0.004201
-8.270	-0.004188
-8.265	-0.004161
-8.260	-0.004132
-8.255	-0.004124
-8.250	-0.004124
-8.245	-0.004104
-8.240	-0.004056
-8.235	-0.004070
-8.230	-0.004035
-8.225	-0.004056
-8.220	-0.004042
-8.215	-0.004001
-8.210	-0.003966
-8.205	-0.003987
-8.200	-0.003995
-8.195	-0.003946
-8.190	-0.003904
-8.185	-0.003931
-8.180	-0.003932
-8.175	-0.003911
-8.170	-0.003904
-8.165	-0.003849
-8.160	-0.003849
-8.155	-0.003863
-8.150	-0.003850
-8.145	-0.003808
-8.140	-0.003822
-8.135	-0.003782
-8.130	-0.003768
-8.125	-0.003760
-8.120	-0.003739
-8.115	-0.003753
-8.110	-0.003705
-8.105	-0.003699
-8.100	-0.003671
-8.095	-0.003664
-8.090	-0.003678
-8.085	-0.003657
-8.080	-0.003650
-8.075	-0.003664
-8.070	-0.003624
-8.065	-0.003631
-8.060	-0.003610
-8.055	-0.003595
-8.050	-0.003582
-8.045	-0.003568
-8.040	-0.003555
-8.035	-0.003528
-8.030	-0.003507
-8.025	-0.003486
-8.020	-0.003493
-8.015	-0.003521
-8.010	-0.003480
-8.005	-0.003487
-8.000	-0.003446
-7.995	-0.003418
-7.990	-0.003410
-7.985	-0.003444
-7.980	-0.003416
-7.975	-0.003402
-7.970	-0.003388
-7.965	-0.003395
-7.960	-0.003388
-7.955	-0.003374
-7.950	-0.003353
-7.945	-0.003367
-7.940	-0.003326
-7.935	-0.003354
-7.930	-0.003333
-7.925	-0.003298
-7.920	-0.003319
-7.915	-0.003291
-7.910	-0.003264
-7.905	-0.003264
-7.900	-0.003250
-7.895	-0.003257
-7.890	-0.003243
-7.885	-0.003257
-7.880	-0.003237
-7.875	-0.003230
-7.870	-0.003237
-7.865	-0.003210
-7.860	-0.003182
-7.855	-0.003168
-7.850	-0.003175
-7.845	-0.003140
-7.840	-0.003141
-7.835	-0.003196
-7.830	-0.003134
-7.825	-0.003147
-7.820	-0.003120
-7.815	-0.003161
-7.810	-0.003092
-7.805	-0.003120
-7.800	-0.003121
-7.795	-0.003127
-7.790	-0.003065
-7.785	-0.003072
-7.780	-0.003086
-7.775	-0.003079
-7.770	-0.003052
-7.765	-0.003031
-7.760	-0.003038
-7.755	-0.003031
-7.750	-0.003065
-7.745	-0.003024
-7.740	-0.003065
-7.735	-0.003011
-7.730	-0.002997
-7.725	-0.003004
-7.720	-0.002976
-7.715	-0.003003
-7.710	-0.002941
-7.705	-0.002983
-7.700	-0.002941
-7.695	-0.002955
-7.690	-0.002989
-7.685	-0.002976
-7.680	-0.002962
-7.675	-0.002955
-7.670	-0.002969
-7.665	-0.002928
-7.660	-0.002955
-7.655	-0.002941
-7.650	-0.002907
-7.645	-0.002928
-7.640	-0.002921
-7.635	-0.002893
-7.630	-0.002914
-7.625	-0.002893
-7.620	-0.002879
-7.615	-0.002859
-7.610	-0.002859
-7.605	-0.002838
-7.600	-0.002818
-7.595	-0.002831
-7.590	-0.002817
-7.585	-0.002811
-7.580	-0.002797
-7.575	-0.002804
-7.570	-0.002763
-7.565	-0.002763
-7.560	-0.002756
-7.555	-0.002742
-7.550	-0.002735
-7.545	-0.002749
-7.540	-0.002729
-7.535	-0.002701
-7.530	-0.002688
-7.525	-0.002687
-7.520	-0.002667
-7.515	-0.002646
-7.510	-0.002653
-7.505	-0.002626
-7.500	-0.002619
-7.495	-0.002612
-7.490	-0.002591
-7.485	-0.002577
-7.480	-0.002571
-7.475	-0.002522
-7.470	-0.002564
-7.465	-0.002523
-7.460	-0.002509
-7.455	-0.002509
-7.450	-0.002536
-7.445	-0.002536
-7.440	-0.002543
-7.435	-0.002543
-7.430	-0.002550
-7.425	-0.002557
-7.420	-0.002523
-7.415	-0.002557
-7.410	-0.002571
-7.405	-0.002558
-7.400	-0.002537
-7.395	-0.002557
-7.390	-0.002523
-7.385	-0.002509
-7.380	-0.002502
-7.375	-0.002489
-7.370	-0.002509
-7.365	-0.002488
-7.360	-0.002475
-7.355	-0.002467
-7.350	-0.002468
-7.345	-0.002454
-7.340	-0.002461
-7.335	-0.002426
-7.330	-0.002427
-7.325	-0.002426
-7.320	-0.002412
-7.315	-0.002412
-7.310	-0.002412
-7.305	-0.002391
-7.300	-0.002405
-7.295	-0.002419
-7.290	-0.002391
-7.285	-0.002405
-7.280	-0.002412
-7.275	-0.002398
-7.270	-0.002440
-7.265	-0.002398
-7.260	-0.002405
-7.255	-0.002405
-7.250	-0.002370
-7.245	-0.002384
-7.240	-0.002350
-7.235	-0.002391
-7.230	-0.002343
-7.225	-0.002363
-7.220	-0.002357
-7.215	-0.002343
-7.210	-0.002336
-7.205	-0.002315
-7.200	-0.002295
-7.195	-0.002281
-7.190	-0.002302
-7.185	-0.002246
-7.180	-0.002260
-7.175	-0.002253
-7.170	-0.002253
-7.165	-0.002232
-7.160	-0.002219
-7.155	-0.002226
-7.150	-0.002246
-7.145	-0.002233
-7.140	-0.002205
-7.135	-0.002212
-7.130	-0.002198
-7.125	-0.002191
-7.120	-0.002219
-7.115	-0.002212
-7.110	-0.002185
-7.105	-0.002226
-7.100	-0.002205
-7.095	-0.002178
-7.090	-0.002184
-7.085	-0.002185
-7.080	-0.002226
-7.075	-0.002219
-7.070	-0.002178
-7.065	-0.002199
-7.060	-0.002192
-7.055	-0.002157
-7.050	-0.002123
-7.045	-0.002164
-7.040	-0.002150
-7.035	-0.002116
-7.030	-0.002123
-7.025	-0.002143
-7.020	-0.002150
-7.015	-0.002123
-7.010	-0.002178
-7.005	-0.002137
-7.000	-0.002123
-6.995	-0.002102
-6.990	-0.002095
-6.985	-0.002089
-6.980	-0.002089
-6.975	-0.002061
-6.970	-0.002109
-6.965	-0.002061
-6.960	-0.002068
-6.955	-0.002096
-6.950	-0.002103
-6.945	-0.002054
-6.940	-0.002075
-6.935	-0.002048
-6.930	-0.002055
-6.925	-0.002027
-6.920	-0.002041
-6.915	-0.002034
-6.910	-0.002041
-6.905	-0.002041
-6.900	-0.002007
-6.895	-0.002007
-6.890	-0.002048
-6.885	-0.002013
-6.880	-0.002013
-6.875	-0.002027
-6.870	-0.002028
-6.865	-0.002014
-6.860	-0.002021
-6.855	-0.002048
-6.850	-0.002062
-6.845	-0.002048
-6.840	-0.002062
-6.835	-0.002041
-6.830	-0.002041
-6.825	-0.002055
-6.820	-0.002069
-6.815	-0.002083
-6.810	-0.002097
-6.805	-0.002076
-6.800	-0.002076
-6.795	-0.002049
-6.790	-0.002055
-6.785	-0.002055
-6.780	-0.002021
-6.775	-0.002014
-6.770	-0.002028
-6.765	-0.002028
-6.760	-0.002042
-6.755	-0.002042
-6.750	-0.001994
-6.745	-0.001973
-6.740	-0.001994
-6.735	-0.001987
-6.730	-0.001966
-6.725	-0.001966
-6.720	-0.001959
-6.715	-0.001959
-6.710	-0.001953
-6.705	-0.001939
-6.700	-0.001946
-6.695	-0.001925
-6.690	-0.001939
-6.685	-0.001925
-6.680	-0.001946
-6.675	-0.001946
-6.670	-0.001925
-6.665	-0.001912
-6.660	-0.001884
-6.655	-0.001932
-6.650	-0.001891
-6.645	-0.001891
-6.640	-0.001891
-6.635	-0.001898
-6.630	-0.001898
-6.625	-0.001891
-6.620	-0.001864
-6.615	-0.001891
-6.610	-0.001926
-6.605	-0.001898
-6.600	-0.001905
-6.595	-0.001912
-6.590	-0.001905
-6.585	-0.001871
-6.580	-0.001857
-6.575	-0.001878
-6.570	-0.001878
-6.565	-0.001836
-6.560	-0.001857
-6.555	-0.001885
-6.550	-0.001850
-6.545	-0.001857
-6.540	-0.001857
-6.535	-0.001871
-6.530	-0.001823
-6.525	-0.001795
-6.520	-0.001823
-6.515	-0.001816
-6.510	-0.001816
-6.505	-0.001802
-6.500	-0.001837
-6.495	-0.001802
-6.490	-0.001816
-6.485	-0.001850
-6.480	-0.001795
-6.475	-0.001795
-6.470	-0.001802
-6.465	-0.001788
-6.460	-0.001795
-6.455	-0.001788
-6.450	-0.001768
-6.445	-0.001740
-6.440	-0.001789
-6.435	-0.001775
-6.430	-0.001740
-6.425	-0.001747
-6.420	-0.001768
-6.415	-0.001754
-6.410	-0.001754
-6.405	-0.001768
-6.400	-0.001768
-6.395	-0.001727
-6.390	-0.001768
-6.385	-0.001740
-6.380	-0.001699
-6.375	-0.001720
-6.370	-0.001741
-6.365	-0.001727
-6.360	-0.001747
-6.355	-0.001747
-6.350	-0.001741
-6.345	-0.001720
-6.340	-0.001692
-6.335	-0.001713
-6.330	-0.001720
-6.325	-0.001699
-6.320	-0.001734
-6.315	-0.001693
-6.310	-0.001686
-6.305	-0.001713
-6.300	-0.001686
-6.295	-0.001686
-6.290	-0.001679
-6.285	-0.001686
-6.280	-0.001693
-6.275	-0.001672
-6.270	-0.001658
-6.265	-0.001658
-6.260	-0.001665
-6.255	-0.001665
-6.250	-0.001693
-6.245	-0.001610
-6.240	-0.001638
-6.235	-0.001638
-6.230	-0.001652
-6.225	-0.001638
-6.220	-0.001631
-6.215	-0.001659
-6.210	-0.001652
-6.205	-0.001631
-6.200	-0.001645
-6.195	-0.001617
-6.190	-0.001597
-6.185	-0.001610
-6.180	-0.001583
-6.175	-0.001610
-6.170	-0.001597
-6.165	-0.001611
-6.160	-0.001597
-6.155	-0.001604
-6.150	-0.001604
-6.145	-0.001583
-6.140	-0.001624
-6.135	-0.001590
-6.130	-0.001590
-6.125	-0.001569
-6.120	-0.001604
-6.115	-0.001590
-6.110	-0.001562
-6.105	-0.001542
-6.100	-0.001583
-6.095	-0.001597
-6.090	-0.001576
-6.085	-0.001563
-6.080	-0.001569
-6.075	-0.001542
-6.070	-0.001556
-6.065	-0.001549
-6.060	-0.001556
-6.055	-0.001514
-6.050	-0.001528
-6.045	-0.001535
-6.040	-0.001515
-6.035	-0.001515
-6.030	-0.001528
-6.025	-0.001494
-6.020	-0.001494
-6.015	-0.001501
-6.010	-0.001494
-6.005	-0.001501
-6.000	-0.001480
-5.995	-0.001473
-5.990	-0.001494
-5.985	-0.001446
-5.980	-0.001473
-5.975	-0.001432
-5.970	-0.001418
-5.965	-0.001446
-5.960	-0.001391
-5.955	-0.001439
-5.950	-0.001391
-5.945	-0.001418
-5.940	-0.001419
-5.935	-0.001377
-5.930	-0.001391
-5.925	-0.001364
-5.920	-0.001343
-5.915	-0.001343
-5.910	-0.001329
-5.905	-0.001302
-5.900	-0.001308
-5.895	-0.001315
-5.890	-0.001302
-5.885	-0.001315
-5.880	-0.001315
-5.875	-0.001302
-5.870	-0.001288
-5.865	-0.001288
-5.860	-0.001288
-5.855	-0.001233
-5.850	-0.001233
-5.845	-0.001267
-5.840	-0.001240
-5.835	-0.001302
-5.830	-0.001274
-5.825	-0.001288
-5.820	-0.001309
-5.815	-0.001316
-5.810	-0.001336
-5.805	-0.001350
-5.800	-0.001378
-5.795	-0.001440
-5.790	-0.001467
-5.785	-0.001481
-5.780	-0.001564
-5.775	-0.001633
-5.770	-0.001722
-5.765	-0.001805
-5.760	-0.001922
-5.755	-0.002039
-5.750	-0.002074
-5.745	-0.002198
-5.740	-0.002295
-5.735	-0.002391
-5.730	-0.002425
-5.725	-0.002508
-5.720	-0.002605
-5.715	-0.002611
-5.710	-0.002618
-5.705	-0.002590
-5.700	-0.002549
-5.695	-0.002501
-5.690	-0.002405
-5.685	-0.002281
-5.680	-0.002170
-5.675	-0.002019
-5.670	-0.001868
-5.665	-0.001744
-5.660	-0.001606
-5.655	-0.001496
-5.650	-0.001358
-5.645	-0.001247
-5.640	-0.001199
-5.635	-0.001144
-5.630	-0.001123
-5.625	-0.001068
-5.620	-0.001082
-5.615	-0.001062
-5.610	-0.001055
-5.605	-0.001048
-5.600	-0.001055
-5.595	-0.001068
-5.590	-0.001068
-5.585	-0.001062
-5.580	-0.001110
-5.575	-0.001068
-5.570	-0.001089
-5.565	-0.001089
-5.560	-0.001082
-5.555	-0.001117
-5.550	-0.001096
-5.545	-0.001089
-5.540	-0.001151
-5.535	-0.001117
-5.530	-0.001117
-5.525	-0.001089
-5.520	-0.001096
-5.515	-0.001110
-5.510	-0.001082
-5.505	-0.001110
-5.500	-0.001103
-5.495	-0.001096
-5.490	-0.001124
-5.485	-0.001110
-5.480	-0.001145
-5.475	-0.001131
-5.470	-0.001110
-5.465	-0.001117
-5.460	-0.001027
-5.455	-0.000896
-5.450	-0.000461
-5.445	0.000256
-5.440	0.001209
-5.435	0.002508
-5.430	0.004602
-5.425	0.007087
-5.420	0.010352
-5.415	0.014044
-5.410	0.017932
-5.405	0.022715
-5.400	0.027719
-5.395	0.032848
-5.390	0.038868
-5.385	0.045375
-5.380	0.051108
-5.375	0.056232
-5.370	0.061864
-5.365	0.067890
-5.360	0.072196
-5.355	0.073521
-5.350	0.071903
-5.345	0.068465
-5.340	0.064330
-5.335	0.060213
-5.330	0.056467
-5.325	0.053228
-5.320	0.050559
-5.315	0.048281
-5.310	0.046269
-5.305	0.044442
-5.300	0.042823
-5.295	0.041298
-5.290	0.040010
-5.285	0.038790
-5.280	0.037755
-5.275	0.036822
-5.270	0.035960
-5.265	0.035185
-5.260	0.034473
-5.255	0.033799
-5.250	0.033177
-5.245	0.032546
-5.240	0.031960
-5.235	0.031309
-5.230	0.030646
-5.225	0.030089
-5.220	0.029534
-5.215	0.029008
-5.210	0.028561
-5.205	0.028078
-5.200	0.027632
-5.195	0.027109
-5.190	0.026697
-5.185	0.026295
-5.180	0.025868
-5.175	0.025465
-5.170	0.025133
-5.165	0.024763
-5.160	0.024469
-5.155	0.024187
-5.150	0.023913
-5.145	0.023630
-5.140	0.023318
-5.135	0.023047
-5.130	0.022773
-5.125	0.022562
-5.120	0.022361
-5.115	0.022217
-5.110	0.022021
-5.105	0.021847
-5.100	0.021662
-5.095	0.021412
-5.090	0.021192
-5.085	0.020999
-5.080	0.020793
-5.075	0.020638
-5.070	0.020469
-5.065	0.020268
-5.060	0.020074
-5.055	0.019869
-5.050	0.019705
-5.045	0.019491
-5.040	0.019319
-5.035	0.019075
-5.030	0.018880
-5.025	0.018725
-5.020	0.018610
-5.015	0.018430
-5.010	0.018377
-5.005	0.018221
-5.000	0.018103
-4.995	0.017938
-4.990	0.017761
-4.985	0.017602
-4.980	0.017484
-4.975	0.017353
-4.970	0.017176
-4.965	0.017018
-4.960	0.016872
-4.955	0.016724
-4.950	0.016639
-4.945	0.016468
-4.940	0.016385
-4.935	0.016236
-4.930	0.016091
-4.925	0.015989
-4.920	0.015838
-4.915	0.015782
-4.910	0.015750
-4.905	0.015713
-4.900	0.015686
-4.895	0.015608
-4.890	0.015567
-4.885	0.015526
-4.880	0.015537
-4.875	0.015437
-4.870	0.015287
-4.865	0.015194
-4.860	0.015080
-4.855	0.014992
-4.850	0.014994
-4.845	0.014912
-4.840	0.014898
-4.835	0.014841
-4.830	0.014786
-4.825	0.014615
-4.820	0.014487
-4.815	0.014419
-4.810	0.014350
-4.805	0.014239
-4.800	0.014102
-4.795	0.013985
-4.790	0.013879
-4.785	0.013789
-4.780	0.013715
-4.775	0.013627
-4.770	0.013589
-4.765	0.013533
-4.760	0.013438
-4.755	0.013295
-4.750	0.013255
-4.745	0.013204
-4.740	0.013175
-4.735	0.013209
-4.730	0.013109
-4.725	0.013073
-4.720	0.013033
-4.715	0.013000
-4.710	0.012979
-4.705	0.012916
-4.700	0.012869
-4.695	0.012795
-4.690	0.012774
-4.685	0.012685
-4.680	0.012582
-4.675	0.012527
-4.670	0.012537
-4.665	0.012473
-4.660	0.012416
-4.655	0.012310
-4.650	0.012180
-4.645	0.012055
-4.640	0.011935
-4.635	0.011783
-4.630	0.011665
-4.625	0.011613
-4.620	0.011551
-4.615	0.011565
-4.610	0.011480
-4.605	0.011439
-4.600	0.011484
-4.595	0.011576
-4.590	0.011629
-4.585	0.011636
-4.580	0.011541
-4.575	0.011459
-4.570	0.011445
-4.565	0.011410
-4.560	0.011376
-4.555	0.011322
-4.550	0.011233
-4.545	0.011173
-4.540	0.011170
-4.535	0.011115
-4.530	0.011022
-4.525	0.010996
-4.520	0.010899
-4.515	0.010873
-4.510	0.010797
-4.505	0.010771
-4.500	0.010656
-4.495	0.010586
-4.490	0.010557
-4.485	0.010522
-4.480	0.010564
-4.475	0.010531
-4.470	0.010521
-4.465	0.010443
-4.460	0.010406
-4.455	0.010343
-4.450	0.010298
-4.445	0.010326
-4.440	0.010327
-4.435	0.010306
-4.430	0.010285
-4.425	0.010179
-4.420	0.010163
-4.415	0.010162
-4.410	0.010216
-4.405	0.010134
-4.400	0.009948
-4.395	0.009819
-4.390	0.009759
-4.385	0.009747
-4.380	0.009706
-4.375	0.009616
-4.370	0.009617
-4.365	0.009712
-4.360	0.009746
-4.355	0.009740
-4.350	0.009659
-4.345	0.009583
-4.340	0.009568
-4.335	0.009581
-4.330	0.009557
-4.325	0.009547
-4.320	0.009557
-4.315	0.009518
-4.310	0.009424
-4.305	0.009316
-4.300	0.009247
-4.295	0.009164
-4.290	0.009113
-4.285	0.009070
-4.280	0.009022
-4.275	0.009080
-4.270	0.009069
-4.265	0.009055
-4.260	0.009019
-4.255	0.009078
-4.250	0.009093
-4.245	0.009086
-4.240	0.009087
-4.235	0.009067
-4.230	0.008936
-4.225	0.008900
-4.220	0.008819
-4.215	0.008804
-4.210	0.008812
-4.205	0.008859
-4.200	0.008865
-4.195	0.008792
-4.190	0.008723
-4.185	0.008695
-4.180	0.008562
-4.175	0.008492
-4.170	0.008390
-4.165	0.008287
-4.160	0.008151
-4.155	0.007931
-4.150	0.007587
-4.145	0.007045
-4.140	0.006381
-4.135	0.005355
-4.130	0.003937
-4.125	0.002017
-4.120	-0.000317
-4.115	-0.003211
-4.110	-0.006709
-4.105	-0.010695
-4.100	-0.015173
-4.095	-0.020225
-4.090	-0.025656
-4.085	-0.031506
-4.080	-0.037591
-4.075	-0.043714
-4.070	-0.049926
-4.065	-0.055985
-4.060	-0.061526
-4.055	-0.066108
-4.050	-0.069262
-4.045	-0.070746
-4.040	-0.070354
-4.035	-0.068131
-4.030	-0.064538
-4.025	-0.060339
-4.020	-0.056164
-4.015	-0.052324
-4.010	-0.048988
-4.005	-0.046208
-4.000	-0.043842
-3.995	-0.041817
-3.990	-0.040052
-3.985	-0.038476
-3.980	-0.037017
-3.975	-0.035718
-3.970	-0.034543
-3.965	-0.033484
-3.960	-0.032533
-3.955	-0.031622
-3.950	-0.030813
-3.945	-0.030066
-3.940	-0.029369
-3.935	-0.028700
-3.930	-0.028122
-3.925	-0.027568
-3.920	-0.026994
-3.915	-0.026527
-3.910	-0.026025
-3.905	-0.025539
-3.900	-0.025073
-3.895	-0.024633
-3.890	-0.024233
-3.885	-0.023852
-3.880	-0.023470
-3.875	-0.023091
-3.870	-0.022705
-3.865	-0.022282
-3.860	-0.021948
-3.855	-0.021592
-3.850	-0.021297
-3.845	-0.020965
-3.840	-0.020613
-3.835	-0.020247
-3.830	-0.019922
-3.825	-0.019639
-3.820	-0.019355
-3.815	-0.019065
-3.810	-0.018775
-3.805	-0.018500
-3.800	-0.018253
-3.795	-0.017987
-3.790	-0.017751
-3.785	-0.017555
-3.780	-0.017338
-3.775	-0.017086
-3.770	-0.016891
-3.765	-0.016689
-3.760	-0.016507
-3.755	-0.016274
-3.750	-0.016039
-3.745	-0.015864
-3.740	-0.015665
-3.735	-0.015457
-3.730	-0.015244
-3.725	-0.015033
-3.720	-0.014833
-3.715	-0.014677
-3.710	-0.014560
-3.705	-0.014527
-3.700	-0.014428
-3.695	-0.014260
-3.690	-0.014098
-3.685	-0.013940
-3.680	-0.013803
-3.675	-0.013714
-3.670	-0.013549
-3.665	-0.013394
-3.660	-0.013228
-3.655	-0.013105
-3.650	-0.013014
-3.645	-0.012899
-3.640	-0.012777
-3.635	-0.012666
-3.630	-0.012564
-3.625	-0.012440
-3.620	-0.012332
-3.615	-0.012212
-3.610	-0.012048
-3.605	-0.011859
-3.600	-0.011715
-3.595	-0.011513
-3.590	-0.011338
-3.585	-0.011129
-3.580	-0.010914
-3.575	-0.010669
-3.570	-0.010383
-3.565	-0.010112
-3.560	-0.009746
-3.555	-0.009381
-3.550	-0.009019
-3.545	-0.008565
-3.540	-0.008071
-3.535	-0.007581
-3.530	-0.007010
-3.525	-0.006401
-3.520	-0.005774
-3.515	-0.005141
-3.510	-0.004541
-3.505	-0.003908
-3.500	-0.003275
-3.495	-0.002641
-3.490	-0.002028
-3.485	-0.001504
-3.480	-0.000995
-3.475	-0.000554
-3.470	-0.000216
-3.465	0.000162
-3.460	0.000464
-3.455	0.000698
-3.450	0.000843
-3.445	0.000918
-3.440	0.000905
-3.435	0.000864
-3.430	0.000809
-3.425	0.000740
-3.420	0.000781
-3.415	0.000931
-3.410	0.001131
-3.405	0.001393
-3.400	0.001752
-3.395	0.002223
-3.390	0.002810
-3.385	0.003509
-3.380	0.004311
-3.375	0.005168
-3.370	0.006132
-3.365	0.007156
-3.360	0.008234
-3.355	0.009248
-3.350	0.010289
-3.345	0.011354
-3.340	0.012100
-3.335	0.012421
-3.330	0.012305
-3.325	0.011881
-3.320	0.011380
-3.315	0.010924
-3.310	0.010452
-3.305	0.010027
-3.300	0.009712
-3.295	0.009464
-3.290	0.009335
-3.285	0.009168
-3.280	0.009046
-3.275	0.008938
-3.270	0.008793
-3.265	0.008776
-3.260	0.008781
-3.255	0.008753
-3.250	0.008812
-3.245	0.008868
-3.240	0.008925
-3.235	0.009008
-3.230	0.009079
-3.225	0.009144
-3.220	0.009144
-3.215	0.009253
-3.210	0.009295
-3.205	0.009351
-3.200	0.009396
-3.195	0.009455
-3.190	0.009606
-3.185	0.009764
-3.180	0.009985
-3.175	0.010102
-3.170	0.010246
-3.165	0.010403
-3.160	0.010507
-3.155	0.010560
-3.150	0.010669
-3.145	0.010723
-3.140	0.010775
-3.135	0.010809
-3.130	0.010862
-3.125	0.010930
-3.120	0.011051
-3.115	0.011161
-3.110	0.011225
-3.105	0.011300
-3.100	0.011376
-3.095	0.011390
-3.090	0.011426
-3.085	0.011475
-3.080	0.011579
-3.075	0.011617
-3.070	0.011675
-3.065	0.011734
-3.060	0.011757
-3.055	0.011791
-3.050	0.011866
-3.045	0.012052
-3.040	0.012173
-3.035	0.012206
-3.030	0.012256
-3.025	0.012327
-3.020	0.012406
-3.015	0.012561
-3.010	0.012617
-3.005	0.012723
-3.000	0.012855
-2.995	0.012992
-2.990	0.013067
-2.985	0.013139
-2.980	0.013195
-2.975	0.013237
-2.970	0.013336
-2.965	0.013485
-2.960	0.013575
-2.955	0.013614
-2.950	0.013647
-2.945	0.013681
-2.940	0.013737
-2.935	0.013854
-2.930	0.013954
-2.925	0.014083
-2.920	0.014308
-2.915	0.014470
-2.910	0.014577
-2.905	0.014630
-2.900	0.014679
-2.895	0.014742
-2.890	0.014764
-2.885	0.014836
-2.880	0.014863
-2.875	0.014948
-2.870	0.015058
-2.865	0.015228
-2.860	0.015318
-2.855	0.015426
-2.850	0.015516
-2.845	0.015628
-2.840	0.015709
-2.835	0.015682
-2.830	0.015663
-2.825	0.015718
-2.820	0.015761
-2.815	0.015803
-2.810	0.015751
-2.805	0.015712
-2.800	0.015710
-2.795	0.015744
-2.790	0.015780
-2.785	0.015814
-2.780	0.015819
-2.775	0.015808
-2.770	0.015850
-2.765	0.015799
-2.760	0.015861
-2.755	0.016036
-2.750	0.016150
-2.745	0.016242
-2.740	0.016263
-2.735	0.016278
-2.730	0.016253
-2.725	0.016342
-2.720	0.016497
-2.715	0.016625
-2.710	0.016707
-2.705	0.016743
-2.700	0.016849
-2.695	0.016975
-2.690	0.017152
-2.685	0.017323
-2.680	0.017430
-2.675	0.017433
-2.670	0.017462
-2.665	0.017612
-2.660	0.017715
-2.655	0.017828
-2.650	0.017932
-2.645	0.018103
-2.640	0.018246
-2.635	0.018332
-2.630	0.018412
-2.625	0.018363
-2.620	0.018299
-2.615	0.018260
-2.610	0.018174
-2.605	0.018057
-2.600	0.018035
-2.595	0.018034
-2.590	0.018114
-2.585	0.018112
-2.580	0.018145
-2.575	0.018139
-2.570	0.018119
-2.565	0.018166
-2.560	0.018193
-2.555	0.018188
-2.550	0.018275
-2.545	0.018384
-2.540	0.018536
-2.535	0.018639
-2.530	0.018707
-2.525	0.018734
-2.520	0.018702
-2.515	0.018743
-2.510	0.018702
-2.505	0.018685
-2.500	0.018712
-2.495	0.018737
-2.490	0.018710
-2.485	0.018634
-2.480	0.018562
-2.475	0.018562
-2.470	0.018582
-2.465	0.018640
-2.460	0.018751
-2.455	0.018773
-2.450	0.018889
-2.445	0.018958
-2.440	0.019033
-2.435	0.019048
-2.430	0.019022
-2.425	0.019054
-2.420	0.019096
-2.415	0.019135
-2.410	0.019277
-2.405	0.019373
-2.400	0.019358
-2.395	0.019345
-2.390	0.019417
-2.385	0.019530
-2.380	0.019621
-2.375	0.019661
-2.370	0.019699
-2.365	0.019755
-2.360	0.019783
-2.355	0.019804
-2.350	0.019858
-2.345	0.019889
-2.340	0.019907
-2.335	0.019880
-2.330	0.019902
-2.325	0.019887
-2.320	0.019966
-2.315	0.020016
-2.310	0.020001
-2.305	0.020003
-2.300	0.019984
-2.295	0.019900
-2.290	0.019837
-2.285	0.019799
-2.280	0.019743
-2.275	0.019656
-2.270	0.019622
-2.265	0.019602
-2.260	0.019655
-2.255	0.019694
-2.250	0.019786
-2.245	0.019836
-2.240	0.019876
-2.235	0.019833
-2.230	0.019722
-2.225	0.019649
-2.220	0.019650
-2.215	0.019648
-2.210	0.019614
-2.205	0.019624
-2.200	0.019641
-2.195	0.019647
-2.190	0.019678
-2.185	0.019693
-2.180	0.019719
-2.175	0.019745
-2.170	0.019684
-2.165	0.019662
-2.160	0.019603
-2.155	0.019559
-2.150	0.019505
-2.145	0.019430
-2.140	0.019367
-2.135	0.019277
-2.130	0.019267
-2.125	0.019313
-2.120	0.019477
-2.115	0.019623
-2.110	0.019777
-2.105	0.019946
-2.100	0.020103
-2.095	0.020256
-2.090	0.020335
-2.085	0.020366
-2.080	0.020370
-2.075	0.020413
-2.070	0.020398
-2.065	0.020373
-2.060	0.020385
-2.055	0.020344
-2.050	0.020323
-2.045	0.020256
-2.040	0.020169
-2.035	0.020098
-2.030	0.020009
-2.025	0.019910
-2.020	0.019819
-2.015	0.019759
-2.010	0.019740
-2.005	0.019691
-2.000	0.019637
-1.995	0.019594
-1.990	0.019540
-1.985	0.019553
-1.980	0.019601
-1.975	0.019674
-1.970	0.019769
-1.965	0.019894
-1.960	0.019938
-1.955	0.019920
-1.950	0.020019
-1.945	0.020052
-1.940	0.020058
-1.935	0.020065
-1.930	0.020031
-1.925	0.020031
-1.920	0.019977
-1.915	0.019968
-1.910	0.019947
-1.905	0.019969
-1.900	0.019953
-1.895	0.019906
-1.890	0.019844
-1.885	0.019807
-1.880	0.019712
-1.875	0.019597
-1.870	0.019469
-1.865	0.019350
-1.860	0.019200
-1.855	0.019069
-1.850	0.018963
-1.845	0.018921
-1.840	0.018818
-1.835	0.018772
-1.830	0.018677
-1.825	0.018608
-1.820	0.018531
-1.815	0.018485
-1.810	0.018488
-1.805	0.018559
-1.800	0.018662
-1.795	0.018779
-1.790	0.018927
-1.785	0.019089
-1.780	0.019293
-1.775	0.019410
-1.770	0.019489
-1.765	0.019512
-1.760	0.019479
-1.755	0.019417
-1.750	0.019311
-1.745	0.019299
-1.740	0.019223
-1.735	0.019235
-1.730	0.019236
-1.725	0.019192
-1.720	0.019126
-1.715	0.019065
-1.710	0.018971
-1.705	0.018841
-1.700	0.018670
-1.695	0.018540
-1.690	0.018402
-1.685	0.018302
-1.680	0.018160
-1.675	0.018067
-1.670	0.018001
-1.665	0.017938
-1.660	0.017942
-1.655	0.017892
-1.650	0.017933
-1.645	0.017897
-1.640	0.017906
-1.635	0.017880
-1.630	0.017868
-1.625	0.017889
-1.620	0.017890
-1.615	0.017928
-1.610	0.017925
-1.605	0.017993
-1.600	0.018096
-1.595	0.018145
-1.590	0.018248
-1.585	0.018281
-1.580	0.018330
-1.575	0.018317
-1.570	0.018285
-1.565	0.018276
-1.560	0.018251
-1.555	0.018222
-1.550	0.018161
-1.545	0.018142
-1.540	0.018163
-1.535	0.018132
-1.530	0.018127
-1.525	0.018070
-1.520	0.018003
-1.515	0.017909
-1.510	0.017765
-1.505	0.017658
-1.500	0.017521
-1.495	0.017423
-1.490	0.017286
-1.485	0.017148
-1.480	0.017038
-1.475	0.016886
-1.470	0.016735
-1.465	0.016578
-1.460	0.016472
-1.455	0.016299
-1.450	0.016216
-1.445	0.016078
-1.440	0.015982
-1.435	0.015837
-1.430	0.015747
-1.425	0.015700
-1.420	0.015708
-1.415	0.015792
-1.410	0.015872
-1.405	0.015960
-1.400	0.016021
-1.395	0.016098
-1.390	0.016124
-1.385	0.016165
-1.380	0.016161
-1.375	0.016176
-1.370	0.016138
-1.365	0.016105
-1.360	0.016114
-1.355	0.016012
-1.350	0.015999
-1.345	0.015941
-1.340	0.015911
-1.335	0.015876
-1.330	0.015810
-1.325	0.015834
-1.320	0.015795
-1.315	0.015775
-1.310	0.015804
-1.305	0.015824
-1.300	0.015783
-1.295	0.015735
-1.290	0.015721
-1.285	0.015624
-1.280	0.015543
-1.275	0.015459
-1.270	0.015322
-1.265	0.015253
-1.260	0.015177
-1.255	0.015093
-1.250	0.015038
-1.245	0.014920
-1.240	0.014783
-1.235	0.014681
-1.230	0.014567
-1.225	0.014482
-1.220	0.014365
-1.215	0.014310
-1.210	0.014275
-1.205	0.014200
-1.200	0.014192
-1.195	0.014105
-1.190	0.014091
-1.185	0.014053
-1.180	0.014067
-1.175	0.014073
-1.170	0.014075
-1.165	0.014079
-1.160	0.014135
-1.155	0.014175
-1.150	0.014243
-1.145	0.014301
-1.140	0.014368
-1.135	0.014421
-1.130	0.014429
-1.125	0.014416
-1.120	0.014373
-1.115	0.014320
-1.110	0.014274
-1.105	0.014172
-1.100	0.014076
-1.095	0.013938
-1.090	0.013829
-1.085	0.013648
-1.080	0.013528
-1.075	0.013380
-1.070	0.013229
-1.065	0.013101
-1.060	0.013017
-1.055	0.012949
-1.050	0.012867
-1.045	0.012847
-1.040	0.012827
-1.035	0.012835
-1.030	0.012836
-1.025	0.012819
-1.020	0.012827
-1.015	0.012839
-1.010	0.012823
-1.005	0.012849
-1.000	0.012867
-0.995	0.012905
-0.990	0.012907
-0.985	0.012930
-0.980	0.012870
-0.975	0.012829
-0.970	0.012707
-0.965	0.012624
-0.960	0.012494
-0.955	0.012391
-0.950	0.012310
-0.945	0.012168
-0.940	0.012047
-0.935	0.011867
-0.930	0.011786
-0.925	0.011675
-0.920	0.011584
-0.915	0.011462
-0.910	0.011372
-0.905	0.011311
-0.900	0.011195
-0.895	0.011193
-0.890	0.011132
-0.885	0.011112
-0.880	0.011084
-0.875	0.011033
-0.870	0.011032
-0.865	0.010994
-0.860	0.010999
-0.855	0.011006
-0.850	0.010959
-0.845	0.010923
-0.840	0.010946
-0.835	0.010890
-0.830	0.010864
-0.825	0.010843
-0.820	0.010783
-0.815	0.010716
-0.810	0.010617
-0.805	0.010571
-0.800	0.010480
-0.795	0.010416
-0.790	0.010335
-0.785	0.010272
-0.780	0.010141
-0.775	0.010080
-0.770	0.009937
-0.765	0.009820
-0.760	0.009697
-0.755	0.009629
-0.750	0.009518
-0.745	0.009397
-0.740	0.009288
-0.735	0.009175
-0.730	0.009108
-0.725	0.009018
-0.720	0.008951
-0.715	0.008917
-0.710	0.008877
-0.705	0.008857
-0.700	0.008830
-0.695	0.008780
-0.690	0.008739
-0.685	0.008738
-0.680	0.008677
-0.675	0.008680
-0.670	0.008743
-0.665	0.008732
-0.660	0.008765
-0.655	0.008798
-0.650	0.008756
-0.645	0.008735
-0.640	0.008719
-0.635	0.008717
-0.630	0.008738
-0.625	0.008655
-0.620	0.008609
-0.615	0.008532
-0.610	0.008489
-0.605	0.008390
-0.600	0.008367
-0.595	0.008281
-0.590	0.008234
-0.585	0.008126
-0.580	0.008024
-0.575	0.007874
-0.570	0.007786
-0.565	0.007704
-0.560	0.007594
-0.555	0.007455
-0.550	0.007316
-0.545	0.007257
-0.540	0.007136
-0.535	0.007046
-0.530	0.006968
-0.525	0.006830
-0.520	0.006721
-0.515	0.006678
-0.510	0.006568
-0.505	0.006483
-0.500	0.006406
-0.495	0.006363
-0.490	0.006294
-0.485	0.006251
-0.480	0.006197
-0.475	0.006123
-0.470	0.006102
-0.465	0.006004
-0.460	0.005922
-0.455	0.005887
-0.450	0.005825
-0.445	0.005784
-0.440	0.005757
-0.435	0.005668
-0.430	0.005633
-0.425	0.005584
-0.420	0.005537
-0.415	0.005434
-0.410	0.005403
-0.405	0.005328
-0.400	0.005272
-0.395	0.005241
-0.390	0.005220
-0.385	0.005204
-0.380	0.005149
-0.375	0.005115
-0.370	0.005101
-0.365	0.005060
-0.360	0.005031
-0.355	0.004969
-0.350	0.004969
-0.345	0.004930
-0.340	0.004931
-0.335	0.004860
-0.330	0.004812
-0.325	0.004757
-0.320	0.004710
-0.315	0.004677
-0.310	0.004594
-0.305	0.004538
-0.300	0.004477
-0.295	0.004401
-0.290	0.004332
-0.285	0.004222
-0.280	0.004139
-0.275	0.004111
-0.270	0.003973
-0.265	0.003910
-0.260	0.003854
-0.255	0.003798
-0.250	0.003749
-0.245	0.003686
-0.240	0.003630
-0.235	0.003540
-0.230	0.003429
-0.225	0.003368
-0.220	0.003224
-0.215	0.003094
-0.210	0.003033
-0.205	0.002923
-0.200	0.002778
-0.195	0.002696
-0.190	0.002574
-0.185	0.002471
-0.180	0.002422
-0.175	0.002352
-0.170	0.002318
-0.165	0.002310
-0.160	0.002228
-0.155	0.002138
-0.150	0.002124
-0.145	0.002028
-0.140	0.001967
-0.135	0.001939
-0.130	0.001896
-0.125	0.001888
-0.120	0.001834
-0.115	0.001731
-0.110	0.001738
-0.105	0.001710
-0.100	0.001655
-0.095	0.001662
-0.090	0.001744
-0.085	0.001929
-0.080	0.002088
-0.075	0.002248
-0.070	0.002524
-0.065	0.002723
-0.060	0.002882
-0.055	0.003033
-0.050	0.003067
-0.045	0.003046
-0.040	0.002901
-0.035	0.002591
-0.030	0.002268
-0.025	0.001821
-0.020	0.001249
-0.015	0.000305
-0.010	-0.000768
-0.005	-0.001953
0.000	-0.003022
0.005	-0.004001
0.010	-0.004740
0.015	-0.005329
0.020	-0.005545
0.025	-0.005319
0.030	-0.004661
0.035	-0.003558
0.040	-0.002153
0.045	-0.000438
0.050	0.001393
0.055	0.003139
0.060	0.004579
0.065	0.005701
0.070	0.006240
0.075	0.006237
0.080	0.005735
0.085	0.004679
0.090	0.003227
0.095	0.001613
0.100	-0.000015
0.105	-0.001582
0.110	-0.002863
0.115	-0.003731
0.120	-0.004283
0.125	-0.004532
0.130	-0.004457
0.135	-0.004174
0.140	-0.003781
0.145	-0.003271
0.150	-0.002816
0.155	-0.002512
0.160	-0.002333
0.165	-0.002347
0.170	-0.002312
0.175	-0.002340
0.180	-0.002347
0.185	-0.002361
0.190	-0.002416
0.195	-0.002492
0.200	-0.002561
0.205	-0.002623
0.210	-0.002637
0.215	-0.002712
0.220	-0.002692
0.225	-0.002658
0.230	-0.002700
0.235	-0.002720
0.240	-0.002817
0.245	-0.002886
0.250	-0.002955
0.255	-0.002996
0.260	-0.003107
0.265	-0.003168
0.270	-0.003188
0.275	-0.003223
0.280	-0.003230
0.285	-0.003265
0.290	-0.003320
0.295	-0.003402
0.300	-0.003499
0.305	-0.003560
0.310	-0.003649
0.315	-0.003746
0.320	-0.003802
0.325	-0.003830
0.330	-0.003926
0.335	-0.004001
0.340	-0.004022
0.345	-0.004077
0.350	-0.004105
0.355	-0.004146
0.360	-0.004229
0.365	-0.004244
0.370	-0.004320
0.375	-0.004403
0.380	-0.004506
0.385	-0.004582
0.390	-0.004645
0.395	-0.004694
0.400	-0.004823
0.405	-0.004883
0.410	-0.004986
0.415	-0.005034
0.420	-0.005089
0.425	-0.005164
0.430	-0.005240
0.435	-0.005303
0.440	-0.005339
0.445	-0.005408
0.450	-0.005485
0.455	-0.005575
0.460	-0.005657
0.465	-0.005724
0.470	-0.005811
0.475	-0.005873
0.480	-0.005893
0.485	-0.005956
0.490	-0.006019
0.495	-0.006047
0.500	-0.006103
0.505	-0.006164
0.510	-0.006227
0.515	-0.006297
0.520	-0.006374
0.525	-0.006438
0.530	-0.006553
0.535	-0.006620
0.540	-0.006729
0.545	-0.006804
0.550	-0.006880
0.555	-0.006997
0.560	-0.007080
0.565	-0.007209
0.570	-0.007306
0.575	-0.007390
0.580	-0.007514
0.585	-0.007633
0.590	-0.007704
0.595	-0.007801
0.600	-0.007877
0.605	-0.007965
0.610	-0.008021
0.615	-0.008110
0.620	-0.008153
0.625	-0.008222
0.630	-0.008249
0.635	-0.008282
0.640	-0.008330
0.645	-0.008393
0.650	-0.008366
0.655	-0.008403
0.660	-0.008445
0.665	-0.008445
0.670	-0.008408
0.675	-0.008437
0.680	-0.008480
0.685	-0.008460
0.690	-0.008480
0.695	-0.008471
0.700	-0.008498
0.705	-0.008526
0.710	-0.008525
0.715	-0.008559
0.720	-0.008595
0.725	-0.008594
0.730	-0.008615
0.735	-0.008633
0.740	-0.008681
0.745	-0.008673
0.750	-0.008688
0.755	-0.008715
0.760	-0.008764
0.765	-0.008791
0.770	-0.008881
0.775	-0.008915
0.780	-0.008923
0.785	-0.009012
0.790	-0.009132
0.795	-0.009220
0.800	-0.009303
0.805	-0.009418
0.810	-0.009563
0.815	-0.009688
0.820	-0.009855
0.825	-0.010028
0.830	-0.010146
0.835	-0.010333
0.840	-0.010466
0.845	-0.010634
0.850	-0.010779
0.855	-0.010916
0.860	-0.011056
0.865	-0.011124
0.870	-0.011247
0.875	-0.011283
0.880	-0.011299
0.885	-0.011348
0.890	-0.011386
0.895	-0.011436
0.900	-0.011487
0.905	-0.011496
0.910	-0.011519
0.915	-0.011514
0.920	-0.011497
0.925	-0.011570
0.930	-0.011557
0.935	-0.011567
0.940	-0.011643
0.945	-0.011655
0.950	-0.011697
0.955	-0.011787
0.960	-0.011849
0.965	-0.011915
0.970	-0.012044
0.975	-0.012172
0.980	-0.012267
0.985	-0.012388
0.990	-0.012465
0.995	-0.012578
1.000	-0.012672
1.005	-0.012767
1.010	-0.012840
1.015	-0.012911
1.020	-0.012953
1.025	-0.012992
1.030	-0.012978
1.035	-0.012997
1.040	-0.013008
1.045	-0.012997
1.050	-0.012982
1.055	-0.012966
1.060	-0.012917
1.065	-0.012875
1.070	-0.012828
1.075	-0.012800
1.080	-0.012813
1.085	-0.012785
1.090	-0.012832
1.095	-0.012853
1.100	-0.012859
1.105	-0.012890
1.110	-0.012987
1.115	-0.013082
1.120	-0.013197
1.125	-0.013336
1.130	-0.013488
1.135	-0.013608
1.140	-0.013720
1.145	-0.013845
1.150	-0.013963
1.155	-0.014135
1.160	-0.014251
1.165	-0.014376
1.170	-0.014444
1.175	-0.014551
1.180	-0.014661
1.185	-0.014718
1.190	-0.014756
1.195	-0.014844
1.200	-0.014862
1.205	-0.014887
1.210	-0.014872
1.215	-0.014865
1.220	-0.014873
1.225	-0.014906
1.230	-0.014918
1.235	-0.014992
1.240	-0.014998
1.245	-0.015012
1.250	-0.015060
1.255	-0.015071
1.260	-0.015078
1.265	-0.015074
1.270	-0.015076
1.275	-0.015131
1.280	-0.015130
1.285	-0.015214
1.290	-0.015256
1.295	-0.015303
1.300	-0.015395
1.305	-0.015435
1.310	-0.015489
1.315	-0.015493
1.320	-0.015492
1.325	-0.015488
1.330	-0.015431
1.335	-0.015411
1.340	-0.015390
1.345	-0.015296
1.350	-0.015302
1.355	-0.015348
1.360	-0.015319
1.365	-0.015348
1.370	-0.015329
1.375	-0.015336
1.380	-0.015406
1.385	-0.015497
1.390	-0.015635
1.395	-0.015761
1.400	-0.015888
1.405	-0.015993
1.410	-0.016016
1.415	-0.016134
1.420	-0.016213
1.425	-0.016281
1.430	-0.016358
1.435	-0.016436
1.440	-0.016542
1.445	-0.016603
1.450	-0.016639
1.455	-0.016650
1.460	-0.016745
1.465	-0.016768
1.470	-0.016813
1.475	-0.016830
1.480	-0.016859
1.485	-0.016902
1.490	-0.016916
1.495	-0.016974
1.500	-0.017033
1.505	-0.017078
1.510	-0.017123
1.515	-0.017202
1.520	-0.017277
1.525	-0.017331
1.530	-0.017439
1.535	-0.017492
1.540	-0.017491
1.545	-0.017487
1.550	-0.017527
1.555	-0.017487
1.560	-0.017489
1.565	-0.017501
1.570	-0.017519
1.575	-0.017475
1.580	-0.017502
1.585	-0.017566
1.590	-0.017626
1.595	-0.017718
1.600	-0.017745
1.605	-0.017816
1.610	-0.017948
1.615	-0.018063
1.620	-0.018184
1.625	-0.018332
1.630	-0.018440
1.635	-0.018510
1.640	-0.018563
1.645	-0.018629
1.650	-0.018701
1.655	-0.018753
1.660	-0.018834
1.665	-0.018870
1.670	-0.018870
1.675	-0.018858
1.680	-0.018851
1.685	-0.018873
1.690	-0.018772
1.695	-0.018757
1.700	-0.018748
1.705	-0.018709
1.710	-0.018624
1.715	-0.018547
1.720	-0.018481
1.725	-0.018411
1.730	-0.018413
1.735	-0.018405
1.740	-0.018462
1.745	-0.018481
1.750	-0.018516
1.755	-0.018508
1.760	-0.018552
1.765	-0.018551
1.770	-0.018566
1.775	-0.018568
1.780	-0.018572
1.785	-0.018667
1.790	-0.018721
1.795	-0.018854
1.800	-0.018927
1.805	-0.019062
1.810	-0.019123
1.815	-0.019196
1.820	-0.019311
1.825	-0.019300
1.830	-0.019337
1.835	-0.019327
1.840	-0.019377
1.845	-0.019378
1.850	-0.019398
1.855	-0.019390
1.860	-0.019433
1.865	-0.019456
1.870	-0.019542
1.875	-0.019550
1.880	-0.019627
1.885	-0.019687
1.890	-0.019714
1.895	-0.019677
1.900	-0.019648
1.905	-0.019645
1.910	-0.019616
1.915	-0.019607
1.920	-0.019563
1.925	-0.019545
1.930	-0.019504
1.935	-0.019466
1.940	-0.019463
1.945	-0.019443
1.950	-0.019447
1.955	-0.019457
1.960	-0.019493
1.965	-0.019503
1.970	-0.019488
1.975	-0.019554
1.980	-0.019746
1.985	-0.019900
1.990	-0.019992
1.995	-0.020027
2.000	-0.020048
2.005	-0.020070
2.010	-0.020112
2.015	-0.020162
2.020	-0.020219
2.025	-0.020254
2.030	-0.020275
2.035	-0.020284
2.040	-0.020257
2.045	-0.020201
2.050	-0.020141
2.055	-0.020100
2.060	-0.020114
2.065	-0.020202
2.070	-0.020229
2.075	-0.020248
2.080	-0.020312
2.085	-0.020280
2.090	-0.020266
2.095	-0.020183
2.100	-0.020086
2.105	-0.020000
2.110	-0.019969
2.115	-0.019839
2.120	-0.019834
2.125	-0.019753
2.130	-0.019704
2.135	-0.019679
2.140	-0.019629
2.145	-0.019685
2.150	-0.019694
2.155	-0.019673
2.160	-0.019586
2.165	-0.019507
2.170	-0.019497
2.175	-0.019579
2.180	-0.019645
2.185	-0.019728
2.190	-0.019830
2.195	-0.019902
2.200	-0.019992
2.205	-0.020024
2.210	-0.020062
2.215	-0.020083
2.220	-0.020074
2.225	-0.019989
2.230	-0.019978
2.235	-0.019921
2.240	-0.019847
2.245	-0.019730
2.250	-0.019568
2.255	-0.019449
2.260	-0.019437
2.265	-0.019445
2.270	-0.019432
2.275	-0.019490
2.280	-0.019524
2.285	-0.019614
2.290	-0.019667
2.295	-0.019730
2.300	-0.019788
2.305	-0.019776
2.310	-0.019778
2.315	-0.019851
2.320	-0.019909
2.325	-0.019989
2.330	-0.020040
2.335	-0.020132
2.340	-0.020155
2.345	-0.020262
2.350	-0.020332
2.355	-0.020386
2.360	-0.020349
2.365	-0.020291
2.370	-0.020243
2.375	-0.020205
2.380	-0.020036
2.385	-0.019870
2.390	-0.019697
2.395	-0.019606
2.400	-0.019566
2.405	-0.019526
2.410	-0.019457
2.415	-0.019374
2.420	-0.019302
2.425	-0.019261
2.430	-0.019183
2.435	-0.019086
2.440	-0.019002
2.445	-0.018964
2.450	-0.018909
2.455	-0.018880
2.460	-0.018910
2.465	-0.018944
2.470	-0.018981
2.475	-0.019104
2.480	-0.019304
2.485	-0.019426
2.490	-0.019232
2.495	-0.018862
2.500	-0.018792
2.505	-0.018884
2.510	-0.018996
2.515	-0.018968
2.520	-0.018855
2.525	-0.018740
2.530	-0.018619
2.535	-0.018569
2.540	-0.018507
2.545	-0.018486
2.550	-0.018473
2.555	-0.018418
2.560	-0.018391
2.565	-0.018395
2.570	-0.018396
2.575	-0.018296
2.580	-0.018253
2.585	-0.018319
2.590	-0.018339
2.595	-0.018347
2.600	-0.018289
2.605	-0.018264
2.610	-0.018236
2.615	-0.018284
2.620	-0.018315
2.625	-0.018409
2.630	-0.018494
2.635	-0.018478
2.640	-0.018432
2.645	-0.018351
2.650	-0.018238
2.655	-0.018141
2.660	-0.018077
2.665	-0.017928
2.670	-0.017790
2.675	-0.017742
2.680	-0.017620
2.685	-0.017580
2.690	-0.017492
2.695	-0.017365
2.700	-0.017218
2.705	-0.017143
2.710	-0.017079
2.715	-0.017053
2.720	-0.017033
2.725	-0.017017
2.730	-0.017003
2.735	-0.017002
2.740	-0.016946
2.745	-0.016947
2.750	-0.016801
2.755	-0.016648
2.760	-0.016419
2.765	-0.016235
2.770	-0.016100
2.775	-0.015988
2.780	-0.015839
2.785	-0.015759
2.790	-0.015675
2.795	-0.015680
2.800	-0.015639
2.805	-0.015629
2.810	-0.015575
2.815	-0.015533
2.820	-0.015494
2.825	-0.015484
2.830	-0.015487
2.835	-0.015634
2.840	-0.015759
2.845	-0.015819
2.850	-0.015907
2.855	-0.015902
2.860	-0.015808
2.865	-0.015657
2.870	-0.015568
2.875	-0.015466
2.880	-0.015329
2.885	-0.015212
2.890	-0.015101
2.895	-0.014926
2.900	-0.014822
2.905	-0.014770
2.910	-0.014652
2.915	-0.014433
2.920	-0.014315
2.925	-0.014236
2.930	-0.014172
2.935	-0.014158
2.940	-0.014120
2.945	-0.014105
2.950	-0.014056
2.955	-0.013911
2.960	-0.013848
2.965	-0.013784
2.970	-0.013640
2.975	-0.013484
2.980	-0.013334
2.985	-0.013200
2.990	-0.013090
2.995	-0.012988
3.000	-0.012979
3.005	-0.012934
3.010	-0.012874
3.015	-0.012804
3.020	-0.012668
3.025	-0.012523
3.030	-0.012409
3.035	-0.012333
3.040	-0.012264
3.045	-0.012143
3.050	-0.012140
3.055	-0.012072
3.060	-0.012032
3.065	-0.011984
3.070	-0.011840
3.075	-0.011747
3.080	-0.011692
3.085	-0.011630
3.090	-0.011540
3.095	-0.011469
3.100	-0.011412
3.105	-0.011355
3.110	-0.011270
3.115	-0.011097
3.120	-0.010991
3.125	-0.010958
3.130	-0.010873
3.135	-0.010811
3.140	-0.010777
3.145	-0.010702
3.150	-0.010652
3.155	-0.010601
3.160	-0.010555
3.165	-0.010437
3.170	-0.010381
3.175	-0.010272
3.180	-0.010225
3.185	-0.010116
3.190	-0.010035
3.195	-0.009929
3.200	-0.009760
3.205	-0.009677
3.210	-0.009491
3.215	-0.009329
3.220	-0.009183
3.225	-0.009045
3.230	-0.008938
3.235	-0.008863
3.240	-0.008795
3.245	-0.008753
3.250	-0.008745
3.255	-0.008774
3.260	-0.008718
3.265	-0.008723
3.270	-0.008750
3.275	-0.008787
3.280	-0.008836
3.285	-0.008884
3.290	-0.008940
3.295	-0.009015
3.300	-0.009200
3.305	-0.009370
3.310	-0.009646
3.315	-0.009896
3.320	-0.010212
3.325	-0.010488
3.330	-0.010737
3.335	-0.010875
3.340	-0.010945
3.345	-0.010909
3.350	-0.010822
3.355	-0.010607
3.360	-0.010316
3.365	-0.009906
3.370	-0.009232
3.375	-0.008584
3.380	-0.007733
3.385	-0.006747
3.390	-0.005450
3.395	-0.003961
3.400	-0.002506
3.405	-0.001354
3.410	-0.000638
3.415	-0.000266
3.420	-0.000093
3.425	-0.000100
3.430	-0.000155
3.435	-0.000279
3.440	-0.000403
3.445	-0.000527
3.450	-0.000582
3.455	-0.000589
3.460	-0.000562
3.465	-0.000452
3.470	-0.000259
3.475	0.000030
3.480	0.000306
3.485	0.000719
3.490	0.001167
3.495	0.001649
3.500	0.002173
3.505	0.002765
3.510	0.003364
3.515	0.004051
3.520	0.004700
3.525	0.005348
3.530	0.006013
3.535	0.006688
3.540	0.007321
3.545	0.007914
3.550	0.008493
3.555	0.009024
3.560	0.009464
3.565	0.009891
3.570	0.010230
3.575	0.010541
3.580	0.010852
3.585	0.011062
3.590	0.011307
3.595	0.011567
3.600	0.011826
3.605	0.011970
3.610	0.012191
3.615	0.012357
3.620	0.012470
3.625	0.012615
3.630	0.012758
3.635	0.012923
3.640	0.013091
3.645	0.013138
3.650	0.013123
3.655	0.013144
3.660	0.013313
3.665	0.013503
3.670	0.013618
3.675	0.013762
3.680	0.013903
3.685	0.014047
3.690	0.014194
3.695	0.014361
3.700	0.014530
3.705	0.014644
3.710	0.014794
3.715	0.014940
3.720	0.015138
3.725	0.015272
3.730	0.015425
3.735	0.015595
3.740	0.015806
3.745	0.015997
3.750	0.016188
3.755	0.016386
3.760	0.016585
3.765	0.016761
3.770	0.016989
3.775	0.017208
3.780	0.017403
3.785	0.017654
3.790	0.017840
3.795	0.018079
3.800	0.018344
3.805	0.018590
3.810	0.018906
3.815	0.019181
3.820	0.019479
3.825	0.019724
3.830	0.020016
3.835	0.020333
3.840	0.020663
3.845	0.021017
3.850	0.021346
3.855	0.021701
3.860	0.022005
3.865	0.022402
3.870	0.022757
3.875	0.023130
3.880	0.023551
3.885	0.023936
3.890	0.024323
3.895	0.024733
3.900	0.025096
3.905	0.025535
3.910	0.026044
3.915	0.026524
3.920	0.027080
3.925	0.027607
3.930	0.028195
3.935	0.028854
3.940	0.029497
3.945	0.030206
3.950	0.030987
3.955	0.031756
3.960	0.032597
3.965	0.033547
3.970	0.034591
3.975	0.035755
3.980	0.037082
3.985	0.038583
3.990	0.040301
3.995	0.042234
4.000	0.044420
4.005	0.046909
4.010	0.049589
4.015	0.052447
4.020	0.055383
4.025	0.058185
4.030	0.060761
4.035	0.062902
4.040	0.064553
4.045	0.065770
4.050	0.066263
4.055	0.065861
4.060	0.064462
4.065	0.062215
4.070	0.059066
4.075	0.054654
4.080	0.048713
4.085	0.041415
4.090	0.033305
4.095	0.024830
4.100	0.016748
4.105	0.009536
4.110	0.003834
4.115	-0.000369
4.120	-0.003167
4.125	-0.004914
4.130	-0.005983
4.135	-0.006714
4.140	-0.007136
4.145	-0.007432
4.150	-0.007668
4.155	-0.007923
4.160	-0.008096
4.165	-0.008192
4.170	-0.008336
4.175	-0.008433
4.180	-0.008549
4.185	-0.008614
4.190	-0.008656
4.195	-0.008663
4.200	-0.008692
4.205	-0.008749
4.210	-0.008770
4.215	-0.008860
4.220	-0.008928
4.225	-0.008961
4.230	-0.008981
4.235	-0.009016
4.240	-0.008967
4.245	-0.008918
4.250	-0.008905
4.255	-0.008803
4.260	-0.008773
4.265	-0.008770
4.270	-0.008825
4.275	-0.008880
4.280	-0.008942
4.285	-0.009012
4.290	-0.009040
4.295	-0.009108
4.300	-0.009219
4.305	-0.009323
4.310	-0.009399
4.315	-0.009482
4.320	-0.009465
4.325	-0.009497
4.330	-0.009501
4.335	-0.009507
4.340	-0.009431
4.345	-0.009452
4.350	-0.009522
4.355	-0.009551
4.360	-0.009571
4.365	-0.009585
4.370	-0.009607
4.375	-0.009633
4.380	-0.009702
4.385	-0.009758
4.390	-0.009841
4.395	-0.009874
4.400	-0.009898
4.405	-0.009906
4.410	-0.009871
4.415	-0.009836
4.420	-0.009864
4.425	-0.009969
4.430	-0.010032
4.435	-0.010102
4.440	-0.010171
4.445	-0.010171
4.450	-0.010240
4.455	-0.010325
4.460	-0.010407
4.465	-0.010461
4.470	-0.010557
4.475	-0.010558
4.480	-0.010587
4.485	-0.010574
4.490	-0.010547
4.495	-0.010614
4.500	-0.010684
4.505	-0.010745
4.510	-0.010801
4.515	-0.010822
4.520	-0.010815
4.525	-0.010851
4.530	-0.010891
4.535	-0.010971
4.540	-0.011089
4.545	-0.011206
4.550	-0.011235
4.555	-0.011292
4.560	-0.011314
4.565	-0.011351
4.570	-0.011372
4.575	-0.011353
4.580	-0.011368
4.585	-0.011378
4.590	-0.011421
4.595	-0.011384
4.600	-0.011409
4.605	-0.011435
4.610	-0.011513
4.615	-0.011590
4.620	-0.011666
4.625	-0.011753
4.630	-0.011824
4.635	-0.011852
4.640	-0.011887
4.645	-0.011944
4.650	-0.012080
4.655	-0.012157
4.660	-0.012329
4.665	-0.012423
4.670	-0.012486
4.675	-0.012525
4.680	-0.012672
4.685	-0.012741
4.690	-0.012795
4.695	-0.012857
4.700	-0.012822
4.705	-0.012884
4.710	-0.012844
4.715	-0.012893
4.720	-0.012918
4.725	-0.012998
4.730	-0.013008
4.735	-0.013050
4.740	-0.013094
4.745	-0.013141
4.750	-0.013196
4.755	-0.013296
4.760	-0.013415
4.765	-0.013546
4.770	-0.013705
4.775	-0.013776
4.780	-0.013820
4.785	-0.013901
4.790	-0.014050
4.795	-0.014192
4.800	-0.014258
4.805	-0.014289
4.810	-0.014356
4.815	-0.014361
4.820	-0.014401
4.825	-0.014483
4.830	-0.014524
4.835	-0.014670
4.840	-0.014865
4.845	-0.014967
4.850	-0.015083
4.855	-0.015195
4.860	-0.015262
4.865	-0.015278
4.870	-0.015307
4.875	-0.015269
4.880	-0.015275
4.885	-0.015277
4.890	-0.015354
4.895	-0.015440
4.900	-0.015614
4.905	-0.015740
4.910	-0.015885
4.915	-0.015982
4.920	-0.016075
4.925	-0.016141
4.930	-0.016269
4.935	-0.016383
4.940	-0.016510
4.945	-0.016632
4.950	-0.016724
4.955	-0.016874
4.960	-0.017009
4.965	-0.017139
4.970	-0.017316
4.975	-0.017474
4.980	-0.017620
4.985	-0.017797
4.990	-0.017957
4.995	-0.018120
5.000	-0.018286
5.005	-0.018420
5.010	-0.018576
5.015	-0.018734
5.020	-0.018877
5.025	-0.019027
5.030	-0.019153
5.035	-0.019280
5.040	-0.019525
5.045	-0.019686
5.050	-0.019834
5.055	-0.020034
5.060	-0.020296
5.065	-0.020584
5.070	-0.020826
5.075	-0.021092
5.080	-0.021272
5.085	-0.021433
5.090	-0.021551
5.095	-0.021709
5.100	-0.021812
5.105	-0.022000
5.110	-0.022235
5.115	-0.022459
5.120	-0.022757
5.125	-0.023015
5.130	-0.023296
5.135	-0.023584
5.140	-0.023841
5.145	-0.024130
5.150	-0.024414
5.155	-0.024769
5.160	-0.025066
5.165	-0.025455
5.170	-0.025863
5.175	-0.026306
5.180	-0.026743
5.185	-0.027136
5.190	-0.027576
5.195	-0.028006
5.200	-0.028536
5.205	-0.029065
5.210	-0.029624
5.215	-0.030247
5.220	-0.030839
5.225	-0.031449
5.230	-0.032028
5.235	-0.032683
5.240	-0.033346
5.245	-0.034009
5.250	-0.034706
5.255	-0.035478
5.260	-0.036401
5.265	-0.037357
5.270	-0.038380
5.275	-0.039486
5.280	-0.040700
5.285	-0.042115
5.290	-0.043757
5.295	-0.045560
5.300	-0.047653
5.305	-0.050048
5.310	-0.052551
5.315	-0.055251
5.320	-0.057795
5.325	-0.060144
5.330	-0.062308
5.335	-0.063568
5.340	-0.064652
5.345	-0.064991
5.350	-0.064323
5.355	-0.063393
5.360	-0.061490
5.365	-0.057850
5.370	-0.053127
5.375	-0.048179
5.380	-0.042449
5.385	-0.034630
5.390	-0.025159
5.395	-0.016040
5.400	-0.008897
5.405	-0.004168
5.410	-0.001314
5.415	0.000197
5.420	0.000914
5.425	0.001182
5.430	0.001306
5.435	0.001354
5.440	0.001368
5.445	0.001395
5.450	0.001403
5.455	0.001397
5.460	0.001376
5.465	0.001417
5.470	0.001341
5.475	0.001382
5.480	0.001334
5.485	0.001341
5.490	0.001347
5.495	0.001327
5.500	0.001327
5.505	0.001347
5.510	0.001326
5.515	0.001327
5.520	0.001300
5.525	0.001334
5.530	0.001305
5.535	0.001347
5.540	0.001333
5.545	0.001326
5.550	0.001305
5.555	0.001319
5.560	0.001319
5.565	0.001319
5.570	0.001312
5.575	0.001291
5.580	0.001291
5.585	0.001305
5.590	0.001264
5.595	0.001291
5.600	0.001311
5.605	0.001352
5.610	0.001325
5.615	0.001332
5.620	0.001387
5.625	0.001462
5.630	0.001545
5.635	0.001606
5.640	0.001675
5.645	0.001813
5.650	0.001959
5.655	0.002076
5.660	0.002233
5.665	0.002349
5.670	0.002507
5.675	0.002639
5.680	0.002736
5.685	0.002832
5.690	0.002881
5.695	0.002901
5.700	0.002935
5.705	0.002893
5.710	0.002846
5.715	0.002757
5.720	0.002655
5.725	0.002537
5.730	0.002460
5.735	0.002315
5.740	0.002163
5.745	0.002094
5.750	0.002005
5.755	0.001874
5.760	0.001812
5.765	0.001702
5.770	0.001654
5.775	0.001613
5.780	0.001592
5.785	0.001587
5.790	0.001586
5.795	0.001558
5.800	0.001544
5.805	0.001544
5.810	0.001509
5.815	0.001509
5.820	0.001517
5.825	0.001551
5.830	0.001509
5.835	0.001509
5.840	0.001537
5.845	0.001516
5.850	0.001503
5.855	0.001510
5.860	0.001565
5.865	0.001557
5.870	0.001550
5.875	0.001563
5.880	0.001550
5.885	0.001577
5.890	0.001543
5.895	0.001570
5.900	0.001577
5.905	0.001577
5.910	0.001577
5.915	0.001605
5.920	0.001606
5.925	0.001613
5.930	0.001640
5.935	0.001660
5.940	0.001661
5.945	0.001647
5.950	0.001668
5.955	0.001661
5.960	0.001668
5.965	0.001681
5.970	0.001688
5.975	0.001695
5.980	0.001702
5.985	0.001683
5.990	0.001696
5.995	0.001716
6.000	0.001730
6.005	0.001709
6.010	0.001723
6.015	0.001744
6.020	0.001750
6.025	0.001743
6.030	0.001730
6.035	0.001743
6.040	0.001771
6.045	0.001722
6.050	0.001765
6.055	0.001730
6.060	0.001744
6.065	0.001771
6.070	0.001771
6.075	0.001771
6.080	0.001779
6.085	0.001785
6.090	0.001793
6.095	0.001806
6.100	0.001799
6.105	0.001778
6.110	0.001799
6.115	0.001813
6.120	0.001814
6.125	0.001800
6.130	0.001841
6.135	0.001820
6.140	0.001827
6.145	0.001827
6.150	0.001840
6.155	0.001820
6.160	0.001847
6.165	0.001841
6.170	0.001820
6.175	0.001827
6.180	0.001861
6.185	0.001849
6.190	0.001863
6.195	0.001834
6.200	0.001875
6.205	0.001868
6.210	0.001848
6.215	0.001842
6.220	0.001848
6.225	0.001848
6.230	0.001862
6.235	0.001855
6.240	0.001834
6.245	0.001882
6.250	0.001862
6.255	0.001849
6.260	0.001863
6.265	0.001862
6.270	0.001875
6.275	0.001847
6.280	0.001875
6.285	0.001881
6.290	0.001889
6.295	0.001875
6.300	0.001889
6.305	0.001888
6.310	0.001861
6.315	0.001903
6.320	0.001890
6.325	0.001889
6.330	0.001902
6.335	0.001943
6.340	0.001923
6.345	0.001909
6.350	0.001916
6.355	0.001915
6.360	0.001922
6.365	0.001922
6.370	0.001922
6.375	0.001963
6.380	0.001922
6.385	0.001957
6.390	0.001937
6.395	0.001936
6.400	0.001936
6.405	0.001930
6.410	0.001923
6.415	0.001951
6.420	0.001958
6.425	0.001951
6.430	0.001951
6.435	0.001951
6.440	0.001958
6.445	0.001945
6.450	0.001967
6.455	0.001987
6.460	0.001987
6.465	0.002006
6.470	0.001999
6.475	0.002047
6.480	0.002005
6.485	0.001998
6.490	0.001976
6.495	0.002024
6.500	0.002023
6.505	0.001981
6.510	0.002022
6.515	0.002043
6.520	0.002016
6.525	0.002043
6.530	0.002028
6.535	0.002062
6.540	0.002068
6.545	0.002047
6.550	0.002068
6.555	0.002068
6.560	0.002095
6.565	0.002095
6.570	0.002067
6.575	0.002109
6.580	0.002061
6.585	0.002110
6.590	0.002116
6.595	0.002129
6.600	0.002080
6.605	0.002150
6.610	0.002143
6.615	0.002143
6.620	0.002143
6.625	0.002150
6.630	0.002136
6.635	0.002143
6.640	0.002156
6.645	0.002177
6.650	0.002158
6.655	0.002145
6.660	0.002137
6.665	0.002157
6.670	0.002164
6.675	0.002157
6.680	0.002164
6.685	0.002156
6.690	0.002170
6.695	0.002177
6.700	0.002205
6.705	0.002184
6.710	0.002225
6.715	0.002184
6.720	0.002199
6.725	0.002204
6.730	0.002224
6.735	0.002238
6.740	0.002238
6.745	0.002265
6.750	0.002252
6.755	0.002264
6.760	0.002264
6.765	0.002292
6.770	0.002271
6.775	0.002277
6.780	0.002305
6.785	0.002293
6.790	0.002299
6.795	0.002326
6.800	0.002325
6.805	0.002297
6.810	0.002325
6.815	0.002297
6.820	0.002325
6.825	0.002311
6.830	0.002290
6.835	0.002256
6.840	0.002276
6.845	0.002290
6.850	0.002292
6.855	0.002237
6.860	0.002256
6.865	0.002263
6.870	0.002290
6.875	0.002263
6.880	0.002291
6.885	0.002290
6.890	0.002284
6.895	0.002242
6.900	0.002277
6.905	0.002270
6.910	0.002270
6.915	0.002298
6.920	0.002272
6.925	0.002327
6.930	0.002305
6.935	0.002291
6.940	0.002318
6.945	0.002290
6.950	0.002339
6.955	0.002311
6.960	0.002305
6.965	0.002297
6.970	0.002345
6.975	0.002358
6.980	0.002359
6.985	0.002312
6.990	0.002346
6.995	0.002386
7.000	0.002379
7.005	0.002373
7.010	0.002408
7.015	0.002366
7.020	0.002380
7.025	0.002359
7.030	0.002374
7.035	0.002408
7.040	0.002374
7.045	0.002381
7.050	0.002410
7.055	0.002410
7.060	0.002437
7.065	0.002429
7.070	0.002437
7.075	0.002471
7.080	0.002464
7.085	0.002464
7.090	0.002436
7.095	0.002464
7.100	0.002464
7.105	0.002484
7.110	0.002492
7.115	0.002492
7.120	0.002487
7.125	0.002492
7.130	0.002512
7.135	0.002499
7.140	0.002520
7.145	0.002554
7.150	0.002527
7.155	0.002534
7.160	0.002513
7.165	0.002541
7.170	0.002541
7.175	0.002527
7.180	0.002521
7.185	0.002550
7.190	0.002550
7.195	0.002548
7.200	0.002528
7.205	0.002576
7.210	0.002549
7.215	0.002562
7.220	0.002535
7.225	0.002555
7.230	0.002562
7.235	0.002556
7.240	0.002555
7.245	0.002556
7.250	0.002599
7.255	0.002585
7.260	0.002612
7.265	0.002625
7.270	0.002604
7.275	0.002598
7.280	0.002626
7.285	0.002645
7.290	0.002604
7.295	0.002653
7.300	0.002673
7.305	0.002693
7.310	0.002694
7.315	0.002619
7.320	0.002682
7.325	0.002702
7.330	0.002694
7.335	0.002708
7.340	0.002735
7.345	0.002680
7.350	0.002721
7.355	0.002714
7.360	0.002701
7.365	0.002728
7.370	0.002728
7.375	0.002715
7.380	0.002722
7.385	0.002751
7.390	0.002744
7.395	0.002749
7.400	0.002756
7.405	0.002763
7.410	0.002784
7.415	0.002777
7.420	0.002812
7.425	0.002791
7.430	0.002825
7.435	0.002825
7.440	0.002839
7.445	0.002867
7.450	0.002888
7.455	0.002881
7.460	0.002902
7.465	0.002942
7.470	0.002962
7.475	0.002990
7.480	0.002969
7.485	0.003003
7.490	0.002996
7.495	0.002982
7.500	0.003009
7.505	0.002996
7.510	0.003023
7.515	0.003011
7.520	0.003018
7.525	0.002996
7.530	0.003009
7.535	0.003023
7.540	0.003016
7.545	0.003023
7.550	0.003009
7.555	0.003002
7.560	0.003023
7.565	0.003044
7.570	0.003037
7.575	0.003043
7.580	0.003057
7.585	0.003065
7.590	0.003031
7.595	0.003077
7.600	0.003084
7.605	0.003111
7.610	0.003125
7.615	0.003118
7.620	0.003111
7.625	0.003145
7.630	0.003145
7.635	0.003152
7.640	0.003159
7.645	0.003152
7.650	0.003181
7.655	0.003208
7.660	0.003180
7.665	0.003207
7.670	0.003215
7.675	0.003201
7.680	0.003235
7.685	0.003215
7.690	0.003235
7.695	0.003234
7.700	0.003248
7.705	0.003276
7.710	0.003283
7.715	0.003256
7.720	0.003298
7.725	0.003311
7.730	0.003323
7.735	0.003364
7.740	0.003337
7.745	0.003337
7.750	0.003345
7.755	0.003344
7.760	0.003344
7.765	0.003378
7.770	0.003385
7.775	0.003413
7.780	0.003387
7.785	0.003422
7.790	0.003428
7.795	0.003454
7.800	0.003448
7.805	0.003455
7.810	0.003469
7.815	0.003469
7.820	0.003483
7.825	0.003482
7.830	0.003510
7.835	0.003489
7.840	0.003538
7.845	0.003510
7.850	0.003547
7.855	0.003539
7.860	0.003539
7.865	0.003579
7.870	0.003586
7.875	0.003606
7.880	0.003607
7.885	0.003606
7.890	0.003621
7.895	0.003600
7.900	0.003634
7.905	0.003620
7.910	0.003627
7.915	0.003663
7.920	0.003691
7.925	0.003682
7.930	0.003695
7.935	0.003688
7.940	0.003722
7.945	0.003736
7.950	0.003722
7.955	0.003771
7.960	0.003757
7.965	0.003756
7.970	0.003763
7.975	0.003763
7.980	0.003785
7.985	0.003779
7.990	0.003861
7.995	0.003845
8.000	0.003866
8.005	0.003859
8.010	0.003893
8.015	0.003852
8.020	0.003872
8.025	0.003912
8.030	0.003927
8.035	0.003920
8.040	0.003928
8.045	0.003921
8.050	0.003951
8.055	0.003950
8.060	0.003976
8.065	0.004030
8.070	0.004017
8.075	0.004044
8.080	0.004024
8.085	0.004023
8.090	0.004031
8.095	0.004078
8.100	0.004099
8.105	0.004120
8.110	0.004106
8.115	0.004094
8.120	0.004149
8.125	0.004142
8.130	0.004154
8.135	0.004195
8.140	0.004167
8.145	0.004215
8.150	0.004222
8.155	0.004256
8.160	0.004256
8.165	0.004242
8.170	0.004304
8.175	0.004339
8.180	0.004300
8.185	0.004323
8.190	0.004346
8.195	0.004347
8.200	0.004394
8.205	0.004371
8.210	0.004444
8.215	0.004447
8.220	0.004484
8.225	0.004509
8.230	0.004511
8.235	0.004483
8.240	0.004525
8.245	0.004515
8.250	0.004544
8.255	0.004570
8.260	0.004582
8.265	0.004595
8.270	0.004663
8.275	0.004636
8.280	0.004678
8.285	0.004678
8.290	0.004698
8.295	0.004726
8.300	0.004719
8.305	0.004747
8.310	0.004761
8.315	0.004792
8.320	0.004792
8.325	0.004803
8.330	0.004822
8.335	0.004870
8.340	0.004878
8.345	0.004912
8.350	0.004899
8.355	0.004969
8.360	0.004956
8.365	0.004977
8.370	0.004984
8.375	0.005017
8.380	0.005060
8.385	0.005047
8.390	0.005108
8.395	0.005106
8.400	0.005153
8.405	0.005160
8.410	0.005195
8.415	0.005188
8.420	0.005222
8.425	0.005263
8.430	0.005244
8.435	0.005291
8.440	0.005285
8.445	0.005327
8.450	0.005351
8.455	0.005352
8.460	0.005372
8.465	0.005420
8.470	0.005446
8.475	0.005430
8.480	0.005458
8.485	0.005478
8.490	0.005526
8.495	0.005512
8.500	0.005533
8.505	0.005553
8.510	0.005560
8.515	0.005617
8.520	0.005668
8.525	0.005665
8.530	0.005684
8.535	0.005711
8.540	0.005719
8.545	0.005760
8.550	0.005794
8.555	0.005808
8.560	0.005843
8.565	0.005877
8.570	0.005878
8.575	0.005899
8.580	0.005915
8.585	0.005978
8.590	0.005977
8.595	0.006009
8.600	0.006044
8.605	0.006093
8.610	0.006088
8.615	0.006135
8.620	0.006171
8.625	0.006171
8.630	0.006220
8.635	0.006267
8.640	0.006261
8.645	0.006323
8.650	0.006409
8.655	0.006388
8.660	0.006400
8.665	0.006489
8.670	0.006496
8.675	0.006544
8.680	0.006538
8.685	0.006593
8.690	0.006629
8.695	0.006651
8.700	0.006692
8.705	0.006733
8.710	0.006736
8.715	0.006775
8.720	0.006872
8.725	0.006855
8.730	0.006910
8.735	0.006957
8.740	0.006971
8.745	0.007010
8.750	0.007030
8.755	0.007107
8.760	0.007128
8.765	0.007176
8.770	0.007225
8.775	0.007280
8.780	0.007290
8.785	0.007342
8.790	0.007404
8.795	0.007442
8.800	0.007444
8.805	0.007505
8.810	0.007543
8.815	0.007598
8.820	0.007619
8.825	0.007667
8.830	0.007703
8.835	0.007787
8.840	0.007810
8.845	0.007843
8.850	0.007913
8.855	0.007962
8.860	0.008004
8.865	0.007951
8.870	0.007926
8.875	0.008134
8.880	0.008242
8.885	0.008288
8.890	0.008351
8.895	0.008406
8.900	0.008474
8.905	0.008508
8.910	0.008578
8.915	0.008666
8.920	0.008714
8.925	0.008766
8.930	0.008833
8.935	0.008916
8.940	0.008965
8.945	0.009049
8.950	0.009116
8.955	0.009172
8.960	0.009234
8.965	0.009336
8.970	0.009418
8.975	0.009472
8.980	0.009539
8.985	0.009609
8.990	0.009698
8.995	0.009820
9.000	0.009870
9.005	0.009959
9.010	0.010050
9.015	0.010120
9.020	0.010210
9.025	0.010306
9.030	0.010395
9.035	0.010493
9.040	0.010561
9.045	0.010699
9.050	0.010787
9.055	0.010854
9.060	0.010984
9.065	0.011107
9.070	0.011210
9.075	0.011308
9.080	0.011419
9.085	0.011543
9.090	0.011660
9.095	0.011769
9.100	0.011883
9.105	0.012021
9.110	0.012156
9.115	0.012311
9.120	0.012376
9.125	0.012503
9.130	0.012638
9.135	0.012825
9.140	0.012978
9.145	0.013133
9.150	0.013278
9.155	0.013448
9.160	0.013628
9.165	0.013817
9.170	0.014000
9.175	0.014216
9.180	0.014442
9.185	0.014637
9.190	0.014835
9.195	0.015084
9.200	0.015319
9.205	0.015566
9.210	0.015841
9.215	0.016116
9.220	0.016330
9.225	0.016630
9.230	0.016896
9.235	0.017214
9.240	0.017532
9.245	0.017842
9.250	0.018204
9.255	0.018554
9.260	0.018907
9.265	0.019293
9.270	0.019698
9.275	0.020156
9.280	0.020568
9.285	0.021046
9.290	0.021570
9.295	0.022101
9.300	0.022713
9.305	0.023317
9.310	0.023964
9.315	0.024716
9.320	0.025449
9.325	0.026300
9.330	0.027304
9.335	0.028443
9.340	0.029907
9.345	0.031576
9.350	0.033608
9.355	0.035900
9.360	0.038233
9.365	0.040115
9.370	0.041794
9.375	0.043796
9.380	0.045823
9.385	0.047508
9.390	0.048443
9.395	0.048505
9.400	0.047473
9.405	0.045627
9.410	0.043201
9.415	0.040005
9.420	0.035583
9.425	0.029730
9.430	0.022850
9.435	0.015729
9.440	0.009525
9.445	0.004961
9.450	0.001904
9.455	0.000079
9.460	-0.000896
9.465	-0.001365
9.470	-0.001600
9.475	-0.001717
9.480	-0.001779
9.485	-0.001855
9.490	-0.001876
9.495	-0.001897
9.500	-0.001897
9.505	-0.001924
9.510	-0.001869
9.515	-0.001938
9.520	-0.001918
9.525	-0.001952
9.530	-0.001952
9.535	-0.001938
9.540	-0.001932
9.545	-0.001945
9.550	-0.001952
9.555	-0.001973
9.560	-0.001966
9.565	-0.001973
9.570	-0.001973
9.575	-0.001966
9.580	-0.001987
9.585	-0.001973
9.590	-0.001980
9.595	-0.001959
9.600	-0.001980
9.605	-0.001994
9.610	-0.002021
9.615	-0.001980
9.620	-0.001987
9.625	-0.001994
9.630	-0.001987
9.635	-0.002001
9.640	-0.002015
9.645	-0.001994
9.650	-0.002001
9.655	-0.002008
9.660	-0.001994
9.665	-0.002028
9.670	-0.002001
9.675	-0.002001
9.680	-0.001987
9.685	-0.002008
9.690	-0.001987
9.695	-0.002008
9.700	-0.002008
9.705	-0.002042
9.710	-0.002035
9.715	-0.002050
9.720	-0.002022
9.725	-0.002042
9.730	-0.002001
9.735	-0.002022
9.740	-0.002015
9.745	-0.002029
9.750	-0.002036
9.755	-0.002063
9.760	-0.002036
9.765	-0.002036
9.770	-0.002036
9.775	-0.002050
9.780	-0.002050
9.785	-0.002022
9.790	-0.002077
9.795	-0.002043
9.800	-0.002029
9.805	-0.002050
9.810	-0.002050
9.815	-0.002050
9.820	-0.002050
9.825	-0.002071
9.830	-0.002057
9.835	-0.002071
9.840	-0.002057
9.845	-0.002071
9.850	-0.002050
9.855	-0.002044
9.860	-0.002037
9.865	-0.002085
9.870	-0.002050
9.875	-0.002050
9.880	-0.002050
9.885	-0.002078
9.890	-0.002058
9.895	-0.002092
9.900	-0.002113
9.905	-0.002071
9.910	-0.002085
9.915	-0.002065
9.920	-0.002086
9.925	-0.002051
9.930	-0.002092
9.935	-0.002065
9.940	-0.002058
9.945	-0.002065
9.950	-0.002086
9.955	-0.002100
9.960	-0.002065
9.965	-0.002120
9.970	-0.002100
9.975	-0.002086
9.980	-0.002072
9.985	-0.002135
9.990	-0.002086
9.995	-0.002100
10.000	-0.002093
10.005	-0.002093
10.010	-0.002100
10.015	-0.002114
10.020	-0.002107
10.025	-0.002114
10.030	-0.002086
10.035	-0.002079
10.040	-0.002086
10.045	-0.002107
10.050	-0.002121
10.055	-0.002107
10.060	-0.002114
10.065	-0.002100
10.070	-0.002101
10.075	-0.002107
10.080	-0.002121
10.085	-0.002094
10.090	-0.002094
10.095	-0.002108
10.100	-0.002122
10.105	-0.002142
10.110	-0.002101
10.115	-0.002101
10.120	-0.002122
10.125	-0.002156
10.130	-0.002108
10.135	-0.002129
10.140	-0.002108
10.145	-0.002129
10.150	-0.002129
10.155	-0.002163
10.160	-0.002136
10.165	-0.002149
10.170	-0.002163
10.175	-0.002170
10.180	-0.002150
10.185	-0.002115
10.190	-0.002143
10.195	-0.002177
10.200	-0.002150
10.205	-0.002136
10.210	-0.002122
10.215	-0.002157
10.220	-0.002143
10.225	-0.002157
10.230	-0.002136
10.235	-0.002157
10.240	-0.002184
10.245	-0.002164
10.250	-0.002157
10.255	-0.002178
10.260	-0.002150
10.265	-0.002191
10.270	-0.002170
10.275	-0.002191
10.280	-0.002191
10.285	-0.002205
10.290	-0.002184
10.295	-0.002191
10.300	-0.002212
10.305	-0.002198
10.310	-0.002184
10.315	-0.002198
10.320	-0.002226
10.325	-0.002205
10.330	-0.002212
10.335	-0.002212
10.340	-0.002219
10.345	-0.002170
10.350	-0.002205
10.355	-0.002219
10.360	-0.002226
10.365	-0.002219
10.370	-0.002240
10.375	-0.002219
10.380	-0.002205
10.385	-0.002233
10.390	-0.002253
10.395	-0.002260
10.400	-0.002246
10.405	-0.002205
10.410	-0.002233
10.415	-0.002253
10.420	-0.002233
10.425	-0.002233
10.430	-0.002226
10.435	-0.002246
10.440	-0.002267
10.445	-0.002254
10.450	-0.002240
10.455	-0.002267
10.460	-0.002247
10.465	-0.002246
10.470	-0.002281
10.475	-0.002246
10.480	-0.002247
10.485	-0.002288
10.490	-0.002281
10.495	-0.002267
10.500	-0.002288
10.505	-0.002288
10.510	-0.002288
10.515	-0.002274
10.520	-0.002233
10.525	-0.002267
10.530	-0.002281
10.535	-0.002267
10.540	-0.002281
10.545	-0.002260
10.550	-0.002295
10.555	-0.002281
10.560	-0.002288
10.565	-0.002288
10.570	-0.002308
10.575	-0.002302
10.580	-0.002316
10.585	-0.002316
10.590	-0.002309
10.595	-0.002309
10.600	-0.002322
10.605	-0.002329
10.610	-0.002288
10.615	-0.002316
10.620	-0.002309
10.625	-0.002302
10.630	-0.002337
10.635	-0.002309
10.640	-0.002337
10.645	-0.002344
10.650	-0.002323
10.655	-0.002309
10.660	-0.002323
10.665	-0.002316
10.670	-0.002330
10.675	-0.002323
10.680	-0.002385
10.685	-0.002358
10.690	-0.002357
10.695	-0.002344
10.700	-0.002351
10.705	-0.002351
10.710	-0.002351
10.715	-0.002365
10.720	-0.002372
10.725	-0.002365
10.730	-0.002344
10.735	-0.002344
10.740	-0.002358
10.745	-0.002365
10.750	-0.002351
10.755	-0.002337
10.760	-0.002365
10.765	-0.002393
10.770	-0.002379
10.775	-0.002386
10.780	-0.002379
10.785	-0.002373
10.790	-0.002366
10.795	-0.002358
10.800	-0.002379
10.805	-0.002386
10.810	-0.002414
10.815	-0.002386
10.820	-0.002365
10.825	-0.002379
10.830	-0.002379
10.835	-0.002372
10.840	-0.002400
10.845	-0.002414
10.850	-0.002393
10.855	-0.002379
10.860	-0.002400
10.865	-0.002393
10.870	-0.002414
10.875	-0.002414
10.880	-0.002400
10.885	-0.002427
10.890	-0.002421
10.895	-0.002427
10.900	-0.002434
10.905	-0.002427
10.910	-0.002414
10.915	-0.002407
10.920	-0.002400
10.925	-0.002421
10.930	-0.002407
10.935	-0.002414
10.940	-0.002428
10.945	-0.002442
10.950	-0.002407
10.955	-0.002435
10.960	-0.002421
10.965	-0.002449
10.970	-0.002442
10.975	-0.002456
10.980	-0.002449
10.985	-0.002449
10.990	-0.002435
10.995	-0.002435
11.000	-0.002435
11.005	-0.002456
11.010	-0.002428
11.015	-0.002442
11.020	-0.002442
11.025	-0.002456
11.030	-0.002449
11.035	-0.002463
11.040	-0.002463
11.045	-0.002456
11.050	-0.002443
11.055	-0.002470
11.060	-0.002449
11.065	-0.002463
11.070	-0.002436
11.075	-0.002449
11.080	-0.002463
11.085	-0.002463
11.090	-0.002456
11.095	-0.002484
11.100	-0.002470
11.105	-0.002470
11.110	-0.002519
11.115	-0.002492
11.120	-0.002457
11.125	-0.002471
11.130	-0.002478
11.135	-0.002499
11.140	-0.002464
11.145	-0.002485
11.150	-0.002485
11.155	-0.002485
11.160	-0.002499
11.165	-0.002506
11.170	-0.002485
11.175	-0.002492
11.180	-0.002506
11.185	-0.002485
11.190	-0.002513
11.195	-0.002520
11.200	-0.002499
11.205	-0.002492
11.210	-0.002499
11.215	-0.002499
11.220	-0.002485
11.225	-0.002513
11.230	-0.002520
11.235	-0.002506
11.240	-0.002520
11.245	-0.002500
11.250	-0.002528
11.255	-0.002527
11.260	-0.002534
11.265	-0.002534
11.270	-0.002500
11.275	-0.002514
11.280	-0.002514
11.285	-0.002541
11.290	-0.002534
11.295	-0.002541
11.300	-0.002541
11.305	-0.002520
11.310	-0.002528
11.315	-0.002535
11.320	-0.002542
11.325	-0.002521
11.330	-0.002562
11.335	-0.002534
11.340	-0.002541
11.345	-0.002528
11.350	-0.002521
11.355	-0.002548
11.360	-0.002562
11.365	-0.002576
11.370	-0.002528
11.375	-0.002541
11.380	-0.002556
11.385	-0.002556
11.390	-0.002562
11.395	-0.002555
11.400	-0.002562
11.405	-0.002562
11.410	-0.002542
11.415	-0.002562
11.420	-0.002555
11.425	-0.002583
11.430	-0.002569
11.435	-0.002590
11.440	-0.002590
11.445	-0.002549
11.450	-0.002577
11.455	-0.002597
11.460	-0.002583
11.465	-0.002583
11.470	-0.002562
11.475	-0.002611
11.480	-0.002583
11.485	-0.002562
11.490	-0.002597
11.495	-0.002611
11.500	-0.002583
11.505	-0.002611
11.510	-0.002549
11.515	-0.002590
11.520	-0.002590
11.525	-0.002590
11.530	-0.002590
11.535	-0.002576
11.540	-0.002590
11.545	-0.002584
11.550	-0.002632
11.555	-0.002590
11.560	-0.002618
11.565	-0.002618
11.570	-0.002632
11.575	-0.002597
11.580	-0.002632
11.585	-0.002612
11.590	-0.002618
11.595	-0.002611
11.600	-0.002632
11.605	-0.002618
11.610	-0.002611
11.615	-0.002611
11.620	-0.002618
11.625	-0.002625
11.630	-0.002639
11.635	-0.002639
11.640	-0.002618
11.645	-0.002605
11.650	-0.002639
11.655	-0.002632
11.660	-0.002611
11.665	-0.002639
11.670	-0.002632
11.675	-0.002639
11.680	-0.002625
11.685	-0.002632
11.690	-0.002660
11.695	-0.002660
11.700	-0.002632
11.705	-0.002653
11.710	-0.002654
11.715	-0.002647
11.720	-0.002647
11.725	-0.002660
11.730	-0.002674
11.735	-0.002619
11.740	-0.002695
11.745	-0.002681
11.750	-0.002667
11.755	-0.002667
11.760	-0.002660
11.765	-0.002660
11.770	-0.002702
11.775	-0.002674
11.780	-0.002668
11.785	-0.002682
11.790	-0.002682
11.795	-0.002668
11.800	-0.002695
11.805	-0.002647
11.810	-0.002675
11.815	-0.002654
11.820	-0.002675
11.825	-0.002695
11.830	-0.002682
11.835	-0.002695
11.840	-0.002668
11.845	-0.002703
11.850	-0.002696
11.855	-0.002696
11.860	-0.002716
11.865	-0.002709
11.870	-0.002661
11.875	-0.002723
11.880	-0.002723
11.885	-0.002709
11.890	-0.002696
11.895	-0.002730
11.900	-0.002730
11.905	-0.002703
11.910	-0.002696
11.915	-0.002724
11.920	-0.002710
11.925	-0.002710
11.930	-0.002744
11.935	-0.002689
11.940	-0.002731
11.945	-0.002710
11.950	-0.002710
11.955	-0.002744
11.960	-0.002731
11.965	-0.002724
11.970	-0.002717
11.975	-0.002745
11.980	-0.002745
11.985	-0.002732
11.990	-0.002717
11.995	-0.002710
12.000	-0.002738
12.005	-0.002724
12.010	-0.002731
12.015	-0.002793
12.020	-0.002738
12.025	-0.002752
12.030	-0.002786
12.035	-0.002752
12.040	-0.002717
12.045	-0.002745
12.050	-0.002732
12.055	-0.002738
12.060	-0.002759
12.065	-0.002793
12.070	-0.002773
12.075	-0.002766
12.080	-0.002773
12.085	-0.002731
12.090	-0.002738
12.095	-0.002773
12.100	-0.002752
12.105	-0.002773
12.110	-0.002787
12.115	-0.002759
12.120	-0.002801
12.125	-0.002807
12.130	-0.002738
12.135	-0.002766
12.140	-0.002752
12.145	-0.002780
12.150	-0.002842
12.155	-0.002807
12.160	-0.002780
12.165	-0.002787
12.170	-0.002828
12.175	-0.002807
12.180	-0.002767
12.185	-0.002815
12.190	-0.002821
12.195	-0.002814
12.200	-0.002787
12.205	-0.002807
12.210	-0.002801
12.215	-0.002794
12.220	-0.002828
12.225	-0.002856
12.230	-0.002794
12.235	-0.002814
12.240	-0.002828
12.245	-0.002836
12.250	-0.002842
12.255	-0.002815
12.260	-0.002821
12.265	-0.002828
12.270	-0.002807
12.275	-0.002814
12.280	-0.002828
12.285	-0.002841
12.290	-0.002835
12.295	-0.002835
12.300	-0.002849
12.305	-0.002855
12.310	-0.002876
12.315	-0.002856
12.320	-0.002863
12.325	-0.002883
12.330	-0.002821
12.335	-0.002834
12.340	-0.002869
12.345	-0.002848
12.350	-0.002848
12.355	-0.002876
12.360	-0.002883
12.365	-0.002855
12.370	-0.002862
12.375	-0.002876
12.380	-0.002870
12.385	-0.002904
12.390	-0.002890
12.395	-0.002896
12.400	-0.002862
12.405	-0.002910
12.410	-0.002882
12.415	-0.002889
12.420	-0.002924
12.425	-0.002896
12.430	-0.002889
12.435	-0.002917
12.440	-0.002889
12.445	-0.002897
12.450	-0.002862
12.455	-0.002882
12.460	-0.002903
12.465	-0.002910
12.470	-0.002903
12.475	-0.002917
12.480	-0.002924
12.485	-0.002916
12.490	-0.002910
12.495	-0.002923
12.500	-0.002917
12.505	-0.002930
12.510	-0.002931
12.515	-0.002917
12.520	-0.002944
12.525	-0.002909
12.530	-0.002937
12.535	-0.002923
12.540	-0.002951
12.545	-0.002902
12.550	-0.002930
12.555	-0.002944
12.560	-0.002958
12.565	-0.002930
12.570	-0.002964
12.575	-0.002964
12.580	-0.002944
12.585	-0.002930
12.590	-0.002937
12.595	-0.002930
12.600	-0.002978
12.605	-0.002950
12.610	-0.002944
12.615	-0.002958
12.620	-0.002958
12.625	-0.002944
12.630	-0.002971
12.635	-0.002951
12.640	-0.002978
12.645	-0.002985
12.650	-0.002979
12.655	-0.002985
12.660	-0.002978
12.665	-0.002950
12.670	-0.002978
12.675	-0.002943
12.680	-0.002978
12.685	-0.002999
12.690	-0.003012
12.695	-0.003012
12.700	-0.003005
12.705	-0.002992
12.710	-0.002992
12.715	-0.003020
12.720	-0.002978
12.725	-0.003012
12.730	-0.003005
12.735	-0.003019
12.740	-0.003026
12.745	-0.003005
12.750	-0.003040
12.755	-0.003033
12.760	-0.002999
12.765	-0.003047
12.770	-0.003033
12.775	-0.003054
12.780	-0.003020
12.785	-0.003054
12.790	-0.003026
12.795	-0.003047
12.800	-0.003047
12.805	-0.003053
12.810	-0.003053
12.815	-0.003046
12.820	-0.003040
12.825	-0.003046
12.830	-0.003060
12.835	-0.003074
12.840	-0.003053
12.845	-0.003061
12.850	-0.003047
12.855	-0.003046
12.860	-0.003102
12.865	-0.003053
12.870	-0.003095
12.875	-0.003067
12.880	-0.003060
12.885	-0.003074
12.890	-0.003109
12.895	-0.003074
12.900	-0.003081
12.905	-0.003109
12.910	-0.003088
12.915	-0.003047
12.920	-0.003096
12.925	-0.003109
12.930	-0.003060
12.935	-0.003074
12.940	-0.003109
12.945	-0.003102
12.950	-0.003115
12.955	-0.003101
12.960	-0.003122
12.965	-0.003129
12.970	-0.003129
12.975	-0.003115
12.980	-0.003130
12.985	-0.003102
12.990	-0.003102
12.995	-0.003102
13.000	-0.003129
13.005	-0.003095
13.010	-0.003136
13.015	-0.003116
13.020	-0.003122
13.025	-0.003122
13.030	-0.003157
13.035	-0.003136
13.040	-0.003170
13.045	-0.003150
13.050	-0.003123
13.055	-0.003150
13.060	-0.003129
13.065	-0.003122
13.070	-0.003164
13.075	-0.003129
13.080	-0.003171
13.085	-0.003150
13.090	-0.003157
13.095	-0.003129
13.100	-0.003178
13.105	-0.003171
13.110	-0.003164
13.115	-0.003151
13.120	-0.003150
13.125	-0.003150
13.130	-0.003157
13.135	-0.003157
13.140	-0.003150
13.145	-0.003185
13.150	-0.003151
13.155	-0.003178
13.160	-0.003171
13.165	-0.003192
13.170	-0.003164
13.175	-0.003192
13.180	-0.003144
13.185	-0.003206
13.190	-0.003192
13.195	-0.003178
13.200	-0.003192
13.205	-0.003185
13.210	-0.003172
13.215	-0.003199
13.220	-0.003220
13.225	-0.003186
13.230	-0.003227
13.235	-0.003220
13.240	-0.003227
13.245	-0.003235
13.250	-0.003201
13.255	-0.003214
13.260	-0.003207
13.265	-0.003221
13.270	-0.003214
13.275	-0.003228
13.280	-0.003207
13.285	-0.003221
13.290	-0.003228
13.295	-0.003228
13.300	-0.003242
13.305	-0.003228
13.310	-0.003222
13.315	-0.003222
13.320	-0.003250
13.325	-0.003235
13.330	-0.003242
13.335	-0.003201
13.340	-0.003242
13.345	-0.003249
13.350	-0.003250
13.355	-0.003249
13.360	-0.003243
13.365	-0.003243
13.370	-0.003250
13.375	-0.003257
13.380	-0.003292
13.385	-0.003257
13.390	-0.003284
13.395	-0.003229
13.400	-0.003243
13.405	-0.003264
13.410	-0.003271
13.415	-0.003264
13.420	-0.003285
13.425	-0.003271
13.430	-0.003299
13.435	-0.003306
13.440	-0.003278
13.445	-0.003279
13.450	-0.003286
13.455	-0.003285
13.460	-0.003271
13.465	-0.003292
13.470	-0.003292
13.475	-0.003313
13.480	-0.003278
13.485	-0.003320
13.490	-0.003320
13.495	-0.003292
13.500	-0.003327
13.505	-0.003292
13.510	-0.003320
13.515	-0.003314
13.520	-0.003327
13.525	-0.003306
13.530	-0.003341
13.535	-0.003348
13.540	-0.003327
13.545	-0.003334
13.550	-0.003320
13.555	-0.003341
13.560	-0.003362
13.565	-0.003369
13.570	-0.003327
13.575	-0.003341
13.580	-0.003349
13.585	-0.003349
13.590	-0.003355
13.595	-0.003369
13.600	-0.003348
13.605	-0.003341
13.610	-0.003355
13.615	-0.003334
13.620	-0.003355
13.625	-0.003341
13.630	-0.003375
13.635	-0.003403
13.640	-0.003355
13.645	-0.003369
13.650	-0.003383
13.655	-0.003382
13.660	-0.003375
13.665	-0.003369
13.670	-0.003376
13.675	-0.003389
13.680	-0.003334
13.685	-0.003383
13.690	-0.003396
13.695	-0.003389
13.700	-0.003403
13.705	-0.003389
13.710	-0.003390
13.715	-0.003431
13.720	-0.003417
13.725	-0.003410
13.730	-0.003389
13.735	-0.003403
13.740	-0.003382
13.745	-0.003451
13.750	-0.003417
13.755	-0.003437
13.760	-0.003423
13.765	-0.003416
13.770	-0.003430
13.775	-0.003424
13.780	-0.003431
13.785	-0.003444
13.790	-0.003423
13.795	-0.003444
13.800	-0.003423
13.805	-0.003451
13.810	-0.003451
13.815	-0.003451
13.820	-0.003457
13.825	-0.003478
13.830	-0.003444
13.835	-0.003471
13.840	-0.003464
13.845	-0.003458
13.850	-0.003451
13.855	-0.003464
13.860	-0.003437
13.865	-0.003450
13.870	-0.003464
13.875	-0.003485
13.880	-0.003457
13.885	-0.003485
13.890	-0.003491
13.895	-0.003492
13.900	-0.003485
13.905	-0.003485
13.910	-0.003513
13.915	-0.003520
13.920	-0.003485
13.925	-0.003491
13.930	-0.003505
13.935	-0.003513
13.940	-0.003492
13.945	-0.003520
13.950	-0.003492
13.955	-0.003520
13.960	-0.003478
13.965	-0.003520
13.970	-0.003554
13.975	-0.003534
13.980	-0.003541
13.985	-0.003534
13.990	-0.003527
13.995	-0.003533
14.000	-0.003541
14.005	-0.003499
14.010	-0.003540
14.015	-0.003527
14.020	-0.003527
14.025	-0.003547
14.030	-0.003547
14.035	-0.003547
14.040	-0.003520
14.045	-0.003541
14.050	-0.003541
14.055	-0.003561
14.060	-0.003568
14.065	-0.003554
14.070	-0.003554
14.075	-0.003575
14.080	-0.003555
14.085	-0.003554
14.090	-0.003561
14.095	-0.003561
14.100	-0.003548
14.105	-0.003575
14.110	-0.003541
14.115	-0.003590
14.120	-0.003576
14.125	-0.003582
14.130	-0.003575
14.135	-0.003561
14.140	-0.003589
14.145	-0.003595
14.150	-0.003582
14.155	-0.003582
14.160	-0.003582
14.165	-0.003589
14.170	-0.003609
14.175	-0.003589
14.180	-0.003590
14.185	-0.003596
14.190	-0.003575
14.195	-0.003595
14.200	-0.003589
14.205	-0.003617
14.210	-0.003603
14.215	-0.003596
14.220	-0.003610
14.225	-0.003651
14.230	-0.003631
14.235	-0.003617
14.240	-0.003610
14.245	-0.003624
14.250	-0.003645
14.255	-0.003624
14.260	-0.003616
14.265	-0.003630
14.270	-0.003637
14.275	-0.003630
14.280	-0.003665
14.285	-0.003665
14.290	-0.003665
14.295	-0.003637
14.300	-0.003658
14.305	-0.003638
14.310	-0.003659
14.315	-0.003666
14.320	-0.003672
14.325	-0.003665
14.330	-0.003659
14.335	-0.003665
14.340	-0.003652
14.345	-0.003679
14.350	-0.003659
14.355	-0.003666
14.360	-0.003659
14.365	-0.003652
14.370	-0.003693
14.375	-0.003707
14.380	-0.003722
14.385	-0.003714
14.390	-0.003658
14.395	-0.003672
14.400	-0.003707
14.405	-0.003700
14.410	-0.003700
14.415	-0.003686
14.420	-0.003700
14.425	-0.003700
14.430	-0.003707
14.435	-0.003714
14.440	-0.003742
14.445	-0.003729
14.450	-0.003742
14.455	-0.003742
14.460	-0.003756
14.465	-0.003749
14.470	-0.003708
14.475	-0.003722
14.480	-0.003742
14.485	-0.003770
14.490	-0.003763
14.495	-0.003735
14.500	-0.003763
14.505	-0.003756
14.510	-0.003784
14.515	-0.003771
14.520	-0.003750
14.525	-0.003770
14.530	-0.003797
14.535	-0.003756
14.540	-0.003763
14.545	-0.003790
14.550	-0.003784
14.555	-0.003783
14.560	-0.003784
14.565	-0.003812
14.570	-0.003805
14.575	-0.003826
14.580	-0.003799
14.585	-0.003812
14.590	-0.003798
14.595	-0.003791
14.600	-0.003784
14.605	-0.003826
14.610	-0.003805
14.615	-0.003833
14.620	-0.003805
14.625	-0.003805
14.630	-0.003785
14.635	-0.003833
14.640	-0.003806
14.645	-0.003883
14.650	-0.003835
14.655	-0.003834
14.660	-0.003841
14.665	-0.003807
14.670	-0.003822
14.675	-0.003822
14.680	-0.003815
14.685	-0.003815
14.690	-0.003830
14.695	-0.003837
14.700	-0.003851
14.705	-0.003803
14.710	-0.003860
14.715	-0.003894
14.720	-0.003893
14.725	-0.003858
14.730	-0.003845
14.735	-0.003874
14.740	-0.003909
14.745	-0.003880
14.750	-0.003872
14.755	-0.003892
14.760	-0.003891
14.765	-0.003891
14.770	-0.003884
14.775	-0.003871
14.780	-0.003871
14.785	-0.003892
14.790	-0.003911
14.795	-0.003898
14.800	-0.003926
14.805	-0.003912
14.810	-0.003912
14.815	-0.003919
14.820	-0.003884
14.825	-0.003947
14.830	-0.003926
14.835	-0.003913
14.840	-0.003913
14.845	-0.003907
14.850	-0.003948
14.855	-0.003913
14.860	-0.003927
14.865	-0.003941
14.870	-0.003900
14.875	-0.003948
14.880	-0.003934
14.885	-0.003948
14.890	-0.003914
14.895	-0.003941
14.900	-0.003955
14.905	-0.003962
14.910	-0.003963
14.915	-0.003977
14.920	-0.003955
14.925	-0.003983
14.930	-0.003983
14.935	-0.003962
14.940	-0.003969
14.945	-0.003969
14.950	-0.003941
14.955	-0.003947
14.960	-0.003982
14.965	-0.004003
14.970	-0.003996
14.975	-0.003969
14.980	-0.003962
14.985	-0.003975
14.990	-0.003975
14.995	-0.003975
15.000	-0.003989
15.005	-0.003982
15.010	-0.003976
15.015	-0.003996
15.020	-0.004017
15.025	-0.003996
15.030	-0.003996
15.035	-0.004044
15.040	-0.003996
15.045	-0.003997
15.050	-0.004024
15.055	-0.004002
15.060	-0.004023
15.065	-0.004043
15.070	-0.004037
15.075	-0.004002
15.080	-0.004044
15.085	-0.004023
15.090	-0.004037
15.095	-0.004030
15.100	-0.004058
15.105	-0.004057
15.110	-0.004045
15.115	-0.004045
15.120	-0.004044
15.125	-0.004050
15.130	-0.004051
15.135	-0.004058
15.140	-0.004051
15.145	-0.004065
15.150	-0.004072
15.155	-0.004086
15.160	-0.004092
15.165	-0.004072
15.170	-0.004072
15.175	-0.004079
15.180	-0.004115
15.185	-0.004107
15.190	-0.004093
15.195	-0.004128
15.200	-0.004093
15.205	-0.004093
15.210	-0.004093
15.215	-0.004114
15.220	-0.004135
15.225	-0.004121
15.230	-0.004121
15.235	-0.004087
15.240	-0.004129
15.245	-0.004123
15.250	-0.004136
15.255	-0.004115
15.260	-0.004156
15.265	-0.004142
15.270	-0.004156
15.275	-0.004136
15.280	-0.004123
15.285	-0.004122
15.290	-0.004136
15.295	-0.004136
15.300	-0.004171
15.305	-0.004185
15.310	-0.004172
15.315	-0.004193
15.320	-0.004165
15.325	-0.004157
15.330	-0.004165
15.335	-0.004178
15.340	-0.004178
15.345	-0.004220
15.350	-0.004185
15.355	-0.004213
15.360	-0.004220
15.365	-0.004207
15.370	-0.004228
15.375	-0.004201
15.380	-0.004208
15.385	-0.004214
15.390	-0.004214
15.395	-0.004248
15.400	-0.004221
15.405	-0.004187
15.410	-0.004228
15.415	-0.004235
15.420	-0.004221
15.425	-0.004235
15.430	-0.004249
15.435	-0.004235
15.440	-0.004222
15.445	-0.004243
15.450	-0.004264
15.455	-0.004250
15.460	-0.004264
15.465	-0.004263
15.470	-0.004264
15.475	-0.004284
15.480	-0.004284
15.485	-0.004263
15.490	-0.004291
15.495	-0.004277
15.500	-0.004318
15.505	-0.004291
15.510	-0.004278
15.515	-0.004278
15.520	-0.004298
15.525	-0.004312
15.530	-0.004312
15.535	-0.004284
15.540	-0.004305
15.545	-0.004319
15.550	-0.004291
15.555	-0.004333
15.560	-0.004319
15.565	-0.004298
15.570	-0.004319
15.575	-0.004306
15.580	-0.004285
15.585	-0.004319
15.590	-0.004332
15.595	-0.004332
15.600	-0.004353
15.605	-0.004311
15.610	-0.004332
15.615	-0.004325
15.620	-0.004332
15.625	-0.004353
15.630	-0.004332
15.635	-0.004332
15.640	-0.004360
15.645	-0.004368
15.650	-0.004374
15.655	-0.004373
15.660	-0.004387
15.665	-0.004380
15.670	-0.004374
15.675	-0.004387
15.680	-0.004381
15.685	-0.004357
15.690	-0.004389
15.695	-0.004426
15.700	-0.004416
15.705	-0.004421
15.710	-0.004409
15.715	-0.004408
15.720	-0.004366
15.725	-0.004421
15.730	-0.004393
15.735	-0.004414
15.740	-0.004428
15.745	-0.004407
15.750	-0.004421
15.755	-0.004414
15.760	-0.004428
15.765	-0.004442
15.770	-0.004435
15.775	-0.004464
15.780	-0.004457
15.785	-0.004442
15.790	-0.004462
15.795	-0.004462
15.800	-0.004469
15.805	-0.004462
15.810	-0.004441
15.815	-0.004497
15.820	-0.004456
15.825	-0.004456
15.830	-0.004469
15.835	-0.004483
15.840	-0.004470
15.845	-0.004470
15.850	-0.004491
15.855	-0.004496
15.860	-0.004476
15.865	-0.004496
15.870	-0.004517
15.875	-0.004490
15.880	-0.004510
15.885	-0.004489
15.890	-0.004510
15.895	-0.004503
15.900	-0.004503
15.905	-0.004531
15.910	-0.004553
15.915	-0.004553
15.920	-0.004532
15.925	-0.004510
15.930	-0.004518
15.935	-0.004552
15.940	-0.004552
15.945	-0.004552
15.950	-0.004545
15.955	-0.004552
15.960	-0.004518
15.965	-0.004538
15.970	-0.004566
15.975	-0.004574
15.980	-0.004581
15.985	-0.004594
15.990	-0.004579
15.995	-0.004607
16.000	-0.004580
16.005	-0.004593
16.010	-0.004580
16.015	-0.004580
16.020	-0.004587
16.025	-0.004621
16.030	-0.004594
16.035	-0.004621
16.040	-0.004609
16.045	-0.004609
16.050	-0.004629
16.055	-0.004601
16.060	-0.004608
16.065	-0.004650
16.070	-0.004622
16.075	-0.004622
16.080	-0.004636
16.085	-0.004629
16.090	-0.004650
16.095	-0.004636
16.100	-0.004636
16.105	-0.004650
16.110	-0.004645
16.115	-0.004672
16.120	-0.004643
16.125	-0.004664
16.130	-0.004650
16.135	-0.004657
16.140	-0.004671
16.145	-0.004664
16.150	-0.004678
16.155	-0.004691
16.160	-0.004705
16.165	-0.004692
16.170	-0.004706
16.175	-0.004693
16.180	-0.004713
16.185	-0.004754
16.190	-0.004684
16.195	-0.004712
16.200	-0.004705
16.205	-0.004727
16.210	-0.004727
16.215	-0.004747
16.220	-0.004748
16.225	-0.004734
16.230	-0.004761
16.235	-0.004747
16.240	-0.004755
16.245	-0.004756
16.250	-0.004742
16.255	-0.004768
16.260	-0.004762
16.265	-0.004741
16.270	-0.004796
16.275	-0.004775
16.280	-0.004810
16.285	-0.004769
16.290	-0.004762
16.295	-0.004776
16.300	-0.004810
16.305	-0.004804
16.310	-0.004784
16.315	-0.004777
16.320	-0.004797
16.325	-0.004811
16.330	-0.004812
16.335	-0.004819
16.340	-0.004812
16.345	-0.004832
16.350	-0.004818
16.355	-0.004839
16.360	-0.004825
16.365	-0.004846
16.370	-0.004839
16.375	-0.004868
16.380	-0.004820
16.385	-0.004820
16.390	-0.004840
16.395	-0.004860
16.400	-0.004867
16.405	-0.004868
16.410	-0.004867
16.415	-0.004861
16.420	-0.004868
16.425	-0.004867
16.430	-0.004902
16.435	-0.004895
16.440	-0.004910
16.445	-0.004869
16.450	-0.004882
16.455	-0.004895
16.460	-0.004902
16.465	-0.004881
16.470	-0.004902
16.475	-0.004895
16.480	-0.004909
16.485	-0.004923
16.490	-0.004930
16.495	-0.004936
16.500	-0.004930
16.505	-0.004902
16.510	-0.004917
16.515	-0.004944
16.520	-0.004964
16.525	-0.004929
16.530	-0.004923
16.535	-0.004943
16.540	-0.004943
16.545	-0.004929
16.550	-0.004936
16.555	-0.004970
16.560	-0.004998
16.565	-0.004984
16.570	-0.004977
16.575	-0.004992
16.580	-0.005006
16.585	-0.004984
16.590	-0.004984
16.595	-0.004984
16.600	-0.004985
16.605	-0.005005
16.610	-0.005005
16.615	-0.005005
16.620	-0.005033
16.625	-0.005005
16.630	-0.005033
16.635	-0.005033
16.640	-0.004993
16.645	-0.005034
16.650	-0.005055
16.655	-0.005047
16.660	-0.005041
16.665	-0.005054
16.670	-0.005027
16.675	-0.005068
16.680	-0.005061
16.685	-0.005062
16.690	-0.005055
16.695	-0.005083
16.700	-0.005069
16.705	-0.005083
16.710	-0.005092
16.715	-0.005077
16.720	-0.005111
16.725	-0.005104
16.730	-0.005097
16.735	-0.005112
16.740	-0.005071
16.745	-0.005105
16.750	-0.005134
16.755	-0.005134
16.760	-0.005127
16.765	-0.005134
16.770	-0.005141
16.775	-0.005143
16.780	-0.005137
16.785	-0.005157
16.790	-0.005122
16.795	-0.005149
16.800	-0.005184
16.805	-0.005163
16.810	-0.005198
16.815	-0.005157
16.820	-0.005185
16.825	-0.005144
16.830	-0.005207
16.835	-0.005193
16.840	-0.005166
16.845	-0.005229
16.850	-0.005242
16.855	-0.005214
16.860	-0.005202
16.865	-0.005216
16.870	-0.005224
16.875	-0.005245
16.880	-0.005259
16.885	-0.005232
16.890	-0.005232
16.895	-0.005240
16.900	-0.005274
16.905	-0.005288
16.910	-0.005297
16.915	-0.005255
16.920	-0.005289
16.925	-0.005274
16.930	-0.005288
16.935	-0.005308
16.940	-0.005287
16.945	-0.005295
16.950	-0.005275
16.955	-0.005296
16.960	-0.005316
16.965	-0.005302
16.970	-0.005309
16.975	-0.005359
16.980	-0.005344
16.985	-0.005335
16.990	-0.005342
16.995	-0.005335
17.000	-0.005329
17.005	-0.005329
17.010	-0.005350
17.015	-0.005357
17.020	-0.005371
17.025	-0.005349
17.030	-0.005370
17.035	-0.005342
17.040	-0.005357
17.045	-0.005371
17.050	-0.005391
17.055	-0.005396
17.060	-0.005368
17.065	-0.005396
17.070	-0.005395
17.075	-0.005374
17.080	-0.005430
17.085	-0.005402
17.090	-0.005437
17.095	-0.005409
17.100	-0.005423
17.105	-0.005465
17.110	-0.005390
17.115	-0.005459
17.120	-0.005471
17.125	-0.005471
17.130	-0.005437
17.135	-0.005451
17.140	-0.005458
17.145	-0.005443
17.150	-0.005478
17.155	-0.005499
17.160	-0.005492
17.165	-0.005505
17.170	-0.005499
17.175	-0.005466
17.180	-0.005466
17.185	-0.005534
17.190	-0.005519
17.195	-0.005512
17.200	-0.005470
17.205	-0.005525
17.210	-0.005519
17.215	-0.005519
17.220	-0.005547
17.225	-0.005525
17.230	-0.005567
17.235	-0.005546
17.240	-0.005542
17.245	-0.005556
17.250	-0.005575
17.255	-0.005581
17.260	-0.005589
17.265	-0.005589
17.270	-0.005582
17.275	-0.005596
17.280	-0.005596
17.285	-0.005569
17.290	-0.005610
17.295	-0.005610
17.300	-0.005625
17.305	-0.005638
17.310	-0.005653
17.315	-0.005618
17.320	-0.005624
17.325	-0.005631
17.330	-0.005624
17.335	-0.005610
17.340	-0.005632
17.345	-0.005645
17.350	-0.005631
17.355	-0.005645
17.360	-0.005666
17.365	-0.005680
17.370	-0.005687
17.375	-0.005689
17.380	-0.005688
17.385	-0.005701
17.390	-0.005680
17.395	-0.005715
17.400	-0.005688
17.405	-0.005702
17.410	-0.005695
17.415	-0.005701
17.420	-0.005722
17.425	-0.005694
17.430	-0.005749
17.435	-0.005707
17.440	-0.005736
17.445	-0.005723
17.450	-0.005742
17.455	-0.005762
17.460	-0.005756
17.465	-0.005797
17.470	-0.005741
17.475	-0.005783
17.480	-0.005783
17.485	-0.005782
17.490	-0.005776
17.495	-0.005775
17.500	-0.005797
17.505	-0.005811
17.510	-0.005806
17.515	-0.005797
17.520	-0.005817
17.525	-0.005831
17.530	-0.005852
17.535	-0.005831
17.540	-0.005859
17.545	-0.005825
17.550	-0.005845
17.555	-0.005887
17.560	-0.005840
17.565	-0.005867
17.570	-0.005929
17.575	-0.005896
17.580	-0.005882
17.585	-0.005888
17.590	-0.005901
17.595	-0.005901
17.600	-0.005908
17.605	-0.005894
17.610	-0.005908
17.615	-0.005921
17.620	-0.005942
17.625	-0.005948
17.630	-0.005983
17.635	-0.005956
17.640	-0.005944
17.645	-0.005951
17.650	-0.005984
17.655	-0.005970
17.660	-0.005949
17.665	-0.005984
17.670	-0.005978
17.675	-0.005970
17.680	-0.005991
17.685	-0.006011
17.690	-0.005997
17.695	-0.005996
17.700	-0.006038
17.705	-0.006011
17.710	-0.006033
17.715	-0.006032
17.720	-0.006038
17.725	-0.006030
17.730	-0.006065
17.735	-0.006051
17.740	-0.006078
17.745	-0.006064
17.750	-0.006078
17.755	-0.006098
17.760	-0.006091
17.765	-0.006091
17.770	-0.006091
17.775	-0.006120
17.780	-0.006105
17.785	-0.006124
17.790	-0.006138
17.795	-0.006145
17.800	-0.006118
17.805	-0.006124
17.810	-0.006166
17.815	-0.006144
17.820	-0.006179
17.825	-0.006143
17.830	-0.006170
17.835	-0.006177
17.840	-0.006192
17.845	-0.006199
17.850	-0.006212
17.855	-0.006190
17.860	-0.006224
17.865	-0.006231
17.870	-0.006203
17.875	-0.006196
17.880	-0.006216
17.885	-0.006223
17.890	-0.006237
17.895	-0.006256
17.900	-0.006250
17.905	-0.006251
17.910	-0.006237
17.915	-0.006292
17.920	-0.006283
17.925	-0.006283
17.930	-0.006291
17.935	-0.006291
17.940	-0.006291
17.945	-0.006298
17.950	-0.006339
17.955	-0.006333
17.960	-0.006347
17.965	-0.006312
17.970	-0.006340
17.975	-0.006362
17.980	-0.006342
17.985	-0.006348
17.990	-0.006354
17.995	-0.006361
18.000	-0.006368
18.005	-0.006389
18.010	-0.006389
18.015	-0.006389
18.020	-0.006410
18.025	-0.006395
18.030	-0.006396
18.035	-0.006410
18.040	-0.006419
18.045	-0.006440
18.050	-0.006447
18.055	-0.006418
18.060	-0.006446
18.065	-0.006453
18.070	-0.006453
18.075	-0.006468
18.080	-0.006448
18.085	-0.006481
18.090	-0.006502
18.095	-0.006468
18.100	-0.006517
18.105	-0.006469
18.110	-0.006525
18.115	-0.006524
18.120	-0.006516
18.125	-0.006529
18.130	-0.006509
18.135	-0.006536
18.140	-0.006564
18.145	-0.006557
18.150	-0.006557
18.155	-0.006591
18.160	-0.006563
18.165	-0.006585
18.170	-0.006557
18.175	-0.006614
18.180	-0.006635
18.185	-0.006585
18.190	-0.006599
18.195	-0.006592
18.200	-0.006607
18.205	-0.006621
18.210	-0.006649
18.215	-0.006663
18.220	-0.006670
18.225	-0.006648
18.230	-0.006670
18.235	-0.006669
18.240	-0.006686
18.245	-0.006673
18.250	-0.006686
18.255	-0.006691
18.260	-0.006685
18.265	-0.006712
18.270	-0.006713
18.275	-0.006726
18.280	-0.006719
18.285	-0.006719
18.290	-0.006754
18.295	-0.006788
18.300	-0.006775
18.305	-0.006735
18.310	-0.006777
18.315	-0.006790
18.320	-0.006789
18.325	-0.006796
18.330	-0.006788
18.335	-0.006803
18.340	-0.006824
18.345	-0.006816
18.350	-0.006824
18.355	-0.006845
18.360	-0.006872
18.365	-0.006857
18.370	-0.006886
18.375	-0.006887
18.380	-0.006874
18.385	-0.006886
18.390	-0.006900
18.395	-0.006899
18.400	-0.006927
18.405	-0.006927
18.410	-0.006907
18.415	-0.006908
18.420	-0.006914
18.425	-0.006941
18.430	-0.006962
18.435	-0.006991
18.440	-0.006959
18.445	-0.006966
18.450	-0.006979
18.455	-0.006958
18.460	-0.007006
18.465	-0.007020
18.470	-0.006972
18.475	-0.007014
18.480	-0.007042
18.485	-0.007041
18.490	-0.007056
18.495	-0.007037
18.500	-0.007044
18.505	-0.007053
18.510	-0.007068
18.515	-0.007074
18.520	-0.007086
18.525	-0.007093
18.530	-0.007114
18.535	-0.007109
18.540	-0.007103
18.545	-0.007151
18.550	-0.007158
18.555	-0.007137
18.560	-0.007150
18.565	-0.007165
18.570	-0.007159
18.575	-0.007161
18.580	-0.007189
18.585	-0.007214
18.590	-0.007173
18.595	-0.007173
18.600	-0.007215
18.605	-0.007229
18.610	-0.007187
18.615	-0.007214
18.620	-0.007250
18.625	-0.007284
18.630	-0.007229
18.635	-0.007236
18.640	-0.007307
18.645	-0.007294
18.650	-0.007306
18.655	-0.007285
18.660	-0.007266
18.665	-0.007320
18.670	-0.007335
18.675	-0.007334
18.680	-0.007341
18.685	-0.007334
18.690	-0.007370
18.695	-0.007356
18.700	-0.007385
18.705	-0.007393
18.710	-0.007380
18.715	-0.007407
18.720	-0.007399
18.725	-0.007399
18.730	-0.007454
18.735	-0.007405
18.740	-0.007460
18.745	-0.007455
18.750	-0.007455
18.755	-0.007483
18.760	-0.007455
18.765	-0.007509
18.770	-0.007469
18.775	-0.007513
18.780	-0.007478
18.785	-0.007558
18.790	-0.007550
18.795	-0.007550
18.800	-0.007565
18.805	-0.007552
18.810	-0.007574
18.815	-0.007566
18.820	-0.007560
18.825	-0.007588
18.830	-0.007636
18.835	-0.007623
18.840	-0.007613
18.845	-0.007633
18.850	-0.007652
18.855	-0.007651
18.860	-0.007659
18.865	-0.007667
18.870	-0.007681
18.875	-0.007696
18.880	-0.007685
18.885	-0.007706
18.890	-0.007728
18.895	-0.007741
18.900	-0.007729
18.905	-0.007766
18.910	-0.007747
18.915	-0.007760
18.920	-0.007765
18.925	-0.007773
18.930	-0.007782
18.935	-0.007775
18.940	-0.007808
18.945	-0.007799
18.950	-0.007818
18.955	-0.007826
18.960	-0.007855
18.965	-0.007840
18.970	-0.007836
18.975	-0.007873
18.980	-0.007865
18.985	-0.007854
18.990	-0.007901
18.995	-0.007886
19.000	-0.007885
19.005	-0.007905
19.010	-0.007910
19.015	-0.007957
19.020	-0.007935
19.025	-0.007964
19.030	-0.007957
19.035	-0.007992
19.040	-0.008001
19.045	-0.008000
19.050	-0.008019
19.055	-0.008010
19.060	-0.008052
19.065	-0.008065
19.070	-0.008059
19.075	-0.008066
19.080	-0.008115
19.085	-0.008086
19.090	-0.008134
19.095	-0.008105
19.100	-0.008126
19.105	-0.008128
19.110	-0.008149
19.115	-0.008149
19.120	-0.008190
19.125	-0.008190
19.130	-0.008170
19.135	-0.008198
19.140	-0.008198
19.145	-0.008232
19.150	-0.008218
19.155	-0.008233
19.160	-0.008296
19.165	-0.008281
19.170	-0.008302
19.175	-0.008324
19.180	-0.008289
19.185	-0.008316
19.190	-0.008338
19.195	-0.008367
19.200	-0.008353
19.205	-0.008389
19.210	-0.008368
19.215	-0.008383
19.220	-0.008420
19.225	-0.008428
19.230	-0.008450
19.235	-0.008438
19.240	-0.008457
19.245	-0.008506
19.250	-0.008478
19.255	-0.008499
19.260	-0.008528
19.265	-0.008516
19.270	-0.008549
19.275	-0.008547
19.280	-0.008540
19.285	-0.008540
19.290	-0.008567
19.295	-0.008588
19.300	-0.008609
19.305	-0.008597
19.310	-0.008613
19.315	-0.008618
19.320	-0.008671
19.325	-0.008648
19.330	-0.008655
19.335	-0.008633
19.340	-0.008674
19.345	-0.008695
19.350	-0.008694
19.355	-0.008713
19.360	-0.008706
19.365	-0.008719
19.370	-0.008747
19.375	-0.008732
19.380	-0.008799
19.385	-0.008776
19.390	-0.008804
19.395	-0.008826
19.400	-0.008846
19.405	-0.008859
19.410	-0.008804
19.415	-0.008853
19.420	-0.008895
19.425	-0.008875
19.430	-0.008923
19.435	-0.008889
19.440	-0.008932
19.445	-0.008979
19.450	-0.008942
19.455	-0.008961
19.460	-0.008963
19.465	-0.008977
19.470	-0.008992
19.475	-0.009047
19.480	-0.009063
19.485	-0.009077
19.490	-0.009083
19.495	-0.009077
19.500	-0.009106
19.505	-0.009087
19.510	-0.009110
19.515	-0.009130
19.520	-0.009111
19.525	-0.009154
19.530	-0.009158
19.535	-0.009181
19.540	-0.009191
19.545	-0.009213
19.550	-0.009221
19.555	-0.009243
19.560	-0.009265
19.565	-0.009265
19.570	-0.009268
19.575	-0.009300
19.580	-0.009319
19.585	-0.009318
19.590	-0.009321
19.595	-0.009379
19.600	-0.009360
19.605	-0.009404
19.610	-0.009404
19.615	-0.009445
19.620	-0.009431
19.625	-0.009466
19.630	-0.009496
19.635	-0.009498
19.640	-0.009540
19.645	-0.009529
19.650	-0.009553
19.655	-0.009542
19.660	-0.009566
19.665	-0.009551
19.670	-0.009579
19.675	-0.009628
19.680	-0.009607
19.685	-0.009606
19.690	-0.009664
19.695	-0.009647
19.700	-0.009675
19.705	-0.009692
19.710	-0.009695
19.715	-0.009708
19.720	-0.009726
19.725	-0.009718
19.730	-0.009755
19.735	-0.009798
19.740	-0.009792
19.745	-0.009826
19.750	-0.009839
19.755	-0.009872
19.760	-0.009866
19.765	-0.009909
19.770	-0.009955
19.775	-0.009963
19.780	-0.009966
19.785	-0.009984
19.790	-0.009993
19.795	-0.010003
19.800	-0.010049
19.805	-0.010022
19.810	-0.010100
19.815	-0.010113
19.820	-0.010133
19.825	-0.010140
19.830	-0.010149
19.835	-0.010192
19.840	-0.010210
19.845	-0.010203
19.850	-0.010234
19.855	-0.010227
19.860	-0.010276
19.865	-0.010284
19.870	-0.010313
19.875	-0.010318
19.880	-0.010351
19.885	-0.010390
19.890	-0.010390
19.895	-0.010428
19.900	-0.010421
19.905	-0.010450
19.910	-0.010461
19.915	-0.010499
19.920	-0.010504
19.925	-0.010551
19.930	-0.010562
19.935	-0.010574
19.940	-0.010601
19.945	-0.010607
19.950	-0.010633
19.955	-0.010653
19.960	-0.010661
19.965	-0.010680
19.970	-0.010725
19.975	-0.010754
19.980	-0.010752
19.985	-0.010803
19.990	-0.010809
19.995	-0.010836
20.000	-0.010857
20.005	-0.010856
20.010	-0.010911
20.015	-0.010931
20.020	-0.010933
20.025	-0.010967
20.030	-0.010995
20.035	-0.011018
20.040	-0.011042
20.045	-0.011112
20.050	-0.011108
20.055	-0.011095
20.060	-0.011123
20.065	-0.011174
20.070	-0.011183
20.075	-0.011231
20.080	-0.011210
20.085	-0.011289
20.090	-0.011291
20.095	-0.011311
20.100	-0.011347
20.105	-0.011406
20.110	-0.011419
20.115	-0.011431
20.120	-0.011456
20.125	-0.011463
20.130	-0.011471
20.135	-0.011481
20.140	-0.011515
20.145	-0.011550
20.150	-0.011583
20.155	-0.011604
20.160	-0.011635
20.165	-0.011663
20.170	-0.011710
20.175	-0.011721
20.180	-0.011733
20.185	-0.011738
20.190	-0.011811
20.195	-0.011806
20.200	-0.011863
20.205	-0.011879
20.210	-0.011918
20.215	-0.011952
20.220	-0.011955
20.225	-0.011983
20.230	-0.012030
20.235	-0.012069
20.240	-0.012089
20.245	-0.012124
20.250	-0.012114
20.255	-0.012143
20.260	-0.012202
20.265	-0.012245
20.270	-0.012263
20.275	-0.012281
20.280	-0.012308
20.285	-0.012320
20.290	-0.012368
20.295	-0.012409
20.300	-0.012467
20.305	-0.012464
20.310	-0.012483
20.315	-0.012503
20.320	-0.012560
20.325	-0.012604
20.330	-0.012625
20.335	-0.012677
20.340	-0.012737
20.345	-0.012717
20.350	-0.012772
20.355	-0.012806
20.360	-0.012824
20.365	-0.012869
20.370	-0.012860
20.375	-0.012953
20.380	-0.012955
20.385	-0.012997
20.390	-0.013071
20.395	-0.013074
20.400	-0.013122
20.405	-0.013167
20.410	-0.013176
20.415	-0.013258
20.420	-0.013285
20.425	-0.013317
20.430	-0.013360
20.435	-0.013424
20.440	-0.013420
20.445	-0.013428
20.450	-0.013509
20.455	-0.013556
20.460	-0.013616
20.465	-0.013619
20.470	-0.013657
20.475	-0.013734
20.480	-0.013807
20.485	-0.013864
20.490	-0.013915
20.495	-0.013958
20.500	-0.014002
20.505	-0.014059
20.510	-0.014091
20.515	-0.014139
20.520	-0.014109
20.525	-0.014166
20.530	-0.014185
20.535	-0.014252
20.540	-0.014304
20.545	-0.014342
20.550	-0.014382
20.555	-0.014444
20.560	-0.014481
20.565	-0.014503
20.570	-0.014575
20.575	-0.014626
20.580	-0.014641
20.585	-0.014681
20.590	-0.014705
20.595	-0.014750
20.600	-0.014834
20.605	-0.014882
20.610	-0.014915
20.615	-0.014953
20.620	-0.015016
20.625	-0.015078
20.630	-0.015153
20.635	-0.015227
20.640	-0.015285
20.645	-0.015352
20.650	-0.015416
20.655	-0.015489
20.660	-0.015527
20.665	-0.015576
20.670	-0.015641
20.675	-0.015734
20.680	-0.015764
20.685	-0.015864
20.690	-0.015889
20.695	-0.015937
20.700	-0.016028
20.705	-0.016098
20.710	-0.016175
20.715	-0.016198
20.720	-0.016303
20.725	-0.016363
20.730	-0.016393
20.735	-0.016450
20.740	-0.016506
20.745	-0.016594
20.750	-0.016621
20.755	-0.016706
20.760	-0.016774
20.765	-0.016877
20.770	-0.017002
20.775	-0.017084
20.780	-0.017201
20.785	-0.017285
20.790	-0.017381
20.795	-0.017449
20.800	-0.017541
20.805	-0.017624
20.810	-0.017732
20.815	-0.017809
20.820	-0.017890
20.825	-0.017993
20.830	-0.018122
20.835	-0.018183
20.840	-0.018275
20.845	-0.018378
20.850	-0.018471
20.855	-0.018582
20.860	-0.018677
20.865	-0.018790
20.870	-0.018866
20.875	-0.018968
20.880	-0.019106
20.885	-0.019250
20.890	-0.019336
20.895	-0.019461
20.900	-0.019568
20.905	-0.019631
20.910	-0.019734
20.915	-0.019786
20.920	-0.019880
20.925	-0.019994
20.930	-0.020046
20.935	-0.020170
20.940	-0.020340
20.945	-0.020428
20.950	-0.020559
20.955	-0.020706
20.960	-0.020819
20.965	-0.020962
20.970	-0.021109
20.975	-0.021248
20.980	-0.021344
20.985	-0.021463
20.990	-0.021582
20.995	-0.021737
21.000	-0.021923
21.005	-0.022103
21.010	-0.022239
21.015	-0.022388
21.020	-0.022501
21.025	-0.022701
21.030	-0.022879
21.035	-0.023094
21.040	-0.023302
21.045	-0.023494
21.050	-0.023743
21.055	-0.023961
21.060	-0.024186
21.065	-0.024310
21.070	-0.024483
21.075	-0.024776
21.080	-0.025031
21.085	-0.025263
21.090	-0.025452
21.095	-0.025693
21.100	-0.025927
21.105	-0.026255
21.110	-0.026550
21.115	-0.026818
21.120	-0.027079
21.125	-0.027376
21.130	-0.027781
21.135	-0.028148
21.140	-0.028534
21.145	-0.028877
21.150	-0.029074
21.155	-0.029209
21.160	-0.029627
21.165	-0.029833
21.170	-0.030153
21.175	-0.030867
21.180	-0.031351
21.185	-0.031806
21.190	-0.032404
21.195	-0.032947
21.200	-0.033459
21.205	-0.034118
21.210	-0.034649
21.215	-0.035172
21.220	-0.035862
21.225	-0.036908
21.230	-0.037671
21.235	-0.038743
21.240	-0.039584
21.245	-0.039794
21.250	-0.040965
21.255	-0.042542
21.260	-0.043015
21.265	-0.044013
21.270	-0.045102
21.275	-0.046382
21.280	-0.047408
21.285	-0.047945
21.290	-0.047954
21.295	-0.047908
21.300	-0.047410
21.305	-0.046458
21.310	-0.044969
21.315	-0.042725
21.320	-0.039951
21.325	-0.036496
21.330	-0.032603
21.335	-0.028701
21.340	-0.024795
21.345	-0.020676
21.350	-0.016185
21.355	-0.011587
21.360	-0.007660
21.365	-0.004692
21.370	-0.002650
21.375	-0.001477
21.380	-0.000802
21.385	-0.000442
21.390	-0.000245
21.395	-0.000150
21.400	-0.000103
21.405	-0.000090
21.410	-0.000056
21.415	-0.000035
21.420	-0.000022
21.425	-0.000022
21.430	-0.000015
21.435	-0.000028
21.440	-0.000028
21.445	0.000006
21.450	0.000005
21.455	0.000005
21.460	-0.000008
21.465	0.000019
21.470	0.000005
21.475	-0.000022
21.480	0.000012
21.485	0.000039
21.490	0.000012
21.495	0.000032
21.500	0.000019
21.505	0.000026
21.510	0.000026
21.515	-0.000002
21.520	0.000039
21.525	0.000032
21.530	0.000012
21.535	0.000039
21.540	0.000025
21.545	0.000025
21.550	0.000025
21.555	0.000032
21.560	0.000025
21.565	0.000025
21.570	0.000039
21.575	0.000039
21.580	0.000032
21.585	0.000038
21.590	0.000025
21.595	0.000045
21.600	0.000025
21.605	0.000018
21.610	0.000025
21.615	0.000032
21.620	0.000025
21.625	0.000011
21.630	0.000018
21.635	0.000052
21.640	0.000032
21.645	0.000032
21.650	0.000038
21.655	0.000031
21.660	0.000052
21.665	0.000058
21.670	-0.000003
21.675	0.000025
21.680	0.000038
21.685	0.000038
21.690	0.000038
21.695	0.000031
21.700	0.000052
21.705	0.000052
21.710	0.000032
21.715	0.000038
21.720	0.000024
21.725	0.000051
21.730	0.000051
21.735	0.000031
21.740	0.000044
21.745	0.000037
21.750	0.000044
21.755	0.000024
21.760	0.000038
21.765	0.000037
21.770	0.000018
21.775	0.000031
21.780	0.000051
21.785	0.000030
21.790	0.000037
21.795	0.000031
21.800	0.000024
21.805	0.000031
21.810	0.000037
21.815	0.000037
21.820	0.000017
21.825	0.000051
21.830	0.000030
21.835	0.000058
21.840	0.000004
21.845	0.000038
21.850	0.000010
21.855	0.000051
21.860	0.000044
21.865	0.000051
21.870	0.000044
21.875	0.000050
21.880	-0.000004
21.885	0.000043
21.890	0.000030
21.895	0.000016
21.900	0.000037
21.905	0.000044
21.910	0.000023
21.915	0.000030
21.920	0.000037
21.925	0.000050
21.930	0.000030
21.935	0.000023
21.940	0.000043
21.945	0.000023
21.950	0.000016
21.955	0.000030
21.960	0.000043
21.965	0.000009
21.970	0.000037
21.975	0.000023
21.980	0.000016
21.985	0.000036
21.990	0.000023
21.995	0.000030
22.000	0.000002
22.005	-0.000005
22.010	0.000030
22.015	0.000043
22.020	-0.000005
22.025	0.000043
22.030	0.000036
22.035	0.000030
22.040	0.000030
22.045	0.000030
22.050	0.000022
22.055	0.000029
22.060	0.000036
22.065	0.000043
22.070	0.000002
22.075	0.000023
22.080	0.000002
22.085	0.000043
22.090	0.000009
22.095	0.000029
22.100	0.000009
22.105	-0.000018
22.110	0.000043
22.115	0.000050
22.120	0.000029
22.125	0.000029
22.130	0.000022
22.135	0.000022
22.140	0.000009
22.145	0.000029
22.150	0.000049
22.155	0.000049
22.160	0.000056
22.165	-0.000005
22.170	0.000029
22.175	0.000022
22.180	0.000029
22.185	0.000035
22.190	0.000029
22.195	0.000036
22.200	0.000036
22.205	0.000022
22.210	0.000029
22.215	0.000001
22.220	0.000029
22.225	0.000042
22.230	0.000022
22.235	0.000015
22.240	0.000043
22.245	0.000022
22.250	0.000022
22.255	0.000022
22.260	0.000062
22.265	0.000022
22.270	0.000021
22.275	0.000028
22.280	0.000035
22.285	0.000042
22.290	0.000028
22.295	0.000035
22.300	0.000015
22.305	0.000042
22.310	0.000008
22.315	0.000015
22.320	0.000048
22.325	0.000035
22.330	0.000049
22.335	0.000028
22.340	0.000042
22.345	0.000015
22.350	0.000021
22.355	0.000035
22.360	0.000028
22.365	0.000041
22.370	0.000015
22.375	-0.000012
22.380	0.000015
22.385	0.000035
22.390	0.000028
22.395	0.000014
22.400	0.000035
22.405	0.000034
22.410	0.000028
22.415	0.000001
22.420	-0.000013
22.425	0.000021
22.430	0.000021
22.435	0.000014
22.440	0.000028
22.445	0.000021
22.450	0.000027
22.455	0.000027
22.460	0.000028
22.465	0.000007
22.470	0.000048
22.475	0.000034
22.480	0.000048
22.485	0.000007
22.490	0.000014
22.495	0.000021
22.500	0.000041
22.505	0.000035
22.510	-0.000020
22.515	0.000027
22.520	0.000041
22.525	0.000013
22.530	0.000027
22.535	0.000034
22.540	0.000034
22.545	0.000007
22.550	-0.000000
22.555	0.000013
22.560	-0.000000
22.565	0.000027
22.570	0.000021
22.575	0.000020
22.580	0.000020
22.585	0.000040
22.590	0.000047
22.595	0.000034
22.600	-0.000000
22.605	0.000020
22.610	0.000013
22.615	-0.000001
22.620	-0.000007
22.625	0.000006
22.630	-0.000000
22.635	0.000014
22.640	0.000021
22.645	0.000027
22.650	0.000020
22.655	-0.000001
22.660	0.000033
22.665	0.000027
22.670	0.000013
22.675	0.000054
22.680	0.000033
22.685	-0.000014
22.690	0.000047
22.695	0.000013
22.700	-0.000007
22.705	-0.000007
22.710	0.000013
22.715	0.000040
22.720	0.000026
22.725	0.000026
22.730	0.000040
22.735	0.000033
22.740	0.000026
22.745	0.000033
22.750	0.000040
22.755	0.000040
22.760	-0.000021
22.765	0.000006
22.770	0.000020
22.775	0.000013
22.780	0.000020
22.785	0.000040
22.790	0.000019
22.795	0.000040
22.800	0.000026
22.805	0.000019
22.810	0.000040
22.815	-0.000008
22.820	-0.000001
22.825	-0.000015
22.830	0.000053
22.835	0.000047
22.840	0.000026
22.845	0.000026
22.850	0.000039
22.855	0.000039
22.860	-0.000001
22.865	0.000012
22.870	0.000046
22.875	0.000033
22.880	0.000005
22.885	0.000012
22.890	0.000005
22.895	0.000032
22.900	0.000006
22.905	0.000019
22.910	0.000019
22.915	0.000012
22.920	0.000012
22.925	0.000005
22.930	0.000026
22.935	0.000019
22.940	0.000019
22.945	0.000012
22.950	0.000005
22.955	0.000025
22.960	0.000025
22.965	0.000025
22.970	0.000019
22.975	0.000046
22.980	0.000012
22.985	0.000018
22.990	0.000032
22.995	0.000046
23.000	0.000025
23.005	-0.000002
23.010	0.000012
23.015	0.000019
23.020	0.000005
23.025	0.000005
23.030	-0.000009
23.035	0.000032
23.040	-0.000001
23.045	0.000039
23.050	0.000032
23.055	0.000005
23.060	0.000032
23.065	0.000038
23.070	0.000018
23.075	-0.000002
23.080	0.000032
23.085	0.000025
23.090	0.000011
23.095	0.000025
23.100	0.000025
23.105	0.000026
23.110	0.000039
23.115	0.000038
23.120	0.000038
23.125	0.000025
23.130	0.000025
23.135	0.000018
23.140	0.000005
23.145	0.000018
23.150	0.000025
23.155	0.000018
23.160	0.000052
23.165	0.000018
23.170	0.000012
23.175	0.000032
23.180	0.000039
23.185	0.000018
23.190	0.000052
23.195	0.000004
23.200	0.000045
23.205	0.000059
23.210	0.000018
23.215	0.000025
23.220	0.000024
23.225	0.000031
23.230	0.000052
23.235	0.000018
23.240	0.000045
23.245	0.000025
23.250	0.000024
23.255	0.000024
23.260	0.000031
23.265	0.000045
23.270	0.000038
23.275	0.000031
23.280	0.000031
23.285	0.000011
23.290	0.000038
23.295	0.000065
23.300	0.000038
23.305	0.000052
23.310	0.000038
23.315	0.000031
23.320	0.000045
23.325	0.000031
23.330	0.000024
23.335	0.000058
23.340	0.000017
23.345	0.000017
23.350	0.000037
23.355	0.000010
23.360	0.000024
23.365	0.000031
23.370	0.000025
23.375	0.000017
23.380	0.000044
23.385	0.000017
23.390	0.000024
23.395	0.000051
23.400	-0.000003
23.405	0.000031
23.410	0.000017
23.415	-0.000003
23.420	0.000044
23.425	0.000037
23.430	0.000037
23.435	0.000024
23.440	0.000011
23.445	0.000051
23.450	0.000003
23.455	0.000044
23.460	0.000058
23.465	0.000058
23.470	0.000044
23.475	0.000023
23.480	0.000017
23.485	0.000037
23.490	0.000030
23.495	0.000030
23.500	0.000031
23.505	0.000017
23.510	0.000051
23.515	0.000064
23.520	0.000023
23.525	0.000024
23.530	0.000064
23.535	0.000037
23.540	0.000044
23.545	0.000017
23.550	0.000030
23.555	0.000044
23.560	0.000064
23.565	0.000037
23.570	0.000044
23.575	0.000051
23.580	0.000010
23.585	0.000030
23.590	0.000037
23.595	0.000044
23.600	0.000030
23.605	0.000050
23.610	0.000023
23.615	0.000023
23.620	0.000030
23.625	0.000091
23.630	0.000050
23.635	0.000037
23.640	0.000044
23.645	0.000057
23.650	0.000030
23.655	0.000037
23.660	0.000030
23.665	0.000037
23.670	0.000064
23.675	0.000043
23.680	0.000043
23.685	0.000030
23.690	0.000016
23.695	0.000036
23.700	0.000051
23.705	0.000044
23.710	0.000057
23.715	0.000063
23.720	0.000030
23.725	0.000030
23.730	0.000030
23.735	0.000029
23.740	0.000050
23.745	0.000036
23.750	0.000063
23.755	0.000057
23.760	0.000023
23.765	0.000050
23.770	0.000050
23.775	0.000071
23.780	0.000029
23.785	0.000036
23.790	0.000070
23.795	0.000023
23.800	0.000043
23.805	0.000036
23.810	0.000070
23.815	0.000023
23.820	0.000009
23.825	0.000029
23.830	0.000016
23.835	0.000057
23.840	0.000064
23.845	0.000050
23.850	0.000036
23.855	0.000056
23.860	0.000016
23.865	0.000043
23.870	0.000077
23.875	0.000009
23.880	0.000036
23.885	0.000063
23.890	0.000049
23.895	0.000049
23.900	0.000029
23.905	0.000050
23.910	0.000043
23.915	0.000022
23.920	0.000070
23.925	0.000042
23.930	0.000049
23.935	0.000063
23.940	0.000063
23.945	0.000022
23.950	0.000022
23.955	0.000042
23.960	0.000043
23.965	0.000063
23.970	0.000077
23.975	0.000036
23.980	0.000056
23.985	0.000049
23.990	0.000063
23.995	0.000035
24.000	0.000056
24.005	0.000015
24.010	0.000056
24.015	0.000042
24.020	0.000056
24.025	0.000042
24.030	0.000028
24.035	0.000029
24.040	0.000036
24.045	0.000069
24.050	0.000042
24.055	0.000062
24.060	0.000056
24.065	0.000049
24.070	0.000083
24.075	0.000029
24.080	0.000042
24.085	0.000056
24.090	0.000056
24.095	0.000028
24.100	0.000083
24.105	0.000049
24.110	0.000022
24.115	0.000083
24.120	0.000056
24.125	0.000062
24.130	0.000062
24.135	0.000048
24.140	0.000028
24.145	0.000049
24.150	0.000076
24.155	0.000035
24.160	0.000042
24.165	0.000021
24.170	0.000042
24.175	0.000069
24.180	0.000062
24.185	0.000076
24.190	0.000049
24.195	0.000089
24.200	0.000049
24.205	0.000055
24.210	0.000055
24.215	0.000055
24.220	0.000028
24.225	0.000048
24.230	0.000048
24.235	0.000056
24.240	0.000049
24.245	0.000062
24.250	0.000055
24.255	0.000014
24.260	0.000062
24.265	0.000041
24.270	0.000055
24.275	0.000061
24.280	0.000048
24.285	0.000068
24.290	0.000021
24.295	0.000034
24.300	0.000028
24.305	0.000055
24.310	0.000041
24.315	0.000061
24.320	0.000041
24.325	0.000061
24.330	0.000055
24.335	0.000041
24.340	0.000069
24.345	0.000048
24.350	0.000055
24.355	0.000055
24.360	0.000068
24.365	0.000034
24.370	0.000035
24.375	0.000035
24.380	0.000028
24.385	0.000054
24.390	0.000061
24.395	0.000048
24.400	0.000054
24.405	0.000061
24.410	0.000054
24.415	0.000047
24.420	0.000041
24.425	0.000027
24.430	0.000061
24.435	0.000048
24.440	0.000028
24.445	0.000034
24.450	0.000068
24.455	0.000075
24.460	0.000068
24.465	0.000054
24.470	0.000061
24.475	0.000041
24.480	0.000061
24.485	0.000034
24.490	0.000068
24.495	0.000054
24.500	0.000054
24.505	0.000028
24.510	0.000034
24.515	0.000040
24.520	0.000040
24.525	0.000054
24.530	0.000033
24.535	0.000040
24.540	0.000054
24.545	0.000047
24.550	0.000067
24.555	0.000033
24.560	0.000020
24.565	0.000061
24.570	0.000020
24.575	0.000088
24.580	0.000047
24.585	0.000074
24.590	0.000067
24.595	0.000040
24.600	0.000067
24.605	0.000040
24.610	0.000040
24.615	0.000040
24.620	0.000033
24.625	0.000053
24.630	0.000047
24.635	0.000020
24.640	0.000054
24.645	0.000053
24.650	0.000046
24.655	0.000046
24.660	0.000060
24.665	0.000053
24.670	0.000040
24.675	0.000046
24.680	0.000039
24.685	0.000039
24.690	0.000019
24.695	0.000046
24.700	0.000026
24.705	0.000033
24.710	0.000047
24.715	0.000046
24.720	0.000046
24.725	0.000039
24.730	0.000066
24.735	0.000073
24.740	0.000032
24.745	0.000046
24.750	0.000039
24.755	0.000032
24.760	0.000005
24.765	0.000053
24.770	0.000060
24.775	0.000033
24.780	0.000053
24.785	0.000039
24.790	0.000046
24.795	0.000018
24.800	0.000066
24.805	0.000032
24.810	0.000046
24.815	0.000039
24.820	0.000032
24.825	0.000052
24.830	0.000032
24.835	0.000046
24.840	0.000039
24.845	0.000032
24.850	0.000025
24.855	0.000032
24.860	0.000032
24.865	0.000011
24.870	0.000046
24.875	0.000025
24.880	0.000046
24.885	0.000059
24.890	0.000045
24.895	0.000032
24.900	0.000025
24.905	0.000039
24.910	0.000025
24.915	0.000025
24.920	0.000045
24.925	0.000025
24.930	0.000059
24.935	0.000025
24.940	0.000025
24.945	0.000038
24.950	0.000065
24.955	0.000025
24.960	0.000052
24.965	0.000018
24.970	0.000012
24.975	0.000025
24.980	0.000031
24.985	0.000045
24.990	0.000038
24.995	0.000031
25.000	0.000025
25.005	0.000045
25.010	0.000038
25.015	0.000045
25.020	0.000018
25.025	0.000045
25.030	0.000031
25.035	0.000032
25.040	0.000032
25.045	0.000038
25.050	0.000058
25.055	0.000051
25.060	0.000045
25.065	0.000065
25.070	0.000058
25.075	0.000038
25.080	0.000017
25.085	0.000024
25.090	0.000038
25.095	0.000024
25.100	0.000045
25.105	0.000038
25.110	0.000038
25.115	0.000038
25.120	0.000024
25.125	0.000038
25.130	0.000045
25.135	0.000051
25.140	0.000024
25.145	0.000024
25.150	0.000031
25.155	0.000058
25.160	0.000044
25.165	0.000011
25.170	0.000038
25.175	0.000045
25.180	0.000044
25.185	0.000003
25.190	0.000037
25.195	0.000044
25.200	0.000051
25.205	0.000044
25.210	0.000037
25.215	0.000058
25.220	0.000058
25.225	0.000044
25.230	0.000037
25.235	0.000038
25.240	0.000038
25.245	0.000037
25.250	0.000037
25.255	0.000051
25.260	0.000037
25.265	0.000044
25.270	0.000037
25.275	0.000037
25.280	0.000030
25.285	0.000030
25.290	0.000017
25.295	0.000030
25.300	0.000051
25.305	0.000024
25.310	0.000044
25.315	0.000030
25.320	0.000057
25.325	0.000030
25.330	0.000091
25.335	0.000071
25.340	0.000044
25.345	0.000016
25.350	0.000023
25.355	0.000057
25.360	0.000023
25.365	0.000030
25.370	0.000024
25.375	0.000030
25.380	0.000043
25.385	0.000064
25.390	0.000071
25.395	0.000037
25.400	0.000003
25.405	0.000037
25.410	0.000030
25.415	0.000071
25.420	0.000044
25.425	0.000037
25.430	0.000050
25.435	0.000023
25.440	0.000051
25.445	0.000023
25.450	0.000050
25.455	0.000030
25.460	0.000036
25.465	0.000064
25.470	0.000043
25.475	0.000050
25.480	0.000043
25.485	0.000056
25.490	0.000036
25.495	0.000063
25.500	0.000050
25.505	0.000043
25.510	0.000036
25.515	0.000050
25.520	0.000023
25.525	0.000063
25.530	0.000050
25.535	0.000050
25.540	0.000091
25.545	0.000070
25.550	0.000063
25.555	0.000043
25.560	0.000050
25.565	0.000030
25.570	0.000044
25.575	0.000023
25.580	0.000056
25.585	0.000043
25.590	0.000049
25.595	0.000043
25.600	0.000049
25.605	0.000056
25.610	0.000056
25.615	0.000036
25.620	0.000042
25.625	0.000036
25.630	0.000043
25.635	0.000036
25.640	0.000056
25.645	0.000029
25.650	0.000042
25.655	0.000029
25.660	0.000077
25.665	0.000069
25.670	0.000022
25.675	0.000063
25.680	0.000036
25.685	0.000042
25.690	0.000022
25.695	0.000035
25.700	0.000056
25.705	0.000050
25.710	0.000049
25.715	0.000021
25.720	0.000069
25.725	0.000035
25.730	0.000042
25.735	0.000035
25.740	0.000048
25.745	0.000021
25.750	0.000056
25.755	0.000028
25.760	0.000015
25.765	0.000063
25.770	0.000063
25.775	0.000042
25.780	0.000035
25.785	0.000035
25.790	0.000021
25.795	0.000049
25.800	0.000042
25.805	0.000055
25.810	0.000021
25.815	0.000028
25.820	0.000042
25.825	0.000062
25.830	0.000055
25.835	0.000042
25.840	0.000029
25.845	0.000041
25.850	0.000041
25.855	0.000041
25.860	0.000062
25.865	0.000041
25.870	0.000069
25.875	0.000055
25.880	0.000035
25.885	0.000041
25.890	0.000021
25.895	0.000028
25.900	0.000021
25.905	0.000028
25.910	0.000007
25.915	0.000027
25.920	0.000034
25.925	0.000041
25.930	0.000014
25.935	0.000034
25.940	0.000041
25.945	0.000028
25.950	0.000048
25.955	0.000034
25.960	0.000021
25.965	0.000035
25.970	0.000035
25.975	0.000021
25.980	0.000041
25.985	0.000020
25.990	0.000048
25.995	0.000041
26.000	0.000048
26.005	0.000034
26.010	0.000027
26.015	0.000027
26.020	0.000034
26.025	0.000013
26.030	0.000041
26.035	0.000034
26.040	0.000034
26.045	0.000040
26.050	0.000040
26.055	0.000013
26.060	0.000034
26.065	0.000027
26.070	0.000041
26.075	0.000034
26.080	0.000013
26.085	0.000034
26.090	0.000040
26.095	0.000040
26.100	0.000020
26.105	0.000048
26.110	0.000027
26.115	0.000033
26.120	0.000047
26.125	0.000047
26.130	0.000054
26.135	0.000033
26.140	0.000033
26.145	0.000006
26.150	0.000040
26.155	0.000013
26.160	0.000026
26.165	0.000041
26.170	0.000034
26.175	0.000013
26.180	0.000006
26.185	0.000026
26.190	0.000040
26.195	0.000033
26.200	0.000040
26.205	0.000067
26.210	0.000047
26.215	0.000047
26.220	0.000026
26.225	0.000033
26.230	0.000020
26.235	0.000047
26.240	0.000020
26.245	0.000026
26.250	0.000019
26.255	0.000033
26.260	0.000033
26.265	0.000033
26.270	0.000046
26.275	0.000053
26.280	0.000033
26.285	0.000012
26.290	0.000012
26.295	0.000033
26.300	0.000027
26.305	0.000006
26.310	-0.000015
26.315	0.000046
26.320	-0.000001
26.325	0.000039
26.330	0.000026
26.335	0.000039
26.340	0.000019
26.345	0.000039
