PK2650 Deflection Data
Z Position (mm)	100.000	W Position (deg)	0.00
Preform ID	Diameter (mm)	Time Stamp	Start Time	Operator	Serial Number
Test 1	25	03-Nov-22 18:05:01	03-Nov-22 18:05:40	[no user]	266007708
Radius (mm)	Deflection
-26.370	0.000024
-26.365	0.000010
-26.360	0.000004
-26.355	-0.000011
-26.350	-0.000011
-26.345	-0.000011
-26.340	0.000010
-26.335	0.000004
-26.330	-0.000011
-26.325	-0.000011
-26.320	-0.000011
-26.315	0.000016
-26.310	0.000016
-26.305	0.000003
-26.300	0.000010
-26.295	0.000023
-26.290	0.000010
-26.285	0.000023
-26.280	0.000030
-26.275	-0.000024
-26.270	-0.000010
-26.265	0.000010
-26.260	0.000002
-26.255	0.000002
-26.250	0.000009
-26.245	0.000009
-26.240	0.000003
-26.235	0.000036
-26.230	0.000030
-26.225	0.000043
-26.220	-0.000004
-26.215	-0.000025
-26.210	-0.000011
-26.205	0.000016
-26.200	-0.000018
-26.195	0.000015
-26.190	0.000002
-26.185	0.000002
-26.180	0.000022
-26.175	0.000002
-26.170	-0.000005
-26.165	0.000002
-26.160	0.000015
-26.155	-0.000005
-26.150	0.000008
-26.145	0.000002
-26.140	0.000002
-26.135	0.000009
-26.130	0.000008
-26.125	0.000015
-26.120	-0.000012
-26.115	0.000022
-26.110	0.000008
-26.105	0.000029
-26.100	0.000015
-26.095	0.000022
-26.090	0.000015
-26.085	0.000015
-26.080	0.000008
-26.075	0.000015
-26.070	0.000022
-26.065	0.000001
-26.060	0.000028
-26.055	-0.000006
-26.050	0.000014
-26.045	0.000028
-26.040	0.000035
-26.035	0.000035
-26.030	0.000008
-26.025	0.000028
-26.020	0.000021
-26.015	0.000028
-26.010	-0.000006
-26.005	0.000028
-26.000	0.000001
-25.995	0.000001
-25.990	0.000001
-25.985	0.000001
-25.980	0.000014
-25.975	0.000014
-25.970	0.000008
-25.965	0.000007
-25.960	0.000014
-25.955	0.000027
-25.950	0.000041
-25.945	-0.000006
-25.940	-0.000013
-25.935	0.000008
-25.930	0.000021
-25.925	-0.000013
-25.920	0.000014
-25.915	0.000007
-25.910	0.000000
-25.905	0.000007
-25.900	0.000014
-25.895	0.000020
-25.890	0.000061
-25.885	0.000000
-25.880	0.000020
-25.875	0.000014
-25.870	0.000021
-25.865	-0.000013
-25.860	-0.000020
-25.855	0.000000
-25.850	0.000054
-25.845	-0.000007
-25.840	0.000000
-25.835	0.000000
-25.830	0.000020
-25.825	0.000020
-25.820	0.000013
-25.815	0.000027
-25.810	0.000027
-25.805	-0.000007
-25.800	0.000000
-25.795	0.000027
-25.790	-0.000014
-25.785	-0.000007
-25.780	-0.000001
-25.775	-0.000014
-25.770	0.000040
-25.765	0.000020
-25.760	0.000040
-25.755	0.000006
-25.750	0.000020
-25.745	0.000007
-25.740	0.000007
-25.735	-0.000007
-25.730	-0.000021
-25.725	-0.000014
-25.720	0.000033
-25.715	-0.000001
-25.710	0.000006
-25.705	0.000027
-25.700	-0.000001
-25.695	0.000047
-25.690	0.000013
-25.685	0.000033
-25.680	-0.000001
-25.675	0.000006
-25.670	-0.000007
-25.665	0.000020
-25.660	0.000006
-25.655	-0.000008
-25.650	0.000012
-25.645	-0.000008
-25.640	0.000033
-25.635	0.000006
-25.630	-0.000001
-25.625	0.000026
-25.620	0.000033
-25.615	0.000060
-25.610	0.000006
-25.605	0.000006
-25.600	0.000020
-25.595	-0.000001
-25.590	0.000033
-25.585	0.000019
-25.580	0.000006
-25.575	0.000012
-25.570	0.000019
-25.565	0.000012
-25.560	0.000026
-25.555	0.000012
-25.550	0.000026
-25.545	0.000026
-25.540	0.000006
-25.535	0.000006
-25.530	-0.000015
-25.525	0.000019
-25.520	0.000012
-25.515	-0.000009
-25.510	0.000019
-25.505	0.000032
-25.500	0.000025
-25.495	0.000012
-25.490	-0.000015
-25.485	0.000012
-25.480	0.000019
-25.475	0.000033
-25.470	0.000013
-25.465	0.000019
-25.460	0.000032
-25.455	-0.000002
-25.450	0.000052
-25.445	0.000012
-25.440	0.000032
-25.435	0.000012
-25.430	-0.000002
-25.425	0.000046
-25.420	0.000039
-25.415	0.000018
-25.410	0.000012
-25.405	-0.000001
-25.400	-0.000015
-25.395	0.000018
-25.390	0.000018
-25.385	0.000025
-25.380	0.000038
-25.375	0.000039
-25.370	0.000018
-25.365	0.000052
-25.360	0.000032
-25.355	0.000032
-25.350	0.000025
-25.345	0.000012
-25.340	0.000019
-25.335	0.000019
-25.330	-0.000016
-25.325	-0.000023
-25.320	0.000025
-25.315	-0.000002
-25.310	0.000011
-25.305	0.000045
-25.300	0.000045
-25.295	0.000052
-25.290	0.000011
-25.285	0.000011
-25.280	0.000004
-25.275	0.000012
-25.270	0.000012
-25.265	0.000011
-25.260	-0.000009
-25.255	0.000011
-25.250	0.000038
-25.245	0.000011
-25.240	0.000004
-25.235	-0.000016
-25.230	0.000024
-25.225	0.000025
-25.220	0.000024
-25.215	0.000004
-25.210	0.000045
-25.205	0.000012
-25.200	0.000045
-25.195	0.000031
-25.190	0.000011
-25.185	0.000004
-25.180	0.000018
-25.175	-0.000003
-25.170	0.000038
-25.165	0.000031
-25.160	0.000065
-25.155	0.000024
-25.150	0.000024
-25.145	0.000018
-25.140	-0.000016
-25.135	0.000018
-25.130	0.000017
-25.125	0.000004
-25.120	0.000024
-25.115	0.000031
-25.110	0.000038
-25.105	0.000044
-25.100	-0.000010
-25.095	0.000024
-25.090	0.000038
-25.085	0.000024
-25.080	0.000004
-25.075	0.000011
-25.070	0.000025
-25.065	0.000010
-25.060	-0.000010
-25.055	0.000004
-25.050	0.000010
-25.045	0.000044
-25.040	0.000024
-25.035	0.000058
-25.030	0.000004
-25.025	0.000038
-25.020	0.000010
-25.015	0.000037
-25.010	0.000004
-25.005	-0.000009
-25.000	0.000011
-24.995	-0.000017
-24.990	0.000024
-24.985	-0.000010
-24.980	0.000017
-24.975	0.000003
-24.970	0.000010
-24.965	0.000010
-24.960	0.000030
-24.955	0.000024
-24.950	0.000010
-24.945	0.000011
-24.940	0.000011
-24.935	0.000017
-24.930	-0.000004
-24.925	0.000010
-24.920	0.000003
-24.915	0.000003
-24.910	0.000017
-24.905	0.000003
-24.900	0.000051
-24.895	0.000030
-24.890	0.000003
-24.885	0.000017
-24.880	0.000010
-24.875	0.000024
-24.870	-0.000003
-24.865	-0.000003
-24.860	0.000003
-24.855	-0.000011
-24.850	-0.000004
-24.845	0.000010
-24.840	0.000017
-24.835	0.000010
-24.830	0.000003
-24.825	0.000010
-24.820	0.000037
-24.815	0.000023
-24.810	0.000004
-24.805	0.000011
-24.800	0.000010
-24.795	0.000030
-24.790	0.000017
-24.785	0.000030
-24.780	0.000010
-24.775	0.000044
-24.770	0.000037
-24.765	0.000051
-24.760	0.000030
-24.755	-0.000004
-24.750	0.000016
-24.745	0.000010
-24.740	0.000051
-24.735	0.000017
-24.730	0.000016
-24.725	0.000037
-24.720	0.000043
-24.715	-0.000004
-24.710	0.000057
-24.705	0.000023
-24.700	0.000030
-24.695	0.000064
-24.690	0.000016
-24.685	0.000023
-24.680	0.000017
-24.675	0.000031
-24.670	-0.000024
-24.665	0.000010
-24.660	0.000030
-24.655	0.000009
-24.650	-0.000004
-24.645	0.000030
-24.640	0.000010
-24.635	0.000030
-24.630	0.000010
-24.625	-0.000004
-24.620	0.000003
-24.615	0.000016
-24.610	0.000010
-24.605	-0.000003
-24.600	0.000010
-24.595	0.000043
-24.590	0.000002
-24.585	0.000009
-24.580	0.000036
-24.575	0.000036
-24.570	0.000057
-24.565	0.000023
-24.560	0.000016
-24.555	0.000036
-24.550	0.000036
-24.545	0.000016
-24.540	0.000024
-24.535	0.000010
-24.530	0.000009
-24.525	-0.000004
-24.520	0.000009
-24.515	0.000009
-24.510	0.000009
-24.505	0.000036
-24.500	0.000023
-24.495	0.000043
-24.490	0.000084
-24.485	0.000043
-24.480	0.000009
-24.475	0.000009
-24.470	0.000023
-24.465	0.000002
-24.460	0.000002
-24.455	0.000049
-24.450	0.000002
-24.445	-0.000005
-24.440	0.000016
-24.435	0.000029
-24.430	0.000016
-24.425	0.000029
-24.420	0.000016
-24.415	0.000023
-24.410	-0.000004
-24.405	0.000023
-24.400	0.000023
-24.395	0.000022
-24.390	0.000029
-24.385	0.000022
-24.380	0.000002
-24.375	0.000043
-24.370	0.000043
-24.365	0.000009
-24.360	0.000036
-24.355	0.000036
-24.350	0.000049
-24.345	0.000056
-24.340	0.000023
-24.335	0.000029
-24.330	0.000015
-24.325	-0.000012
-24.320	-0.000005
-24.315	0.000022
-24.310	0.000022
-24.305	0.000015
-24.300	0.000036
-24.295	0.000022
-24.290	0.000029
-24.285	0.000036
-24.280	0.000036
-24.275	0.000016
-24.270	0.000023
-24.265	0.000049
-24.260	0.000042
-24.255	0.000015
-24.250	0.000062
-24.245	0.000035
-24.240	0.000008
-24.235	0.000029
-24.230	0.000028
-24.225	0.000056
-24.220	0.000062
-24.215	0.000049
-24.210	0.000029
-24.205	0.000022
-24.200	0.000001
-24.195	0.000015
-24.190	0.000015
-24.185	0.000028
-24.180	0.000048
-24.175	0.000048
-24.170	0.000048
-24.165	0.000055
-24.160	0.000035
-24.155	0.000049
-24.150	0.000021
-24.145	0.000008
-24.140	0.000049
-24.135	0.000015
-24.130	0.000008
-24.125	0.000008
-24.120	0.000028
-24.115	0.000008
-24.110	0.000028
-24.105	0.000062
-24.100	0.000021
-24.095	0.000028
-24.090	0.000021
-24.085	0.000055
-24.080	0.000035
-24.075	0.000028
-24.070	0.000022
-24.065	0.000021
-24.060	-0.000013
-24.055	0.000007
-24.050	0.000014
-24.045	0.000021
-24.040	0.000028
-24.035	0.000028
-24.030	0.000034
-24.025	0.000027
-24.020	0.000055
-24.015	0.000007
-24.010	0.000035
-24.005	0.000021
-24.000	0.000021
-23.995	0.000007
-23.990	0.000014
-23.985	0.000000
-23.980	0.000007
-23.975	0.000021
-23.970	0.000034
-23.965	0.000021
-23.960	0.000034
-23.955	0.000027
-23.950	0.000020
-23.945	0.000021
-23.940	0.000034
-23.935	0.000021
-23.930	0.000013
-23.925	0.000020
-23.920	0.000006
-23.915	0.000006
-23.910	0.000013
-23.905	0.000013
-23.900	0.000027
-23.895	0.000034
-23.890	0.000027
-23.885	-0.000000
-23.880	0.000027
-23.875	0.000020
-23.870	0.000014
-23.865	-0.000007
-23.860	0.000033
-23.855	0.000020
-23.850	0.000027
-23.845	0.000020
-23.840	0.000033
-23.835	0.000033
-23.830	0.000027
-23.825	0.000026
-23.820	0.000013
-23.815	0.000033
-23.810	0.000027
-23.805	0.000027
-23.800	0.000019
-23.795	0.000006
-23.790	0.000019
-23.785	0.000013
-23.780	0.000040
-23.775	0.000047
-23.770	0.000040
-23.765	0.000019
-23.760	0.000053
-23.755	0.000046
-23.750	0.000053
-23.745	0.000054
-23.740	0.000027
-23.735	-0.000028
-23.730	0.000026
-23.725	-0.000008
-23.720	0.000012
-23.715	0.000012
-23.710	0.000019
-23.705	0.000053
-23.700	0.000046
-23.695	0.000012
-23.690	0.000019
-23.685	0.000019
-23.680	0.000005
-23.675	0.000006
-23.670	-0.000008
-23.665	0.000005
-23.660	-0.000015
-23.655	0.000005
-23.650	0.000019
-23.645	-0.000002
-23.640	0.000005
-23.635	0.000026
-23.630	0.000012
-23.625	0.000032
-23.620	0.000019
-23.615	0.000012
-23.610	0.000006
-23.605	0.000006
-23.600	-0.000008
-23.595	-0.000042
-23.590	-0.000008
-23.585	0.000005
-23.580	0.000025
-23.575	-0.000008
-23.570	0.000025
-23.565	0.000025
-23.560	-0.000002
-23.555	0.000025
-23.550	0.000018
-23.545	-0.000002
-23.540	-0.000002
-23.535	-0.000029
-23.530	-0.000036
-23.525	-0.000002
-23.520	-0.000016
-23.515	-0.000016
-23.510	-0.000009
-23.505	-0.000023
-23.500	0.000011
-23.495	-0.000023
-23.490	-0.000036
-23.485	-0.000016
-23.480	-0.000050
-23.475	-0.000029
-23.470	-0.000009
-23.465	-0.000030
-23.460	-0.000010
-23.455	-0.000016
-23.450	-0.000023
-23.445	-0.000003
-23.440	0.000031
-23.435	-0.000023
-23.430	0.000024
-23.425	0.000017
-23.420	-0.000003
-23.415	0.000011
-23.410	-0.000016
-23.405	-0.000002
-23.400	-0.000030
-23.395	-0.000037
-23.390	-0.000010
-23.385	0.000010
-23.380	0.000017
-23.375	0.000024
-23.370	-0.000017
-23.365	-0.000024
-23.360	0.000010
-23.355	0.000003
-23.350	0.000003
-23.345	0.000011
-23.340	0.000004
-23.335	-0.000017
-23.330	-0.000017
-23.325	-0.000024
-23.320	-0.000017
-23.315	-0.000010
-23.310	-0.000031
-23.305	-0.000017
-23.300	-0.000010
-23.295	0.000010
-23.290	-0.000010
-23.285	-0.000004
-23.280	-0.000004
-23.275	0.000003
-23.270	0.000010
-23.265	-0.000004
-23.260	-0.000024
-23.255	-0.000018
-23.250	-0.000004
-23.245	0.000009
-23.240	-0.000011
-23.235	-0.000018
-23.230	0.000023
-23.225	0.000010
-23.220	0.000016
-23.215	-0.000024
-23.210	0.000010
-23.205	-0.000017
-23.200	-0.000024
-23.195	-0.000038
-23.190	-0.000011
-23.185	-0.000004
-23.180	-0.000025
-23.175	-0.000011
-23.170	-0.000018
-23.165	0.000002
-23.160	0.000009
-23.155	0.000002
-23.150	-0.000039
-23.145	-0.000018
-23.140	-0.000024
-23.135	-0.000018
-23.130	-0.000032
-23.125	-0.000005
-23.120	-0.000005
-23.115	-0.000012
-23.110	0.000036
-23.105	-0.000012
-23.100	-0.000005
-23.095	-0.000012
-23.090	0.000009
-23.085	0.000002
-23.080	-0.000005
-23.075	-0.000031
-23.070	-0.000018
-23.065	-0.000005
-23.060	-0.000026
-23.055	-0.000032
-23.050	-0.000032
-23.045	-0.000025
-23.040	0.000015
-23.035	-0.000005
-23.030	0.000022
-23.025	0.000009
-23.020	-0.000005
-23.015	-0.000032
-23.010	0.000002
-23.005	-0.000018
-23.000	-0.000005
-22.995	-0.000019
-22.990	-0.000026
-22.985	-0.000026
-22.980	0.000008
-22.975	0.000008
-22.970	0.000022
-22.965	0.000029
-22.960	0.000001
-22.955	0.000001
-22.950	-0.000012
-22.945	0.000015
-22.940	-0.000046
-22.935	-0.000032
-22.930	-0.000046
-22.925	-0.000033
-22.920	-0.000012
-22.915	0.000022
-22.910	-0.000005
-22.905	-0.000059
-22.900	0.000022
-22.895	0.000008
-22.890	0.000008
-22.885	-0.000012
-22.880	-0.000019
-22.875	-0.000012
-22.870	0.000015
-22.865	-0.000006
-22.860	-0.000040
-22.855	-0.000033
-22.850	-0.000006
-22.845	-0.000013
-22.840	0.000001
-22.835	0.000001
-22.830	0.000008
-22.825	0.000001
-22.820	-0.000026
-22.815	0.000001
-22.810	-0.000039
-22.805	-0.000039
-22.800	-0.000033
-22.795	-0.000013
-22.790	0.000001
-22.785	-0.000013
-22.780	-0.000013
-22.775	-0.000047
-22.770	0.000007
-22.765	0.000008
-22.760	-0.000026
-22.755	0.000007
-22.750	-0.000020
-22.745	-0.000020
-22.740	-0.000039
-22.735	-0.000019
-22.730	-0.000006
-22.725	0.000007
-22.720	-0.000040
-22.715	-0.000034
-22.710	0.000021
-22.705	0.000000
-22.700	-0.000013
-22.695	-0.000006
-22.690	0.000027
-22.685	0.000014
-22.680	0.000007
-22.675	-0.000006
-22.670	0.000001
-22.665	-0.000047
-22.660	-0.000027
-22.655	-0.000027
-22.650	-0.000027
-22.645	-0.000020
-22.640	0.000014
-22.635	0.000007
-22.630	-0.000007
-22.625	-0.000013
-22.620	-0.000014
-22.615	-0.000014
-22.610	-0.000027
-22.605	-0.000027
-22.600	-0.000034
-22.595	-0.000027
-22.590	-0.000007
-22.585	-0.000007
-22.580	-0.000007
-22.575	-0.000014
-22.570	0.000013
-22.565	0.000006
-22.560	-0.000007
-22.555	0.000034
-22.550	0.000006
-22.545	-0.000006
-22.540	-0.000027
-22.535	-0.000027
-22.530	-0.000014
-22.525	-0.000007
-22.520	-0.000041
-22.515	-0.000014
-22.510	-0.000021
-22.505	-0.000014
-22.500	-0.000014
-22.495	-0.000021
-22.490	-0.000028
-22.485	-0.000008
-22.480	-0.000021
-22.475	-0.000007
-22.470	-0.000000
-22.465	-0.000014
-22.460	-0.000041
-22.455	0.000006
-22.450	-0.000055
-22.445	-0.000014
-22.440	-0.000035
-22.435	-0.000008
-22.430	-0.000001
-22.425	-0.000008
-22.420	-0.000008
-22.415	-0.000001
-22.410	-0.000014
-22.405	-0.000028
-22.400	-0.000015
-22.395	-0.000042
-22.390	-0.000021
-22.385	-0.000035
-22.380	-0.000028
-22.375	-0.000048
-22.370	-0.000008
-22.365	0.000033
-22.360	-0.000015
-22.355	-0.000015
-22.350	-0.000001
-22.345	-0.000008
-22.340	-0.000001
-22.335	-0.000042
-22.330	-0.000035
-22.325	-0.000056
-22.320	-0.000035
-22.315	-0.000022
-22.310	-0.000015
-22.305	-0.000008
-22.300	-0.000028
-22.295	-0.000015
-22.290	-0.000008
-22.285	-0.000008
-22.280	-0.000021
-22.275	-0.000041
-22.270	-0.000001
-22.265	-0.000035
-22.260	-0.000022
-22.255	-0.000015
-22.250	-0.000029
-22.245	-0.000029
-22.240	-0.000049
-22.235	-0.000008
-22.230	-0.000008
-22.225	0.000005
-22.220	-0.000015
-22.215	0.000012
-22.210	-0.000028
-22.205	-0.000035
-22.200	-0.000049
-22.195	-0.000029
-22.190	-0.000036
-22.185	-0.000022
-22.180	-0.000009
-22.175	-0.000022
-22.170	-0.000029
-22.165	-0.000029
-22.160	-0.000009
-22.155	-0.000016
-22.150	-0.000036
-22.145	-0.000028
-22.140	-0.000042
-22.135	-0.000042
-22.130	-0.000043
-22.125	-0.000015
-22.120	-0.000009
-22.115	-0.000002
-22.110	-0.000036
-22.105	-0.000015
-22.100	-0.000002
-22.095	-0.000015
-22.090	-0.000029
-22.085	-0.000016
-22.080	-0.000036
-22.075	-0.000008
-22.070	-0.000043
-22.065	-0.000023
-22.060	-0.000016
-22.055	-0.000036
-22.050	-0.000002
-22.045	-0.000029
-22.040	-0.000009
-22.035	-0.000056
-22.030	-0.000002
-22.025	-0.000016
-22.020	0.000004
-22.015	-0.000029
-22.010	-0.000009
-22.005	-0.000015
-22.000	-0.000036
-21.995	-0.000016
-21.990	-0.000029
-21.985	-0.000043
-21.980	-0.000002
-21.975	-0.000009
-21.970	-0.000009
-21.965	0.000004
-21.960	0.000018
-21.955	0.000011
-21.950	-0.000009
-21.945	-0.000029
-21.940	-0.000050
-21.935	-0.000029
-21.930	-0.000016
-21.925	-0.000030
-21.920	-0.000037
-21.915	-0.000016
-21.910	-0.000009
-21.905	-0.000009
-21.900	0.000018
-21.895	-0.000050
-21.890	-0.000009
-21.885	-0.000003
-21.880	-0.000023
-21.875	-0.000036
-21.870	-0.000002
-21.865	-0.000016
-21.860	-0.000044
-21.855	-0.000030
-21.850	-0.000050
-21.845	0.000004
-21.840	-0.000016
-21.835	-0.000009
-21.830	-0.000010
-21.825	-0.000037
-21.820	-0.000030
-21.815	-0.000037
-21.810	-0.000016
-21.805	0.000011
-21.800	-0.000037
-21.795	-0.000010
-21.790	-0.000044
-21.785	-0.000044
-21.780	-0.000030
-21.775	-0.000017
-21.770	-0.000003
-21.765	-0.000010
-21.760	-0.000024
-21.755	-0.000044
-21.750	-0.000030
-21.745	0.000004
-21.740	-0.000030
-21.735	0.000011
-21.730	-0.000044
-21.725	-0.000030
-21.720	-0.000010
-21.715	-0.000003
-21.710	-0.000017
-21.705	-0.000023
-21.700	-0.000017
-21.695	-0.000037
-21.690	-0.000037
-21.685	-0.000003
-21.680	-0.000003
-21.675	-0.000016
-21.670	-0.000037
-21.665	-0.000010
-21.660	-0.000017
-21.655	-0.000051
-21.650	-0.000017
-21.645	0.000003
-21.640	-0.000010
-21.635	-0.000037
-21.630	-0.000024
-21.625	0.000010
-21.620	-0.000031
-21.615	-0.000010
-21.610	-0.000023
-21.605	-0.000030
-21.600	-0.000031
-21.595	-0.000017
-21.590	-0.000011
-21.585	-0.000010
-21.580	0.000010
-21.575	-0.000031
-21.570	0.000044
-21.565	-0.000017
-21.560	0.000003
-21.555	-0.000031
-21.550	0.000003
-21.545	-0.000010
-21.540	-0.000010
-21.535	0.000003
-21.530	-0.000024
-21.525	-0.000031
-21.520	-0.000011
-21.515	-0.000011
-21.510	0.000010
-21.505	0.000003
-21.500	0.000003
-21.495	0.000016
-21.490	0.000016
-21.485	0.000003
-21.480	0.000003
-21.475	0.000010
-21.470	0.000003
-21.465	0.000043
-21.460	0.000044
-21.455	0.000078
-21.450	0.000085
-21.445	0.000160
-21.440	0.000248
-21.435	0.000426
-21.430	0.000672
-21.425	0.001042
-21.420	0.001509
-21.415	0.002137
-21.410	0.002991
-21.405	0.004100
-21.400	0.005408
-21.395	0.007019
-21.390	0.008862
-21.385	0.010993
-21.380	0.013482
-21.375	0.016317
-21.370	0.019358
-21.365	0.022573
-21.360	0.026080
-21.355	0.029720
-21.350	0.033303
-21.345	0.036814
-21.340	0.040565
-21.335	0.044154
-21.330	0.047668
-21.325	0.050208
-21.320	0.050113
-21.315	0.049338
-21.310	0.048641
-21.305	0.046579
-21.300	0.045107
-21.295	0.044239
-21.290	0.043190
-21.285	0.042257
-21.280	0.041605
-21.275	0.040782
-21.270	0.039701
-21.265	0.038690
-21.260	0.037657
-21.255	0.036562
-21.250	0.036006
-21.245	0.035474
-21.240	0.034678
-21.235	0.034187
-21.230	0.033743
-21.225	0.033103
-21.220	0.032540
-21.215	0.032086
-21.210	0.031672
-21.205	0.031226
-21.200	0.030872
-21.195	0.030517
-21.190	0.030351
-21.185	0.030534
-21.180	0.029960
-21.175	0.028863
-21.170	0.028352
-21.165	0.028086
-21.160	0.027735
-21.155	0.027268
-21.150	0.027027
-21.145	0.026864
-21.140	0.026855
-21.135	0.027047
-21.130	0.026792
-21.125	0.026080
-21.120	0.025662
-21.115	0.025462
-21.110	0.025226
-21.105	0.025035
-21.100	0.024884
-21.095	0.024717
-21.090	0.024440
-21.085	0.024084
-21.080	0.023865
-21.075	0.023752
-21.070	0.023559
-21.065	0.023288
-21.060	0.022993
-21.055	0.022799
-21.050	0.022635
-21.045	0.022548
-21.040	0.022488
-21.035	0.022315
-21.030	0.022147
-21.025	0.021957
-21.020	0.021831
-21.015	0.021702
-21.010	0.021605
-21.005	0.021530
-21.000	0.021476
-20.995	0.021366
-20.990	0.021180
-20.985	0.020958
-20.980	0.020815
-20.975	0.020689
-20.970	0.020564
-20.965	0.020469
-20.960	0.020285
-20.955	0.020180
-20.950	0.020027
-20.945	0.019929
-20.940	0.019825
-20.935	0.019732
-20.930	0.019584
-20.925	0.019471
-20.920	0.019347
-20.915	0.019234
-20.910	0.019150
-20.905	0.019035
-20.900	0.018959
-20.895	0.018851
-20.890	0.018740
-20.885	0.018639
-20.880	0.018533
-20.875	0.018461
-20.870	0.018378
-20.865	0.018355
-20.860	0.018256
-20.855	0.018152
-20.850	0.018060
-20.845	0.017937
-20.840	0.017825
-20.835	0.017740
-20.830	0.017586
-20.825	0.017547
-20.820	0.017428
-20.815	0.017372
-20.810	0.017286
-20.805	0.017162
-20.800	0.017067
-20.795	0.017050
-20.790	0.016978
-20.785	0.016943
-20.780	0.016871
-20.775	0.016813
-20.770	0.016738
-20.765	0.016682
-20.760	0.016635
-20.755	0.016492
-20.750	0.016438
-20.745	0.016321
-20.740	0.016240
-20.735	0.016199
-20.730	0.016094
-20.725	0.016032
-20.720	0.015977
-20.715	0.015938
-20.710	0.015858
-20.705	0.015814
-20.700	0.015761
-20.695	0.015694
-20.690	0.015635
-20.685	0.015540
-20.680	0.015489
-20.675	0.015446
-20.670	0.015366
-20.665	0.015333
-20.660	0.015284
-20.655	0.015236
-20.650	0.015171
-20.645	0.015131
-20.640	0.015056
-20.635	0.015005
-20.630	0.014972
-20.625	0.014930
-20.620	0.014903
-20.615	0.014854
-20.610	0.014776
-20.605	0.014731
-20.600	0.014655
-20.595	0.014631
-20.590	0.014585
-20.585	0.014518
-20.580	0.014467
-20.575	0.014432
-20.570	0.014415
-20.565	0.014345
-20.560	0.014276
-20.555	0.014229
-20.550	0.014180
-20.545	0.014122
-20.540	0.014084
-20.535	0.014049
-20.530	0.013995
-20.525	0.013998
-20.520	0.013919
-20.515	0.013870
-20.510	0.013844
-20.505	0.013840
-20.500	0.013746
-20.495	0.013764
-20.490	0.013726
-20.485	0.013714
-20.480	0.013651
-20.475	0.013637
-20.470	0.013573
-20.465	0.013514
-20.460	0.013463
-20.455	0.013433
-20.450	0.013366
-20.445	0.013334
-20.440	0.013325
-20.435	0.013291
-20.430	0.013242
-20.425	0.013214
-20.420	0.013164
-20.415	0.013146
-20.410	0.013074
-20.405	0.013041
-20.400	0.013015
-20.395	0.012965
-20.390	0.012922
-20.385	0.012879
-20.380	0.012867
-20.375	0.012820
-20.370	0.012810
-20.365	0.012785
-20.360	0.012759
-20.355	0.012738
-20.350	0.012658
-20.345	0.012629
-20.340	0.012614
-20.335	0.012560
-20.330	0.012503
-20.325	0.012441
-20.320	0.012435
-20.315	0.012430
-20.310	0.012385
-20.305	0.012345
-20.300	0.012333
-20.295	0.012269
-20.290	0.012259
-20.285	0.012208
-20.280	0.012182
-20.275	0.012149
-20.270	0.012129
-20.265	0.012072
-20.260	0.012097
-20.255	0.012039
-20.250	0.012033
-20.245	0.011995
-20.240	0.012006
-20.235	0.011983
-20.230	0.011965
-20.225	0.011921
-20.220	0.011869
-20.215	0.011843
-20.210	0.011838
-20.205	0.011790
-20.200	0.011763
-20.195	0.011732
-20.190	0.011715
-20.185	0.011701
-20.180	0.011671
-20.175	0.011664
-20.170	0.011649
-20.165	0.011608
-20.160	0.011592
-20.155	0.011537
-20.150	0.011526
-20.145	0.011484
-20.140	0.011419
-20.135	0.011442
-20.130	0.011402
-20.125	0.011377
-20.120	0.011361
-20.115	0.011366
-20.110	0.011313
-20.105	0.011275
-20.100	0.011282
-20.095	0.011207
-20.090	0.011187
-20.085	0.011157
-20.080	0.011131
-20.075	0.011132
-20.070	0.011045
-20.065	0.011057
-20.060	0.011016
-20.055	0.011030
-20.050	0.011022
-20.045	0.010974
-20.040	0.010966
-20.035	0.010931
-20.030	0.010918
-20.025	0.010891
-20.020	0.010883
-20.015	0.010845
-20.010	0.010807
-20.005	0.010790
-20.000	0.010771
-19.995	0.010771
-19.990	0.010715
-19.985	0.010728
-19.980	0.010712
-19.975	0.010657
-19.970	0.010634
-19.965	0.010663
-19.960	0.010615
-19.955	0.010589
-19.950	0.010578
-19.945	0.010554
-19.940	0.010541
-19.935	0.010489
-19.930	0.010479
-19.925	0.010468
-19.920	0.010442
-19.915	0.010445
-19.910	0.010428
-19.905	0.010370
-19.900	0.010420
-19.895	0.010367
-19.890	0.010394
-19.885	0.010334
-19.880	0.010311
-19.875	0.010300
-19.870	0.010276
-19.865	0.010221
-19.860	0.010229
-19.855	0.010189
-19.850	0.010193
-19.845	0.010197
-19.840	0.010167
-19.835	0.010153
-19.830	0.010122
-19.825	0.010106
-19.820	0.010085
-19.815	0.010076
-19.810	0.010024
-19.805	0.009994
-19.800	0.009974
-19.795	0.009978
-19.790	0.009950
-19.785	0.009922
-19.780	0.009908
-19.775	0.009882
-19.770	0.009862
-19.765	0.009867
-19.760	0.009798
-19.755	0.009785
-19.750	0.009774
-19.745	0.009763
-19.740	0.009727
-19.735	0.009728
-19.730	0.009693
-19.725	0.009687
-19.720	0.009662
-19.715	0.009640
-19.710	0.009611
-19.705	0.009619
-19.700	0.009577
-19.695	0.009550
-19.690	0.009542
-19.685	0.009537
-19.680	0.009512
-19.675	0.009444
-19.670	0.009439
-19.665	0.009443
-19.660	0.009420
-19.655	0.009421
-19.650	0.009360
-19.645	0.009385
-19.640	0.009385
-19.635	0.009365
-19.630	0.009321
-19.625	0.009309
-19.620	0.009296
-19.615	0.009299
-19.610	0.009270
-19.605	0.009309
-19.600	0.009248
-19.595	0.009231
-19.590	0.009201
-19.585	0.009201
-19.580	0.009206
-19.575	0.009193
-19.570	0.009197
-19.565	0.009213
-19.560	0.009176
-19.555	0.009198
-19.550	0.009124
-19.545	0.009145
-19.540	0.009114
-19.535	0.009087
-19.530	0.009058
-19.525	0.009056
-19.520	0.009049
-19.515	0.009054
-19.510	0.009037
-19.505	0.009028
-19.500	0.009026
-19.495	0.009037
-19.490	0.009002
-19.485	0.009021
-19.480	0.008990
-19.475	0.008943
-19.470	0.008940
-19.465	0.008918
-19.460	0.008926
-19.455	0.008885
-19.450	0.008894
-19.445	0.008888
-19.440	0.008876
-19.435	0.008815
-19.430	0.008822
-19.425	0.008837
-19.420	0.008788
-19.415	0.008794
-19.410	0.008782
-19.405	0.008733
-19.400	0.008744
-19.395	0.008752
-19.390	0.008737
-19.385	0.008711
-19.380	0.008725
-19.375	0.008707
-19.370	0.008688
-19.365	0.008670
-19.360	0.008635
-19.355	0.008614
-19.350	0.008621
-19.345	0.008634
-19.340	0.008598
-19.335	0.008568
-19.330	0.008590
-19.325	0.008566
-19.320	0.008535
-19.315	0.008554
-19.310	0.008554
-19.305	0.008539
-19.300	0.008544
-19.295	0.008528
-19.290	0.008489
-19.285	0.008499
-19.280	0.008476
-19.275	0.008468
-19.270	0.008439
-19.265	0.008465
-19.260	0.008394
-19.255	0.008454
-19.250	0.008403
-19.245	0.008416
-19.240	0.008408
-19.235	0.008406
-19.230	0.008369
-19.225	0.008362
-19.220	0.008333
-19.215	0.008328
-19.210	0.008307
-19.205	0.008279
-19.200	0.008290
-19.195	0.008270
-19.190	0.008271
-19.185	0.008239
-19.180	0.008245
-19.175	0.008268
-19.170	0.008254
-19.165	0.008269
-19.160	0.008242
-19.155	0.008166
-19.150	0.008204
-19.145	0.008202
-19.140	0.008195
-19.135	0.008153
-19.130	0.008173
-19.125	0.008154
-19.120	0.008141
-19.115	0.008136
-19.110	0.008143
-19.105	0.008145
-19.100	0.008118
-19.095	0.008139
-19.090	0.008080
-19.085	0.008115
-19.080	0.008061
-19.075	0.008041
-19.070	0.008086
-19.065	0.008058
-19.060	0.008026
-19.055	0.008039
-19.050	0.008017
-19.045	0.008003
-19.040	0.008045
-19.035	0.007990
-19.030	0.007983
-19.025	0.007953
-19.020	0.007999
-19.015	0.007919
-19.010	0.007927
-19.005	0.007925
-19.000	0.007896
-18.995	0.007870
-18.990	0.007857
-18.985	0.007864
-18.980	0.007873
-18.975	0.007825
-18.970	0.007819
-18.965	0.007803
-18.960	0.007796
-18.955	0.007783
-18.950	0.007770
-18.945	0.007786
-18.940	0.007763
-18.935	0.007718
-18.930	0.007719
-18.925	0.007707
-18.920	0.007715
-18.915	0.007723
-18.910	0.007716
-18.905	0.007675
-18.900	0.007675
-18.895	0.007668
-18.890	0.007660
-18.885	0.007662
-18.880	0.007604
-18.875	0.007591
-18.870	0.007573
-18.865	0.007566
-18.860	0.007565
-18.855	0.007570
-18.850	0.007542
-18.845	0.007563
-18.840	0.007542
-18.835	0.007564
-18.830	0.007543
-18.825	0.007536
-18.820	0.007507
-18.815	0.007497
-18.810	0.007505
-18.805	0.007466
-18.800	0.007455
-18.795	0.007440
-18.790	0.007445
-18.785	0.007458
-18.780	0.007434
-18.775	0.007452
-18.770	0.007416
-18.765	0.007407
-18.760	0.007426
-18.755	0.007425
-18.750	0.007404
-18.745	0.007404
-18.740	0.007387
-18.735	0.007378
-18.730	0.007377
-18.725	0.007378
-18.720	0.007377
-18.715	0.007315
-18.710	0.007300
-18.705	0.007320
-18.700	0.007332
-18.695	0.007326
-18.690	0.007310
-18.685	0.007270
-18.680	0.007286
-18.675	0.007258
-18.670	0.007275
-18.665	0.007253
-18.660	0.007239
-18.655	0.007217
-18.650	0.007250
-18.645	0.007236
-18.640	0.007208
-18.635	0.007194
-18.630	0.007187
-18.625	0.007219
-18.620	0.007183
-18.615	0.007192
-18.610	0.007166
-18.605	0.007136
-18.600	0.007127
-18.595	0.007147
-18.590	0.007132
-18.585	0.007112
-18.580	0.007078
-18.575	0.007136
-18.570	0.007122
-18.565	0.007093
-18.560	0.007126
-18.555	0.007078
-18.550	0.007094
-18.545	0.007067
-18.540	0.007052
-18.535	0.007057
-18.530	0.007056
-18.525	0.007036
-18.520	0.007022
-18.515	0.007003
-18.510	0.007002
-18.505	0.007037
-18.500	0.007010
-18.495	0.007017
-18.490	0.007002
-18.485	0.007009
-18.480	0.006970
-18.475	0.006957
-18.470	0.006933
-18.465	0.006933
-18.460	0.006940
-18.455	0.006940
-18.450	0.006960
-18.445	0.006933
-18.440	0.006932
-18.435	0.006932
-18.430	0.006917
-18.425	0.006911
-18.420	0.006896
-18.415	0.006919
-18.410	0.006872
-18.405	0.006857
-18.400	0.006868
-18.395	0.006841
-18.390	0.006849
-18.385	0.006829
-18.380	0.006870
-18.375	0.006822
-18.370	0.006829
-18.365	0.006827
-18.360	0.006806
-18.355	0.006807
-18.350	0.006808
-18.345	0.006789
-18.340	0.006746
-18.335	0.006743
-18.330	0.006763
-18.325	0.006721
-18.320	0.006755
-18.315	0.006720
-18.310	0.006762
-18.305	0.006742
-18.300	0.006735
-18.295	0.006708
-18.290	0.006741
-18.285	0.006695
-18.280	0.006689
-18.275	0.006640
-18.270	0.006643
-18.265	0.006637
-18.260	0.006616
-18.255	0.006664
-18.250	0.006630
-18.245	0.006645
-18.240	0.006618
-18.235	0.006660
-18.230	0.006626
-18.225	0.006612
-18.220	0.006620
-18.215	0.006581
-18.210	0.006597
-18.205	0.006534
-18.200	0.006533
-18.195	0.006540
-18.190	0.006561
-18.185	0.006541
-18.180	0.006536
-18.175	0.006552
-18.170	0.006545
-18.165	0.006553
-18.160	0.006533
-18.155	0.006513
-18.150	0.006509
-18.145	0.006489
-18.140	0.006501
-18.135	0.006499
-18.130	0.006514
-18.125	0.006501
-18.120	0.006509
-18.115	0.006505
-18.110	0.006493
-18.105	0.006495
-18.100	0.006495
-18.095	0.006474
-18.090	0.006480
-18.085	0.006480
-18.080	0.006448
-18.075	0.006435
-18.070	0.006446
-18.065	0.006447
-18.060	0.006447
-18.055	0.006440
-18.050	0.006446
-18.045	0.006445
-18.040	0.006416
-18.035	0.006422
-18.030	0.006400
-18.025	0.006378
-18.020	0.006435
-18.015	0.006388
-18.010	0.006366
-18.005	0.006362
-18.000	0.006353
-17.995	0.006345
-17.990	0.006352
-17.985	0.006345
-17.980	0.006344
-17.975	0.006329
-17.970	0.006343
-17.965	0.006307
-17.960	0.006327
-17.955	0.006307
-17.950	0.006286
-17.945	0.006288
-17.940	0.006258
-17.935	0.006283
-17.930	0.006261
-17.925	0.006254
-17.920	0.006255
-17.915	0.006241
-17.910	0.006254
-17.905	0.006241
-17.900	0.006246
-17.895	0.006219
-17.890	0.006233
-17.885	0.006228
-17.880	0.006215
-17.875	0.006201
-17.870	0.006192
-17.865	0.006198
-17.860	0.006192
-17.855	0.006177
-17.850	0.006196
-17.845	0.006170
-17.840	0.006176
-17.835	0.006163
-17.830	0.006160
-17.825	0.006189
-17.820	0.006182
-17.815	0.006150
-17.810	0.006129
-17.805	0.006108
-17.800	0.006146
-17.795	0.006097
-17.790	0.006145
-17.785	0.006145
-17.780	0.006131
-17.775	0.006131
-17.770	0.006123
-17.765	0.006151
-17.760	0.006108
-17.755	0.006081
-17.750	0.006110
-17.745	0.006063
-17.740	0.006053
-17.735	0.006016
-17.730	0.006050
-17.725	0.006043
-17.720	0.006037
-17.715	0.006044
-17.710	0.006003
-17.705	0.006036
-17.700	0.006015
-17.695	0.006016
-17.690	0.005995
-17.685	0.005980
-17.680	0.005982
-17.675	0.005968
-17.670	0.005965
-17.665	0.005944
-17.660	0.005986
-17.655	0.005924
-17.650	0.005952
-17.645	0.005966
-17.640	0.005945
-17.635	0.005946
-17.630	0.005904
-17.625	0.005920
-17.620	0.005907
-17.615	0.005923
-17.610	0.005889
-17.605	0.005872
-17.600	0.005871
-17.595	0.005886
-17.590	0.005879
-17.585	0.005860
-17.580	0.005880
-17.575	0.005900
-17.570	0.005873
-17.565	0.005846
-17.560	0.005823
-17.555	0.005851
-17.550	0.005852
-17.545	0.005840
-17.540	0.005810
-17.535	0.005802
-17.530	0.005793
-17.525	0.005787
-17.520	0.005814
-17.515	0.005808
-17.510	0.005816
-17.505	0.005781
-17.500	0.005801
-17.495	0.005807
-17.490	0.005786
-17.485	0.005789
-17.480	0.005747
-17.475	0.005725
-17.470	0.005742
-17.465	0.005742
-17.460	0.005748
-17.455	0.005728
-17.450	0.005728
-17.445	0.005755
-17.440	0.005743
-17.435	0.005715
-17.430	0.005735
-17.425	0.005706
-17.420	0.005700
-17.415	0.005696
-17.410	0.005662
-17.405	0.005685
-17.400	0.005677
-17.395	0.005684
-17.390	0.005698
-17.385	0.005651
-17.380	0.005664
-17.375	0.005651
-17.370	0.005664
-17.365	0.005663
-17.360	0.005662
-17.355	0.005641
-17.350	0.005663
-17.345	0.005663
-17.340	0.005648
-17.335	0.005612
-17.330	0.005604
-17.325	0.005619
-17.320	0.005618
-17.315	0.005639
-17.310	0.005618
-17.305	0.005597
-17.300	0.005583
-17.295	0.005631
-17.290	0.005588
-17.285	0.005590
-17.280	0.005576
-17.275	0.005596
-17.270	0.005546
-17.265	0.005533
-17.260	0.005567
-17.255	0.005554
-17.250	0.005547
-17.245	0.005561
-17.240	0.005547
-17.235	0.005547
-17.230	0.005532
-17.225	0.005552
-17.220	0.005519
-17.215	0.005514
-17.210	0.005494
-17.205	0.005492
-17.200	0.005492
-17.195	0.005445
-17.190	0.005472
-17.185	0.005474
-17.180	0.005474
-17.175	0.005516
-17.170	0.005501
-17.165	0.005467
-17.160	0.005494
-17.155	0.005473
-17.150	0.005460
-17.145	0.005413
-17.140	0.005446
-17.135	0.005443
-17.130	0.005438
-17.125	0.005424
-17.120	0.005430
-17.115	0.005423
-17.110	0.005437
-17.105	0.005444
-17.100	0.005402
-17.095	0.005388
-17.090	0.005422
-17.085	0.005417
-17.080	0.005410
-17.075	0.005403
-17.070	0.005387
-17.065	0.005394
-17.060	0.005374
-17.055	0.005395
-17.050	0.005374
-17.045	0.005367
-17.040	0.005380
-17.035	0.005373
-17.030	0.005346
-17.025	0.005366
-17.020	0.005352
-17.015	0.005367
-17.010	0.005347
-17.005	0.005317
-17.000	0.005302
-16.995	0.005316
-16.990	0.005317
-16.985	0.005344
-16.980	0.005317
-16.975	0.005304
-16.970	0.005310
-16.965	0.005304
-16.960	0.005297
-16.955	0.005305
-16.950	0.005313
-16.945	0.005273
-16.940	0.005278
-16.935	0.005235
-16.930	0.005276
-16.925	0.005222
-16.920	0.005269
-16.915	0.005256
-16.910	0.005270
-16.905	0.005292
-16.900	0.005271
-16.895	0.005263
-16.890	0.005256
-16.885	0.005216
-16.880	0.005225
-16.875	0.005231
-16.870	0.005201
-16.865	0.005189
-16.860	0.005196
-16.855	0.005203
-16.850	0.005184
-16.845	0.005185
-16.840	0.005234
-16.835	0.005206
-16.830	0.005207
-16.825	0.005222
-16.820	0.005195
-16.815	0.005204
-16.810	0.005183
-16.805	0.005174
-16.800	0.005132
-16.795	0.005153
-16.790	0.005152
-16.785	0.005168
-16.780	0.005120
-16.775	0.005161
-16.770	0.005140
-16.765	0.005127
-16.760	0.005119
-16.755	0.005118
-16.750	0.005134
-16.745	0.005135
-16.740	0.005125
-16.735	0.005117
-16.730	0.005097
-16.725	0.005085
-16.720	0.005105
-16.715	0.005092
-16.710	0.005085
-16.705	0.005078
-16.700	0.005105
-16.695	0.005077
-16.690	0.005070
-16.685	0.005058
-16.680	0.005045
-16.675	0.005045
-16.670	0.005035
-16.665	0.005022
-16.660	0.005015
-16.655	0.005010
-16.650	0.005010
-16.645	0.005038
-16.640	0.004997
-16.635	0.005046
-16.630	0.005031
-16.625	0.004990
-16.620	0.005004
-16.615	0.004985
-16.610	0.004985
-16.605	0.004962
-16.600	0.004948
-16.595	0.004942
-16.590	0.004976
-16.585	0.004964
-16.580	0.004964
-16.575	0.004950
-16.570	0.004942
-16.565	0.004956
-16.560	0.004956
-16.555	0.004922
-16.550	0.004924
-16.545	0.004911
-16.540	0.004909
-16.535	0.004888
-16.530	0.004894
-16.525	0.004915
-16.520	0.004874
-16.515	0.004908
-16.510	0.004930
-16.505	0.004916
-16.500	0.004915
-16.495	0.004894
-16.490	0.004893
-16.485	0.004916
-16.480	0.004888
-16.475	0.004853
-16.470	0.004884
-16.465	0.004869
-16.460	0.004855
-16.455	0.004856
-16.450	0.004877
-16.445	0.004877
-16.440	0.004871
-16.435	0.004870
-16.430	0.004863
-16.425	0.004849
-16.420	0.004829
-16.415	0.004809
-16.410	0.004836
-16.405	0.004813
-16.400	0.004840
-16.395	0.004814
-16.390	0.004841
-16.385	0.004861
-16.380	0.004827
-16.375	0.004834
-16.370	0.004820
-16.365	0.004806
-16.360	0.004804
-16.355	0.004812
-16.350	0.004827
-16.345	0.004800
-16.340	0.004804
-16.335	0.004755
-16.330	0.004809
-16.325	0.004761
-16.320	0.004775
-16.315	0.004817
-16.310	0.004796
-16.305	0.004783
-16.300	0.004776
-16.295	0.004804
-16.290	0.004748
-16.285	0.004764
-16.280	0.004759
-16.275	0.004750
-16.270	0.004734
-16.265	0.004714
-16.260	0.004762
-16.255	0.004756
-16.250	0.004762
-16.245	0.004750
-16.240	0.004750
-16.235	0.004729
-16.230	0.004729
-16.225	0.004715
-16.220	0.004710
-16.215	0.004685
-16.210	0.004678
-16.205	0.004717
-16.200	0.004682
-16.195	0.004690
-16.190	0.004697
-16.185	0.004697
-16.180	0.004697
-16.175	0.004691
-16.170	0.004691
-16.165	0.004692
-16.160	0.004666
-16.155	0.004674
-16.150	0.004641
-16.145	0.004689
-16.140	0.004667
-16.135	0.004681
-16.130	0.004647
-16.125	0.004670
-16.120	0.004649
-16.115	0.004663
-16.110	0.004637
-16.105	0.004631
-16.100	0.004679
-16.095	0.004652
-16.090	0.004652
-16.085	0.004633
-16.080	0.004653
-16.075	0.004618
-16.070	0.004596
-16.065	0.004637
-16.060	0.004637
-16.055	0.004623
-16.050	0.004623
-16.045	0.004596
-16.040	0.004602
-16.035	0.004602
-16.030	0.004608
-16.025	0.004602
-16.020	0.004610
-16.015	0.004578
-16.010	0.004611
-16.005	0.004581
-16.000	0.004581
-15.995	0.004589
-15.990	0.004588
-15.985	0.004581
-15.980	0.004580
-15.975	0.004572
-15.970	0.004572
-15.965	0.004578
-15.960	0.004578
-15.955	0.004578
-15.950	0.004586
-15.945	0.004544
-15.940	0.004522
-15.935	0.004569
-15.930	0.004554
-15.925	0.004520
-15.920	0.004539
-15.915	0.004552
-15.910	0.004546
-15.905	0.004512
-15.900	0.004531
-15.895	0.004545
-15.890	0.004530
-15.885	0.004505
-15.880	0.004505
-15.875	0.004482
-15.870	0.004460
-15.865	0.004500
-15.860	0.004507
-15.855	0.004480
-15.850	0.004486
-15.845	0.004534
-15.840	0.004492
-15.835	0.004492
-15.830	0.004497
-15.825	0.004476
-15.820	0.004456
-15.815	0.004443
-15.810	0.004402
-15.805	0.004448
-15.800	0.004433
-15.795	0.004447
-15.790	0.004433
-15.785	0.004454
-15.780	0.004454
-15.775	0.004407
-15.770	0.004448
-15.765	0.004406
-15.760	0.004426
-15.755	0.004434
-15.750	0.004422
-15.745	0.004422
-15.740	0.004406
-15.735	0.004385
-15.730	0.004384
-15.725	0.004378
-15.720	0.004399
-15.715	0.004406
-15.710	0.004386
-15.705	0.004401
-15.700	0.004393
-15.695	0.004420
-15.690	0.004405
-15.685	0.004374
-15.680	0.004381
-15.675	0.004353
-15.670	0.004359
-15.665	0.004358
-15.660	0.004379
-15.655	0.004366
-15.650	0.004339
-15.645	0.004346
-15.640	0.004333
-15.635	0.004367
-15.630	0.004340
-15.625	0.004361
-15.620	0.004328
-15.615	0.004350
-15.610	0.004315
-15.605	0.004314
-15.600	0.004314
-15.595	0.004341
-15.590	0.004328
-15.585	0.004314
-15.580	0.004301
-15.575	0.004328
-15.570	0.004320
-15.565	0.004320
-15.560	0.004298
-15.555	0.004279
-15.550	0.004287
-15.545	0.004267
-15.540	0.004265
-15.535	0.004278
-15.530	0.004284
-15.525	0.004250
-15.520	0.004271
-15.515	0.004299
-15.510	0.004258
-15.505	0.004272
-15.500	0.004286
-15.495	0.004273
-15.490	0.004265
-15.485	0.004282
-15.480	0.004234
-15.475	0.004240
-15.470	0.004245
-15.465	0.004259
-15.460	0.004258
-15.455	0.004238
-15.450	0.004244
-15.445	0.004251
-15.440	0.004224
-15.435	0.004244
-15.430	0.004250
-15.425	0.004264
-15.420	0.004196
-15.415	0.004232
-15.410	0.004190
-15.405	0.004189
-15.400	0.004187
-15.395	0.004181
-15.390	0.004208
-15.385	0.004202
-15.380	0.004222
-15.375	0.004188
-15.370	0.004166
-15.365	0.004179
-15.360	0.004179
-15.355	0.004201
-15.350	0.004175
-15.345	0.004183
-15.340	0.004146
-15.335	0.004139
-15.330	0.004166
-15.325	0.004153
-15.320	0.004139
-15.315	0.004160
-15.310	0.004188
-15.305	0.004147
-15.300	0.004154
-15.295	0.004146
-15.290	0.004145
-15.285	0.004127
-15.280	0.004100
-15.275	0.004127
-15.270	0.004119
-15.265	0.004133
-15.260	0.004113
-15.255	0.004120
-15.250	0.004114
-15.245	0.004108
-15.240	0.004123
-15.235	0.004144
-15.230	0.004081
-15.225	0.004095
-15.220	0.004089
-15.215	0.004078
-15.210	0.004092
-15.205	0.004091
-15.200	0.004071
-15.195	0.004072
-15.190	0.004080
-15.185	0.004068
-15.180	0.004075
-15.175	0.004083
-15.170	0.004070
-15.165	0.004050
-15.160	0.004092
-15.155	0.004052
-15.150	0.004042
-15.145	0.004050
-15.140	0.004049
-15.135	0.004049
-15.130	0.004036
-15.125	0.004071
-15.120	0.004016
-15.115	0.004052
-15.110	0.004051
-15.105	0.004031
-15.100	0.004044
-15.095	0.004044
-15.090	0.004024
-15.085	0.004039
-15.080	0.004019
-15.075	0.004004
-15.070	0.004030
-15.065	0.004044
-15.060	0.004024
-15.055	0.004032
-15.050	0.004046
-15.045	0.004060
-15.040	0.004033
-15.035	0.004046
-15.030	0.004066
-15.025	0.004031
-15.020	0.003990
-15.015	0.004026
-15.010	0.004011
-15.005	0.004023
-15.000	0.004015
-14.995	0.004014
-14.990	0.004033
-14.985	0.003999
-14.980	0.004005
-14.975	0.004018
-14.970	0.004017
-14.965	0.004003
-14.960	0.004021
-14.955	0.004022
-14.950	0.003967
-14.945	0.004015
-14.940	0.003963
-14.935	0.003977
-14.930	0.003983
-14.925	0.003963
-14.920	0.003941
-14.915	0.003970
-14.910	0.003988
-14.905	0.003967
-14.900	0.003946
-14.895	0.003986
-14.890	0.003965
-14.885	0.003945
-14.880	0.003959
-14.875	0.003937
-14.870	0.003915
-14.865	0.003941
-14.860	0.003941
-14.855	0.003920
-14.850	0.003919
-14.845	0.003940
-14.840	0.003898
-14.835	0.003932
-14.830	0.003939
-14.825	0.003925
-14.820	0.003926
-14.815	0.003885
-14.810	0.003884
-14.805	0.003910
-14.800	0.003904
-14.795	0.003883
-14.790	0.003890
-14.785	0.003877
-14.780	0.003890
-14.775	0.003877
-14.770	0.003890
-14.765	0.003890
-14.760	0.003861
-14.755	0.003856
-14.750	0.003871
-14.745	0.003844
-14.740	0.003848
-14.735	0.003835
-14.730	0.003869
-14.725	0.003829
-14.720	0.003849
-14.715	0.003822
-14.710	0.003843
-14.705	0.003857
-14.700	0.003863
-14.695	0.003856
-14.690	0.003828
-14.685	0.003844
-14.680	0.003838
-14.675	0.003851
-14.670	0.003802
-14.665	0.003830
-14.660	0.003794
-14.655	0.003809
-14.650	0.003823
-14.645	0.003816
-14.640	0.003823
-14.635	0.003817
-14.630	0.003836
-14.625	0.003794
-14.620	0.003824
-14.615	0.003803
-14.610	0.003761
-14.605	0.003814
-14.600	0.003793
-14.595	0.003800
-14.590	0.003773
-14.585	0.003780
-14.580	0.003786
-14.575	0.003787
-14.570	0.003813
-14.565	0.003786
-14.560	0.003785
-14.555	0.003780
-14.550	0.003788
-14.545	0.003772
-14.540	0.003750
-14.535	0.003743
-14.530	0.003763
-14.525	0.003764
-14.520	0.003784
-14.515	0.003743
-14.510	0.003763
-14.505	0.003730
-14.500	0.003756
-14.495	0.003756
-14.490	0.003748
-14.485	0.003757
-14.480	0.003729
-14.475	0.003721
-14.470	0.003720
-14.465	0.003740
-14.460	0.003740
-14.455	0.003740
-14.450	0.003726
-14.445	0.003740
-14.440	0.003699
-14.435	0.003712
-14.430	0.003719
-14.425	0.003711
-14.420	0.003712
-14.415	0.003706
-14.410	0.003704
-14.405	0.003696
-14.400	0.003676
-14.395	0.003717
-14.390	0.003689
-14.385	0.003676
-14.380	0.003710
-14.375	0.003696
-14.370	0.003716
-14.365	0.003668
-14.360	0.003689
-14.355	0.003675
-14.350	0.003676
-14.345	0.003649
-14.340	0.003640
-14.335	0.003660
-14.330	0.003660
-14.325	0.003654
-14.320	0.003674
-14.315	0.003647
-14.310	0.003660
-14.305	0.003660
-14.300	0.003674
-14.295	0.003695
-14.290	0.003627
-14.285	0.003649
-14.280	0.003641
-14.275	0.003599
-14.270	0.003626
-14.265	0.003619
-14.260	0.003639
-14.255	0.003619
-14.250	0.003640
-14.245	0.003626
-14.240	0.003612
-14.235	0.003613
-14.230	0.003640
-14.225	0.003612
-14.220	0.003620
-14.215	0.003628
-14.210	0.003593
-14.205	0.003578
-14.200	0.003585
-14.195	0.003605
-14.190	0.003598
-14.185	0.003625
-14.180	0.003584
-14.175	0.003598
-14.170	0.003619
-14.165	0.003591
-14.160	0.003591
-14.155	0.003585
-14.150	0.003565
-14.145	0.003572
-14.140	0.003557
-14.135	0.003563
-14.130	0.003578
-14.125	0.003585
-14.120	0.003585
-14.115	0.003578
-14.110	0.003536
-14.105	0.003571
-14.100	0.003550
-14.095	0.003563
-14.090	0.003562
-14.085	0.003557
-14.080	0.003523
-14.075	0.003528
-14.070	0.003555
-14.065	0.003549
-14.060	0.003528
-14.055	0.003528
-14.050	0.003529
-14.045	0.003535
-14.040	0.003521
-14.035	0.003466
-14.030	0.003528
-14.025	0.003548
-14.020	0.003508
-14.015	0.003502
-14.010	0.003520
-14.005	0.003520
-14.000	0.003513
-13.995	0.003548
-13.990	0.003493
-13.985	0.003534
-13.980	0.003507
-13.975	0.003514
-13.970	0.003527
-13.965	0.003500
-13.960	0.003499
-13.955	0.003486
-13.950	0.003501
-13.945	0.003501
-13.940	0.003465
-13.935	0.003479
-13.930	0.003451
-13.925	0.003472
-13.920	0.003450
-13.915	0.003458
-13.910	0.003465
-13.905	0.003486
-13.900	0.003479
-13.895	0.003431
-13.890	0.003459
-13.885	0.003502
-13.880	0.003447
-13.875	0.003438
-13.870	0.003431
-13.865	0.003445
-13.860	0.003451
-13.855	0.003445
-13.850	0.003438
-13.845	0.003432
-13.840	0.003458
-13.835	0.003465
-13.830	0.003436
-13.825	0.003416
-13.820	0.003417
-13.815	0.003432
-13.810	0.003417
-13.805	0.003436
-13.800	0.003408
-13.795	0.003436
-13.790	0.003408
-13.785	0.003450
-13.780	0.003415
-13.775	0.003429
-13.770	0.003408
-13.765	0.003408
-13.760	0.003428
-13.755	0.003395
-13.750	0.003458
-13.745	0.003389
-13.740	0.003407
-13.735	0.003394
-13.730	0.003414
-13.725	0.003393
-13.720	0.003394
-13.715	0.003394
-13.710	0.003407
-13.705	0.003414
-13.700	0.003414
-13.695	0.003393
-13.690	0.003379
-13.685	0.003380
-13.680	0.003380
-13.675	0.003378
-13.670	0.003384
-13.665	0.003364
-13.660	0.003399
-13.655	0.003357
-13.650	0.003378
-13.645	0.003379
-13.640	0.003365
-13.635	0.003371
-13.630	0.003365
-13.625	0.003352
-13.620	0.003339
-13.615	0.003353
-13.610	0.003345
-13.605	0.003358
-13.600	0.003352
-13.595	0.003352
-13.590	0.003332
-13.585	0.003353
-13.580	0.003339
-13.575	0.003346
-13.570	0.003380
-13.565	0.003346
-13.560	0.003346
-13.555	0.003320
-13.550	0.003314
-13.545	0.003335
-13.540	0.003284
-13.535	0.003325
-13.530	0.003305
-13.525	0.003327
-13.520	0.003306
-13.515	0.003341
-13.510	0.003308
-13.505	0.003308
-13.500	0.003322
-13.495	0.003328
-13.490	0.003302
-13.485	0.003276
-13.480	0.003263
-13.475	0.003296
-13.470	0.003282
-13.465	0.003283
-13.460	0.003283
-13.455	0.003277
-13.450	0.003271
-13.445	0.003292
-13.440	0.003292
-13.435	0.003292
-13.430	0.003264
-13.425	0.003265
-13.420	0.003280
-13.415	0.003240
-13.410	0.003260
-13.405	0.003259
-13.400	0.003252
-13.395	0.003266
-13.390	0.003272
-13.385	0.003252
-13.380	0.003265
-13.375	0.003266
-13.370	0.003293
-13.365	0.003252
-13.360	0.003245
-13.355	0.003273
-13.350	0.003233
-13.345	0.003226
-13.340	0.003231
-13.335	0.003251
-13.330	0.003238
-13.325	0.003224
-13.320	0.003244
-13.315	0.003251
-13.310	0.003286
-13.305	0.003259
-13.300	0.003230
-13.295	0.003223
-13.290	0.003209
-13.285	0.003231
-13.280	0.003238
-13.275	0.003250
-13.270	0.003215
-13.265	0.003215
-13.260	0.003207
-13.255	0.003200
-13.250	0.003256
-13.245	0.003249
-13.240	0.003222
-13.235	0.003235
-13.230	0.003214
-13.225	0.003207
-13.220	0.003202
-13.215	0.003195
-13.210	0.003200
-13.205	0.003199
-13.200	0.003179
-13.195	0.003213
-13.190	0.003178
-13.185	0.003192
-13.180	0.003219
-13.175	0.003199
-13.170	0.003198
-13.165	0.003177
-13.160	0.003204
-13.155	0.003185
-13.150	0.003179
-13.145	0.003199
-13.140	0.003170
-13.135	0.003163
-13.130	0.003176
-13.125	0.003156
-13.120	0.003156
-13.115	0.003156
-13.110	0.003190
-13.105	0.003135
-13.100	0.003141
-13.095	0.003156
-13.090	0.003157
-13.085	0.003151
-13.080	0.003123
-13.075	0.003115
-13.070	0.003108
-13.065	0.003128
-13.060	0.003129
-13.055	0.003122
-13.050	0.003137
-13.045	0.003143
-13.040	0.003122
-13.035	0.003108
-13.030	0.003142
-13.025	0.003115
-13.020	0.003144
-13.015	0.003104
-13.010	0.003075
-13.005	0.003115
-13.000	0.003081
-12.995	0.003074
-12.990	0.003109
-12.985	0.003108
-12.980	0.003123
-12.975	0.003109
-12.970	0.003095
-12.965	0.003095
-12.960	0.003095
-12.955	0.003104
-12.950	0.003097
-12.945	0.003076
-12.940	0.003095
-12.935	0.003054
-12.930	0.003068
-12.925	0.003054
-12.920	0.003068
-12.915	0.003082
-12.910	0.003096
-12.905	0.003082
-12.900	0.003061
-12.895	0.003081
-12.890	0.003082
-12.885	0.003048
-12.880	0.003035
-12.875	0.003020
-12.870	0.003047
-12.865	0.003040
-12.860	0.003067
-12.855	0.003061
-12.850	0.003046
-12.845	0.003060
-12.840	0.003052
-12.835	0.003019
-12.830	0.003046
-12.825	0.003040
-12.820	0.003040
-12.815	0.003047
-12.810	0.003018
-12.805	0.003031
-12.800	0.003024
-12.795	0.003011
-12.790	0.003011
-12.785	0.003018
-12.780	0.003059
-12.775	0.003052
-12.770	0.003038
-12.765	0.003024
-12.760	0.003010
-12.755	0.003038
-12.750	0.003011
-12.745	0.002983
-12.740	0.003023
-12.735	0.002996
-12.730	0.002988
-12.725	0.002989
-12.720	0.003037
-12.715	0.003017
-12.710	0.003030
-12.705	0.003010
-12.700	0.002996
-12.695	0.003002
-12.690	0.002996
-12.685	0.002977
-12.680	0.002984
-12.675	0.002968
-12.670	0.002967
-12.665	0.003009
-12.660	0.002974
-12.655	0.002967
-12.650	0.002988
-12.645	0.002974
-12.640	0.003001
-12.635	0.002960
-12.630	0.002980
-12.625	0.002994
-12.620	0.002974
-12.615	0.002954
-12.610	0.002987
-12.605	0.002952
-12.600	0.002959
-12.595	0.002966
-12.590	0.002952
-12.585	0.002980
-12.580	0.002973
-12.575	0.002946
-12.570	0.003000
-12.565	0.002973
-12.560	0.002966
-12.555	0.002961
-12.550	0.002941
-12.545	0.002940
-12.540	0.002931
-12.535	0.002939
-12.530	0.002918
-12.525	0.002945
-12.520	0.002939
-12.515	0.002932
-12.510	0.002939
-12.505	0.002938
-12.500	0.002931
-12.495	0.002944
-12.490	0.002924
-12.485	0.002906
-12.480	0.002898
-12.475	0.002965
-12.470	0.002917
-12.465	0.002897
-12.460	0.002924
-12.455	0.002945
-12.450	0.002931
-12.445	0.002917
-12.440	0.002917
-12.435	0.002917
-12.430	0.002917
-12.425	0.002883
-12.420	0.002905
-12.415	0.002891
-12.410	0.002883
-12.405	0.002903
-12.400	0.002855
-12.395	0.002903
-12.390	0.002897
-12.385	0.002904
-12.380	0.002903
-12.375	0.002883
-12.370	0.002875
-12.365	0.002888
-12.360	0.002861
-12.355	0.002883
-12.350	0.002869
-12.345	0.002862
-12.340	0.002860
-12.335	0.002881
-12.330	0.002874
-12.325	0.002867
-12.320	0.002874
-12.315	0.002854
-12.310	0.002881
-12.305	0.002874
-12.300	0.002860
-12.295	0.002860
-12.290	0.002861
-12.285	0.002862
-12.280	0.002847
-12.275	0.002859
-12.270	0.002832
-12.265	0.002853
-12.260	0.002825
-12.255	0.002832
-12.250	0.002853
-12.245	0.002845
-12.240	0.002818
-12.235	0.002838
-12.230	0.002851
-12.225	0.002825
-12.220	0.002812
-12.215	0.002833
-12.210	0.002817
-12.205	0.002796
-12.200	0.002803
-12.195	0.002810
-12.190	0.002802
-12.185	0.002809
-12.180	0.002789
-12.175	0.002810
-12.170	0.002803
-12.165	0.002816
-12.160	0.002823
-12.155	0.002818
-12.150	0.002790
-12.145	0.002775
-12.140	0.002808
-12.135	0.002809
-12.130	0.002788
-12.125	0.002794
-12.120	0.002815
-12.115	0.002822
-12.110	0.002808
-12.105	0.002808
-12.100	0.002794
-12.095	0.002841
-12.090	0.002815
-12.085	0.002788
-12.080	0.002754
-12.075	0.002793
-12.070	0.002772
-12.065	0.002772
-12.060	0.002786
-12.055	0.002778
-12.050	0.002772
-12.045	0.002793
-12.040	0.002765
-12.035	0.002765
-12.030	0.002751
-12.025	0.002758
-12.020	0.002739
-12.015	0.002746
-12.010	0.002765
-12.005	0.002751
-12.000	0.002764
-11.995	0.002765
-11.990	0.002771
-11.985	0.002744
-11.980	0.002744
-11.975	0.002758
-11.970	0.002730
-11.965	0.002757
-11.960	0.002736
-11.955	0.002745
-11.950	0.002739
-11.945	0.002725
-11.940	0.002744
-11.935	0.002716
-11.930	0.002756
-11.925	0.002736
-11.920	0.002709
-11.915	0.002743
-11.910	0.002743
-11.905	0.002709
-11.900	0.002715
-11.895	0.002701
-11.890	0.002716
-11.885	0.002738
-11.880	0.002730
-11.875	0.002702
-11.870	0.002715
-11.865	0.002722
-11.860	0.002736
-11.855	0.002709
-11.850	0.002729
-11.845	0.002736
-11.840	0.002708
-11.835	0.002708
-11.830	0.002735
-11.825	0.002708
-11.820	0.002695
-11.815	0.002696
-11.810	0.002715
-11.805	0.002681
-11.800	0.002687
-11.795	0.002708
-11.790	0.002688
-11.785	0.002667
-11.780	0.002674
-11.775	0.002715
-11.770	0.002687
-11.765	0.002674
-11.760	0.002687
-11.755	0.002709
-11.750	0.002662
-11.745	0.002675
-11.740	0.002660
-11.735	0.002688
-11.730	0.002674
-11.725	0.002674
-11.720	0.002668
-11.715	0.002709
-11.710	0.002688
-11.705	0.002661
-11.700	0.002674
-11.695	0.002674
-11.690	0.002641
-11.685	0.002649
-11.680	0.002676
-11.675	0.002661
-11.670	0.002640
-11.665	0.002640
-11.660	0.002640
-11.655	0.002647
-11.650	0.002647
-11.645	0.002674
-11.640	0.002647
-11.635	0.002627
-11.630	0.002640
-11.625	0.002669
-11.620	0.002629
-11.615	0.002622
-11.610	0.002634
-11.605	0.002634
-11.600	0.002613
-11.595	0.002606
-11.590	0.002593
-11.585	0.002641
-11.580	0.002627
-11.575	0.002642
-11.570	0.002654
-11.565	0.002640
-11.560	0.002626
-11.555	0.002614
-11.550	0.002601
-11.545	0.002642
-11.540	0.002600
-11.535	0.002607
-11.530	0.002606
-11.525	0.002600
-11.520	0.002620
-11.515	0.002607
-11.510	0.002600
-11.505	0.002587
-11.500	0.002614
-11.495	0.002615
-11.490	0.002601
-11.485	0.002568
-11.480	0.002608
-11.475	0.002600
-11.470	0.002579
-11.465	0.002566
-11.460	0.002600
-11.455	0.002608
-11.450	0.002601
-11.445	0.002621
-11.440	0.002573
-11.435	0.002566
-11.430	0.002586
-11.425	0.002580
-11.420	0.002560
-11.415	0.002615
-11.410	0.002579
-11.405	0.002566
-11.400	0.002572
-11.395	0.002558
-11.390	0.002572
-11.385	0.002559
-11.380	0.002579
-11.375	0.002558
-11.370	0.002586
-11.365	0.002551
-11.360	0.002565
-11.355	0.002566
-11.350	0.002546
-11.345	0.002551
-11.340	0.002537
-11.335	0.002558
-11.330	0.002545
-11.325	0.002545
-11.320	0.002538
-11.315	0.002566
-11.310	0.002538
-11.305	0.002552
-11.300	0.002544
-11.295	0.002557
-11.290	0.002544
-11.285	0.002532
-11.280	0.002525
-11.275	0.002537
-11.270	0.002523
-11.265	0.002530
-11.260	0.002537
-11.255	0.002530
-11.250	0.002544
-11.245	0.002537
-11.240	0.002524
-11.235	0.002530
-11.230	0.002516
-11.225	0.002503
-11.220	0.002518
-11.215	0.002505
-11.210	0.002495
-11.205	0.002489
-11.200	0.002475
-11.195	0.002482
-11.190	0.002496
-11.185	0.002503
-11.180	0.002509
-11.175	0.002523
-11.170	0.002495
-11.165	0.002509
-11.160	0.002489
-11.155	0.002489
-11.150	0.002483
-11.145	0.002496
-11.140	0.002474
-11.135	0.002474
-11.130	0.002495
-11.125	0.002474
-11.120	0.002474
-11.115	0.002495
-11.110	0.002454
-11.105	0.002453
-11.100	0.002460
-11.095	0.002488
-11.090	0.002455
-11.085	0.002476
-11.080	0.002455
-11.075	0.002447
-11.070	0.002441
-11.065	0.002481
-11.060	0.002447
-11.055	0.002475
-11.050	0.002413
-11.045	0.002474
-11.040	0.002447
-11.035	0.002474
-11.030	0.002474
-11.025	0.002426
-11.020	0.002455
-11.015	0.002455
-11.010	0.002446
-11.005	0.002446
-11.000	0.002446
-10.995	0.002453
-10.990	0.002426
-10.985	0.002487
-10.980	0.002460
-10.975	0.002418
-10.970	0.002446
-10.965	0.002425
-10.960	0.002412
-10.955	0.002420
-10.950	0.002406
-10.945	0.002426
-10.940	0.002424
-10.935	0.002446
-10.930	0.002418
-10.925	0.002404
-10.920	0.002445
-10.915	0.002417
-10.910	0.002397
-10.905	0.002403
-10.900	0.002403
-10.895	0.002410
-10.890	0.002438
-10.885	0.002411
-10.880	0.002389
-10.875	0.002429
-10.870	0.002388
-10.865	0.002361
-10.860	0.002408
-10.855	0.002409
-10.850	0.002409
-10.845	0.002409
-10.840	0.002422
-10.835	0.002361
-10.830	0.002415
-10.825	0.002402
-10.820	0.002389
-10.815	0.002410
-10.810	0.002387
-10.805	0.002360
-10.800	0.002387
-10.795	0.002353
-10.790	0.002380
-10.785	0.002387
-10.780	0.002387
-10.775	0.002367
-10.770	0.002373
-10.765	0.002373
-10.760	0.002380
-10.755	0.002387
-10.750	0.002360
-10.745	0.002339
-10.740	0.002366
-10.735	0.002352
-10.730	0.002372
-10.725	0.002359
-10.720	0.002373
-10.715	0.002366
-10.710	0.002352
-10.705	0.002358
-10.700	0.002359
-10.695	0.002358
-10.690	0.002366
-10.685	0.002333
-10.680	0.002319
-10.675	0.002338
-10.670	0.002318
-10.665	0.002339
-10.660	0.002345
-10.655	0.002346
-10.650	0.002346
-10.645	0.002360
-10.640	0.002346
-10.635	0.002345
-10.630	0.002345
-10.625	0.002373
-10.620	0.002326
-10.615	0.002305
-10.610	0.002338
-10.605	0.002318
-10.600	0.002311
-10.595	0.002311
-10.590	0.002325
-10.585	0.002305
-10.580	0.002319
-10.575	0.002305
-10.570	0.002333
-10.565	0.002305
-10.560	0.002326
-10.555	0.002287
-10.550	0.002321
-10.545	0.002320
-10.540	0.002299
-10.535	0.002292
-10.530	0.002299
-10.525	0.002299
-10.520	0.002326
-10.515	0.002286
-10.510	0.002307
-10.505	0.002347
-10.500	0.002286
-10.495	0.002306
-10.490	0.002307
-10.485	0.002273
-10.480	0.002314
-10.475	0.002279
-10.470	0.002278
-10.465	0.002292
-10.460	0.002271
-10.455	0.002299
-10.450	0.002285
-10.445	0.002285
-10.440	0.002299
-10.435	0.002285
-10.430	0.002271
-10.425	0.002306
-10.420	0.002273
-10.415	0.002300
-10.410	0.002299
-10.405	0.002264
-10.400	0.002284
-10.395	0.002292
-10.390	0.002271
-10.385	0.002306
-10.380	0.002258
-10.375	0.002292
-10.370	0.002298
-10.365	0.002278
-10.360	0.002285
-10.355	0.002300
-10.350	0.002273
-10.345	0.002272
-10.340	0.002291
-10.335	0.002237
-10.330	0.002250
-10.325	0.002278
-10.320	0.002250
-10.315	0.002298
-10.310	0.002291
-10.305	0.002271
-10.300	0.002249
-10.295	0.002256
-10.290	0.002257
-10.285	0.002237
-10.280	0.002278
-10.275	0.002229
-10.270	0.002242
-10.265	0.002208
-10.260	0.002249
-10.255	0.002229
-10.250	0.002263
-10.245	0.002270
-10.240	0.002222
-10.235	0.002249
-10.230	0.002241
-10.225	0.002215
-10.220	0.002182
-10.215	0.002216
-10.210	0.002262
-10.205	0.002201
-10.200	0.002228
-10.195	0.002235
-10.190	0.002242
-10.185	0.002222
-10.180	0.002235
-10.175	0.002221
-10.170	0.002228
-10.165	0.002207
-10.160	0.002228
-10.155	0.002202
-10.150	0.002223
-10.145	0.002194
-10.140	0.002214
-10.135	0.002207
-10.130	0.002214
-10.125	0.002228
-10.120	0.002186
-10.115	0.002215
-10.110	0.002201
-10.105	0.002208
-10.100	0.002241
-10.095	0.002214
-10.090	0.002187
-10.085	0.002195
-10.080	0.002228
-10.075	0.002200
-10.070	0.002186
-10.065	0.002165
-10.060	0.002193
-10.055	0.002186
-10.050	0.002186
-10.045	0.002214
-10.040	0.002186
-10.035	0.002179
-10.030	0.002172
-10.025	0.002193
-10.020	0.002180
-10.015	0.002166
-10.010	0.002192
-10.005	0.002199
-10.000	0.002152
-9.995	0.002159
-9.990	0.002166
-9.985	0.002179
-9.980	0.002179
-9.975	0.002172
-9.970	0.002179
-9.965	0.002159
-9.960	0.002172
-9.955	0.002146
-9.950	0.002167
-9.945	0.002145
-9.940	0.002151
-9.935	0.002145
-9.930	0.002137
-9.925	0.002151
-9.920	0.002179
-9.915	0.002179
-9.910	0.002159
-9.905	0.002214
-9.900	0.002172
-9.895	0.002159
-9.890	0.002133
-9.885	0.002147
-9.880	0.002098
-9.875	0.002138
-9.870	0.002145
-9.865	0.002173
-9.860	0.002139
-9.855	0.002098
-9.850	0.002118
-9.845	0.002112
-9.840	0.002166
-9.835	0.002145
-9.830	0.002138
-9.825	0.002132
-9.820	0.002105
-9.815	0.002106
-9.810	0.002145
-9.805	0.002125
-9.800	0.002131
-9.795	0.002152
-9.790	0.002138
-9.785	0.002138
-9.780	0.002104
-9.775	0.002132
-9.770	0.002138
-9.765	0.002111
-9.760	0.002111
-9.755	0.002112
-9.750	0.002091
-9.745	0.002090
-9.740	0.002104
-9.735	0.002096
-9.730	0.002117
-9.725	0.002117
-9.720	0.002097
-9.715	0.002097
-9.710	0.002097
-9.705	0.002076
-9.700	0.002096
-9.695	0.002096
-9.690	0.002118
-9.685	0.002071
-9.680	0.002076
-9.675	0.002083
-9.670	0.002055
-9.665	0.002082
-9.660	0.002068
-9.655	0.002082
-9.650	0.002076
-9.645	0.002062
-9.640	0.002020
-9.635	0.002047
-9.630	0.002067
-9.625	0.002033
-9.620	0.002033
-9.615	0.002047
-9.610	0.002033
-9.605	0.002046
-9.600	0.002012
-9.595	0.002012
-9.590	0.001971
-9.585	0.001964
-9.580	0.001890
-9.575	0.001815
-9.570	0.001683
-9.565	0.001341
-9.560	0.000861
-9.555	0.000140
-9.550	-0.000883
-9.545	-0.002246
-9.540	-0.003902
-9.535	-0.006063
-9.530	-0.008530
-9.525	-0.011220
-9.520	-0.014315
-9.515	-0.017653
-9.510	-0.021275
-9.505	-0.025338
-9.500	-0.029610
-9.495	-0.033816
-9.490	-0.037925
-9.485	-0.041877
-9.480	-0.045577
-9.475	-0.048856
-9.470	-0.051153
-9.465	-0.051482
-9.460	-0.049646
-9.455	-0.046163
-9.450	-0.042244
-9.445	-0.038633
-9.440	-0.035551
-9.435	-0.033008
-9.430	-0.031005
-9.425	-0.029403
-9.420	-0.028030
-9.415	-0.026892
-9.410	-0.025908
-9.405	-0.025085
-9.400	-0.024297
-9.395	-0.023589
-9.390	-0.022947
-9.385	-0.022349
-9.380	-0.021796
-9.375	-0.021321
-9.370	-0.020853
-9.365	-0.020390
-9.360	-0.019928
-9.355	-0.019525
-9.350	-0.019133
-9.345	-0.018741
-9.340	-0.018388
-9.335	-0.018093
-9.330	-0.017731
-9.325	-0.017394
-9.320	-0.017043
-9.315	-0.016751
-9.310	-0.016426
-9.305	-0.016151
-9.300	-0.015821
-9.295	-0.015535
-9.290	-0.015211
-9.285	-0.014980
-9.280	-0.014791
-9.275	-0.014608
-9.270	-0.014485
-9.265	-0.014289
-9.260	-0.014095
-9.255	-0.013928
-9.250	-0.013765
-9.245	-0.013600
-9.240	-0.013389
-9.235	-0.013226
-9.230	-0.013055
-9.225	-0.012757
-9.220	-0.012409
-9.215	-0.011828
-9.210	-0.011401
-9.205	-0.011455
-9.200	-0.011786
-9.195	-0.011912
-9.190	-0.011872
-9.185	-0.011792
-9.180	-0.011618
-9.175	-0.011526
-9.170	-0.011427
-9.165	-0.011294
-9.160	-0.011156
-9.155	-0.011053
-9.150	-0.010949
-9.145	-0.010810
-9.140	-0.010749
-9.135	-0.010645
-9.130	-0.010534
-9.125	-0.010424
-9.120	-0.010330
-9.115	-0.010255
-9.110	-0.010148
-9.105	-0.010051
-9.100	-0.009990
-9.095	-0.009919
-9.090	-0.009820
-9.085	-0.009749
-9.080	-0.009645
-9.075	-0.009542
-9.070	-0.009472
-9.065	-0.009396
-9.060	-0.009254
-9.055	-0.009197
-9.050	-0.009204
-9.045	-0.009090
-9.040	-0.008976
-9.035	-0.008906
-9.030	-0.008851
-9.025	-0.008836
-9.020	-0.008788
-9.015	-0.008705
-9.010	-0.008630
-9.005	-0.008617
-9.000	-0.008541
-8.995	-0.008459
-8.990	-0.008395
-8.985	-0.008348
-8.980	-0.008269
-8.975	-0.008227
-8.970	-0.008169
-8.965	-0.008100
-8.960	-0.008032
-8.955	-0.007991
-8.950	-0.007951
-8.945	-0.007875
-8.940	-0.007832
-8.935	-0.007811
-8.930	-0.007749
-8.925	-0.007659
-8.920	-0.007654
-8.915	-0.007599
-8.910	-0.007565
-8.905	-0.007515
-8.900	-0.007459
-8.895	-0.007410
-8.890	-0.007390
-8.885	-0.007320
-8.880	-0.007284
-8.875	-0.007249
-8.870	-0.007174
-8.865	-0.007160
-8.860	-0.007132
-8.855	-0.007098
-8.850	-0.007067
-8.845	-0.007032
-8.840	-0.007009
-8.835	-0.006980
-8.830	-0.006960
-8.825	-0.006906
-8.820	-0.006873
-8.815	-0.006790
-8.810	-0.006742
-8.805	-0.006708
-8.800	-0.006639
-8.795	-0.006630
-8.790	-0.006601
-8.785	-0.006602
-8.780	-0.006527
-8.775	-0.006493
-8.770	-0.006429
-8.765	-0.006373
-8.760	-0.006373
-8.755	-0.006346
-8.750	-0.006325
-8.745	-0.006291
-8.740	-0.006221
-8.735	-0.006221
-8.730	-0.006159
-8.725	-0.006173
-8.720	-0.006124
-8.715	-0.006112
-8.710	-0.006036
-8.705	-0.006049
-8.700	-0.006008
-8.695	-0.005965
-8.690	-0.005918
-8.685	-0.005891
-8.680	-0.005850
-8.675	-0.005828
-8.670	-0.005794
-8.665	-0.005794
-8.660	-0.005712
-8.655	-0.005711
-8.650	-0.005698
-8.645	-0.005617
-8.640	-0.005643
-8.635	-0.005607
-8.630	-0.005573
-8.625	-0.005511
-8.620	-0.005498
-8.615	-0.005491
-8.610	-0.005457
-8.605	-0.005416
-8.600	-0.005361
-8.595	-0.005395
-8.590	-0.005347
-8.585	-0.005362
-8.580	-0.005301
-8.575	-0.005281
-8.570	-0.005253
-8.565	-0.005246
-8.560	-0.005212
-8.555	-0.005184
-8.550	-0.005150
-8.545	-0.005129
-8.540	-0.005074
-8.535	-0.005081
-8.530	-0.005087
-8.525	-0.005038
-8.520	-0.005030
-8.515	-0.005017
-8.510	-0.005011
-8.505	-0.004989
-8.500	-0.004933
-8.495	-0.004919
-8.490	-0.004885
-8.485	-0.004872
-8.480	-0.004851
-8.475	-0.004816
-8.470	-0.004837
-8.465	-0.004795
-8.460	-0.004761
-8.455	-0.004775
-8.450	-0.004722
-8.445	-0.004694
-8.440	-0.004688
-8.435	-0.004687
-8.430	-0.004674
-8.425	-0.004618
-8.420	-0.004632
-8.415	-0.004563
-8.410	-0.004577
-8.405	-0.004542
-8.400	-0.004577
-8.395	-0.004542
-8.390	-0.004522
-8.385	-0.004489
-8.380	-0.004510
-8.375	-0.004497
-8.370	-0.004434
-8.365	-0.004427
-8.360	-0.004468
-8.355	-0.004441
-8.350	-0.004421
-8.345	-0.004360
-8.340	-0.004361
-8.335	-0.004328
-8.330	-0.004283
-8.325	-0.004315
-8.320	-0.004283
-8.315	-0.004286
-8.310	-0.004265
-8.305	-0.004267
-8.300	-0.004267
-8.295	-0.004223
-8.290	-0.004228
-8.285	-0.004228
-8.280	-0.004166
-8.275	-0.004180
-8.270	-0.004153
-8.265	-0.004159
-8.260	-0.004097
-8.255	-0.004097
-8.250	-0.004091
-8.245	-0.004092
-8.240	-0.004036
-8.235	-0.004049
-8.230	-0.004029
-8.225	-0.004016
-8.220	-0.004002
-8.215	-0.003995
-8.210	-0.003968
-8.205	-0.003948
-8.200	-0.003920
-8.195	-0.003927
-8.190	-0.003894
-8.185	-0.003860
-8.180	-0.003882
-8.175	-0.003875
-8.170	-0.003868
-8.165	-0.003820
-8.160	-0.003820
-8.155	-0.003820
-8.150	-0.003778
-8.145	-0.003785
-8.140	-0.003778
-8.135	-0.003778
-8.130	-0.003737
-8.125	-0.003737
-8.120	-0.003717
-8.115	-0.003724
-8.110	-0.003696
-8.105	-0.003702
-8.100	-0.003689
-8.095	-0.003689
-8.090	-0.003682
-8.085	-0.003641
-8.080	-0.003627
-8.075	-0.003614
-8.070	-0.003600
-8.065	-0.003573
-8.060	-0.003615
-8.055	-0.003601
-8.050	-0.003567
-8.045	-0.003553
-8.040	-0.003553
-8.035	-0.003525
-8.030	-0.003518
-8.025	-0.003505
-8.020	-0.003498
-8.015	-0.003470
-8.010	-0.003484
-8.005	-0.003463
-8.000	-0.003456
-7.995	-0.003415
-7.990	-0.003435
-7.985	-0.003408
-7.980	-0.003402
-7.975	-0.003380
-7.970	-0.003380
-7.965	-0.003366
-7.960	-0.003345
-7.955	-0.003359
-7.950	-0.003332
-7.945	-0.003332
-7.940	-0.003339
-7.935	-0.003284
-7.930	-0.003284
-7.925	-0.003283
-7.920	-0.003297
-7.915	-0.003284
-7.910	-0.003277
-7.905	-0.003270
-7.900	-0.003263
-7.895	-0.003249
-7.890	-0.003243
-7.885	-0.003230
-7.880	-0.003203
-7.875	-0.003196
-7.870	-0.003176
-7.865	-0.003175
-7.860	-0.003175
-7.855	-0.003175
-7.850	-0.003155
-7.845	-0.003154
-7.840	-0.003160
-7.835	-0.003160
-7.830	-0.003097
-7.825	-0.003132
-7.820	-0.003131
-7.815	-0.003111
-7.810	-0.003063
-7.805	-0.003083
-7.800	-0.003056
-7.795	-0.003035
-7.790	-0.003028
-7.785	-0.003049
-7.780	-0.003050
-7.775	-0.003056
-7.770	-0.003049
-7.765	-0.003015
-7.760	-0.003022
-7.755	-0.002994
-7.750	-0.003049
-7.745	-0.002980
-7.740	-0.002967
-7.735	-0.002987
-7.730	-0.002967
-7.725	-0.002967
-7.720	-0.002953
-7.715	-0.002960
-7.710	-0.002967
-7.705	-0.002939
-7.700	-0.002987
-7.695	-0.002932
-7.690	-0.002905
-7.685	-0.002919
-7.680	-0.002884
-7.675	-0.002905
-7.670	-0.002946
-7.665	-0.002884
-7.660	-0.002884
-7.655	-0.002878
-7.650	-0.002899
-7.645	-0.002851
-7.640	-0.002857
-7.635	-0.002850
-7.630	-0.002857
-7.625	-0.002837
-7.620	-0.002823
-7.615	-0.002768
-7.610	-0.002789
-7.605	-0.002789
-7.600	-0.002782
-7.595	-0.002795
-7.590	-0.002782
-7.585	-0.002803
-7.580	-0.002803
-7.575	-0.002755
-7.570	-0.002747
-7.565	-0.002768
-7.560	-0.002768
-7.555	-0.002720
-7.550	-0.002692
-7.545	-0.002699
-7.540	-0.002672
-7.535	-0.002679
-7.530	-0.002672
-7.525	-0.002658
-7.520	-0.002665
-7.515	-0.002659
-7.510	-0.002686
-7.505	-0.002644
-7.500	-0.002638
-7.495	-0.002686
-7.490	-0.002645
-7.485	-0.002569
-7.480	-0.002597
-7.475	-0.002631
-7.470	-0.002555
-7.465	-0.002569
-7.460	-0.002562
-7.455	-0.002569
-7.450	-0.002583
-7.445	-0.002576
-7.440	-0.002535
-7.435	-0.002583
-7.430	-0.002535
-7.425	-0.002535
-7.420	-0.002562
-7.415	-0.002535
-7.410	-0.002507
-7.405	-0.002535
-7.400	-0.002521
-7.395	-0.002514
-7.390	-0.002487
-7.385	-0.002508
-7.380	-0.002487
-7.375	-0.002508
-7.370	-0.002501
-7.365	-0.002459
-7.360	-0.002501
-7.355	-0.002446
-7.350	-0.002473
-7.345	-0.002446
-7.340	-0.002453
-7.335	-0.002432
-7.330	-0.002439
-7.325	-0.002411
-7.320	-0.002425
-7.315	-0.002412
-7.310	-0.002384
-7.305	-0.002398
-7.300	-0.002405
-7.295	-0.002350
-7.290	-0.002343
-7.285	-0.002336
-7.280	-0.002343
-7.275	-0.002322
-7.270	-0.002322
-7.265	-0.002302
-7.260	-0.002302
-7.255	-0.002281
-7.250	-0.002302
-7.245	-0.002309
-7.240	-0.002288
-7.235	-0.002302
-7.230	-0.002281
-7.225	-0.002288
-7.220	-0.002275
-7.215	-0.002289
-7.210	-0.002275
-7.205	-0.002295
-7.200	-0.002261
-7.195	-0.002288
-7.190	-0.002268
-7.185	-0.002240
-7.180	-0.002254
-7.175	-0.002289
-7.170	-0.002282
-7.165	-0.002261
-7.160	-0.002247
-7.155	-0.002254
-7.150	-0.002247
-7.145	-0.002240
-7.140	-0.002213
-7.135	-0.002213
-7.130	-0.002234
-7.125	-0.002193
-7.120	-0.002220
-7.115	-0.002213
-7.110	-0.002186
-7.105	-0.002220
-7.100	-0.002206
-7.095	-0.002186
-7.090	-0.002207
-7.085	-0.002172
-7.080	-0.002152
-7.075	-0.002172
-7.070	-0.002159
-7.065	-0.002172
-7.060	-0.002152
-7.055	-0.002138
-7.050	-0.002138
-7.045	-0.002131
-7.040	-0.002145
-7.035	-0.002124
-7.030	-0.002097
-7.025	-0.002138
-7.020	-0.002111
-7.015	-0.002090
-7.010	-0.002104
-7.005	-0.002049
-7.000	-0.002097
-6.995	-0.002056
-6.990	-0.002042
-6.985	-0.002070
-6.980	-0.002056
-6.975	-0.002077
-6.970	-0.002063
-6.965	-0.002022
-6.960	-0.002049
-6.955	-0.002043
-6.950	-0.002049
-6.945	-0.002008
-6.940	-0.002043
-6.935	-0.002015
-6.930	-0.002029
-6.925	-0.002022
-6.920	-0.002008
-6.915	-0.002015
-6.910	-0.002029
-6.905	-0.002015
-6.900	-0.002036
-6.895	-0.002015
-6.890	-0.002008
-6.885	-0.002036
-6.880	-0.001988
-6.875	-0.002008
-6.870	-0.002029
-6.865	-0.002002
-6.860	-0.002015
-6.855	-0.002002
-6.850	-0.002036
-6.845	-0.002043
-6.840	-0.002057
-6.835	-0.002036
-6.830	-0.002029
-6.825	-0.002050
-6.820	-0.002064
-6.815	-0.002064
-6.810	-0.002057
-6.805	-0.002050
-6.800	-0.002064
-6.795	-0.002071
-6.790	-0.002051
-6.785	-0.002058
-6.780	-0.002051
-6.775	-0.002078
-6.770	-0.002078
-6.765	-0.002051
-6.760	-0.002030
-6.755	-0.002051
-6.750	-0.002030
-6.745	-0.001996
-6.740	-0.002009
-6.735	-0.002002
-6.730	-0.001996
-6.725	-0.001982
-6.720	-0.001989
-6.715	-0.001975
-6.710	-0.001968
-6.705	-0.001975
-6.700	-0.001955
-6.695	-0.001948
-6.690	-0.001907
-6.685	-0.001955
-6.680	-0.001927
-6.675	-0.001914
-6.670	-0.001886
-6.665	-0.001893
-6.660	-0.001907
-6.655	-0.001900
-6.650	-0.001866
-6.645	-0.001900
-6.640	-0.001873
-6.635	-0.001873
-6.630	-0.001873
-6.625	-0.001818
-6.620	-0.001838
-6.615	-0.001866
-6.610	-0.001825
-6.605	-0.001845
-6.600	-0.001845
-6.595	-0.001852
-6.590	-0.001859
-6.585	-0.001859
-6.580	-0.001818
-6.575	-0.001873
-6.570	-0.001873
-6.565	-0.001845
-6.560	-0.001845
-6.555	-0.001832
-6.550	-0.001866
-6.545	-0.001825
-6.540	-0.001852
-6.535	-0.001832
-6.530	-0.001790
-6.525	-0.001818
-6.520	-0.001811
-6.515	-0.001791
-6.510	-0.001845
-6.505	-0.001818
-6.500	-0.001811
-6.495	-0.001797
-6.490	-0.001791
-6.485	-0.001811
-6.480	-0.001798
-6.475	-0.001811
-6.470	-0.001770
-6.465	-0.001804
-6.460	-0.001791
-6.455	-0.001798
-6.450	-0.001784
-6.445	-0.001805
-6.440	-0.001798
-6.435	-0.001770
-6.430	-0.001777
-6.425	-0.001777
-6.420	-0.001791
-6.415	-0.001757
-6.410	-0.001743
-6.405	-0.001743
-6.400	-0.001750
-6.395	-0.001743
-6.390	-0.001757
-6.385	-0.001743
-6.380	-0.001770
-6.375	-0.001750
-6.370	-0.001757
-6.365	-0.001764
-6.360	-0.001729
-6.355	-0.001743
-6.350	-0.001736
-6.345	-0.001716
-6.340	-0.001723
-6.335	-0.001723
-6.330	-0.001729
-6.325	-0.001702
-6.320	-0.001730
-6.315	-0.001709
-6.310	-0.001695
-6.305	-0.001716
-6.300	-0.001716
-6.295	-0.001695
-6.290	-0.001675
-6.285	-0.001647
-6.280	-0.001688
-6.275	-0.001682
-6.270	-0.001675
-6.265	-0.001627
-6.260	-0.001627
-6.255	-0.001647
-6.250	-0.001654
-6.245	-0.001675
-6.240	-0.001675
-6.235	-0.001627
-6.230	-0.001648
-6.225	-0.001641
-6.220	-0.001606
-6.215	-0.001634
-6.210	-0.001613
-6.205	-0.001634
-6.200	-0.001634
-6.195	-0.001620
-6.190	-0.001634
-6.185	-0.001600
-6.180	-0.001606
-6.175	-0.001593
-6.170	-0.001559
-6.165	-0.001586
-6.160	-0.001593
-6.155	-0.001614
-6.150	-0.001600
-6.145	-0.001559
-6.140	-0.001579
-6.135	-0.001600
-6.130	-0.001600
-6.125	-0.001572
-6.120	-0.001586
-6.115	-0.001572
-6.110	-0.001566
-6.105	-0.001573
-6.100	-0.001566
-6.095	-0.001586
-6.090	-0.001566
-6.085	-0.001552
-6.080	-0.001511
-6.075	-0.001497
-6.070	-0.001497
-6.065	-0.001525
-6.060	-0.001511
-6.055	-0.001538
-6.050	-0.001518
-6.045	-0.001511
-6.040	-0.001511
-6.035	-0.001525
-6.030	-0.001525
-6.025	-0.001518
-6.020	-0.001511
-6.015	-0.001497
-6.010	-0.001477
-6.005	-0.001435
-6.000	-0.001497
-5.995	-0.001463
-5.990	-0.001470
-5.985	-0.001436
-5.980	-0.001470
-5.975	-0.001456
-5.970	-0.001477
-5.965	-0.001449
-5.960	-0.001422
-5.955	-0.001408
-5.950	-0.001401
-5.945	-0.001408
-5.940	-0.001360
-5.935	-0.001367
-5.930	-0.001381
-5.925	-0.001381
-5.920	-0.001374
-5.915	-0.001381
-5.910	-0.001333
-5.905	-0.001360
-5.900	-0.001354
-5.895	-0.001333
-5.890	-0.001333
-5.885	-0.001333
-5.880	-0.001326
-5.875	-0.001305
-5.870	-0.001319
-5.865	-0.001305
-5.860	-0.001333
-5.855	-0.001319
-5.850	-0.001319
-5.845	-0.001319
-5.840	-0.001299
-5.835	-0.001319
-5.830	-0.001333
-5.825	-0.001333
-5.820	-0.001326
-5.815	-0.001367
-5.810	-0.001347
-5.805	-0.001354
-5.800	-0.001409
-5.795	-0.001457
-5.790	-0.001484
-5.785	-0.001581
-5.780	-0.001594
-5.775	-0.001649
-5.770	-0.001732
-5.765	-0.001821
-5.760	-0.001897
-5.755	-0.001972
-5.750	-0.002048
-5.745	-0.002144
-5.740	-0.002275
-5.735	-0.002323
-5.730	-0.002439
-5.725	-0.002508
-5.720	-0.002556
-5.715	-0.002604
-5.710	-0.002584
-5.705	-0.002563
-5.700	-0.002522
-5.695	-0.002439
-5.690	-0.002350
-5.685	-0.002254
-5.680	-0.002117
-5.675	-0.001986
-5.670	-0.001828
-5.665	-0.001698
-5.660	-0.001554
-5.655	-0.001430
-5.650	-0.001348
-5.645	-0.001258
-5.640	-0.001224
-5.635	-0.001121
-5.630	-0.001080
-5.625	-0.001059
-5.620	-0.001059
-5.615	-0.001032
-5.610	-0.001004
-5.605	-0.001018
-5.600	-0.001045
-5.595	-0.001052
-5.590	-0.001052
-5.585	-0.001018
-5.580	-0.001079
-5.575	-0.001080
-5.570	-0.001087
-5.565	-0.001066
-5.560	-0.001073
-5.555	-0.001087
-5.550	-0.001066
-5.545	-0.001052
-5.540	-0.001080
-5.535	-0.001025
-5.530	-0.001080
-5.525	-0.001107
-5.520	-0.001073
-5.515	-0.001114
-5.510	-0.001107
-5.505	-0.001101
-5.500	-0.001080
-5.495	-0.001107
-5.490	-0.001107
-5.485	-0.001087
-5.480	-0.001107
-5.475	-0.001100
-5.470	-0.001080
-5.465	-0.001059
-5.460	-0.001004
-5.455	-0.000791
-5.450	-0.000322
-5.445	0.000332
-5.440	0.001351
-5.435	0.002653
-5.430	0.004708
-5.425	0.007226
-5.420	0.010356
-5.415	0.013938
-5.410	0.017730
-5.405	0.022284
-5.400	0.027145
-5.395	0.032030
-5.390	0.037723
-5.385	0.044022
-5.380	0.049771
-5.375	0.054811
-5.370	0.059963
-5.365	0.065664
-5.360	0.070300
-5.355	0.072233
-5.350	0.071268
-5.345	0.068158
-5.340	0.064223
-5.335	0.060139
-5.330	0.056370
-5.325	0.053108
-5.320	0.050367
-5.315	0.047994
-5.310	0.045947
-5.305	0.044138
-5.300	0.042537
-5.295	0.041072
-5.290	0.039773
-5.285	0.038675
-5.280	0.037613
-5.275	0.036628
-5.270	0.035690
-5.265	0.034932
-5.260	0.034203
-5.255	0.033529
-5.250	0.032857
-5.245	0.032194
-5.240	0.031516
-5.235	0.030974
-5.230	0.030383
-5.225	0.029853
-5.220	0.029323
-5.215	0.028871
-5.210	0.028372
-5.205	0.027925
-5.200	0.027520
-5.195	0.027069
-5.190	0.026667
-5.185	0.026153
-5.180	0.025768
-5.175	0.025366
-5.170	0.024967
-5.165	0.024660
-5.160	0.024328
-5.155	0.024044
-5.150	0.023750
-5.145	0.023512
-5.140	0.023226
-5.135	0.022928
-5.130	0.022724
-5.125	0.022580
-5.120	0.022351
-5.115	0.022108
-5.110	0.021915
-5.105	0.021672
-5.100	0.021447
-5.095	0.021269
-5.090	0.021030
-5.085	0.020831
-5.080	0.020656
-5.075	0.020494
-5.070	0.020349
-5.065	0.020240
-5.060	0.020140
-5.055	0.019974
-5.050	0.019781
-5.045	0.019534
-5.040	0.019261
-5.035	0.019055
-5.030	0.018786
-5.025	0.018600
-5.020	0.018482
-5.015	0.018425
-5.010	0.018281
-5.005	0.018157
-5.000	0.018047
-4.995	0.017905
-4.990	0.017829
-4.985	0.017667
-4.980	0.017427
-4.975	0.017284
-4.970	0.017096
-4.965	0.016951
-4.960	0.016845
-4.955	0.016709
-4.950	0.016596
-4.945	0.016486
-4.940	0.016315
-4.935	0.016247
-4.930	0.016130
-4.925	0.016087
-4.920	0.015996
-4.915	0.015910
-4.910	0.015803
-4.905	0.015716
-4.900	0.015604
-4.895	0.015541
-4.890	0.015531
-4.885	0.015533
-4.880	0.015531
-4.875	0.015390
-4.870	0.015162
-4.865	0.015064
-4.860	0.014994
-4.855	0.014954
-4.850	0.014945
-4.845	0.014924
-4.840	0.014856
-4.835	0.014787
-4.830	0.014712
-4.825	0.014598
-4.820	0.014539
-4.815	0.014396
-4.810	0.014273
-4.805	0.014176
-4.800	0.014072
-4.795	0.013934
-4.790	0.013893
-4.785	0.013835
-4.780	0.013838
-4.775	0.013812
-4.770	0.013729
-4.765	0.013594
-4.760	0.013450
-4.755	0.013329
-4.750	0.013275
-4.745	0.013200
-4.740	0.013130
-4.735	0.013081
-4.730	0.013040
-4.725	0.012978
-4.720	0.012888
-4.715	0.012870
-4.710	0.012875
-4.705	0.012892
-4.700	0.012834
-4.695	0.012738
-4.690	0.012670
-4.685	0.012619
-4.680	0.012613
-4.675	0.012592
-4.670	0.012534
-4.665	0.012439
-4.660	0.012329
-4.655	0.012218
-4.650	0.012099
-4.645	0.012009
-4.640	0.011866
-4.635	0.011794
-4.630	0.011724
-4.625	0.011650
-4.620	0.011657
-4.615	0.011652
-4.610	0.011627
-4.605	0.011611
-4.600	0.011631
-4.595	0.011584
-4.590	0.011588
-4.585	0.011504
-4.580	0.011421
-4.575	0.011351
-4.570	0.011335
-4.565	0.011322
-4.560	0.011324
-4.555	0.011344
-4.550	0.011324
-4.545	0.011256
-4.540	0.011239
-4.535	0.011189
-4.530	0.011179
-4.525	0.011111
-4.520	0.011014
-4.515	0.010901
-4.510	0.010791
-4.505	0.010678
-4.500	0.010595
-4.495	0.010546
-4.490	0.010502
-4.485	0.010529
-4.480	0.010508
-4.475	0.010493
-4.470	0.010493
-4.465	0.010437
-4.460	0.010375
-4.455	0.010365
-4.450	0.010338
-4.445	0.010300
-4.440	0.010238
-4.435	0.010197
-4.430	0.010137
-4.425	0.010053
-4.420	0.009980
-4.415	0.009904
-4.410	0.009904
-4.405	0.009877
-4.400	0.009862
-4.395	0.009855
-4.390	0.009794
-4.385	0.009749
-4.380	0.009763
-4.375	0.009780
-4.370	0.009812
-4.365	0.009819
-4.360	0.009752
-4.355	0.009637
-4.350	0.009591
-4.345	0.009516
-4.340	0.009490
-4.335	0.009441
-4.330	0.009430
-4.325	0.009477
-4.320	0.009482
-4.315	0.009440
-4.310	0.009376
-4.305	0.009348
-4.300	0.009266
-4.295	0.009260
-4.290	0.009219
-4.285	0.009212
-4.280	0.009157
-4.275	0.009061
-4.270	0.009024
-4.265	0.009002
-4.260	0.008935
-4.255	0.008883
-4.250	0.008879
-4.245	0.008851
-4.240	0.008877
-4.235	0.008917
-4.230	0.008830
-4.225	0.008845
-4.220	0.008868
-4.215	0.008943
-4.210	0.008936
-4.205	0.008927
-4.200	0.008899
-4.195	0.008769
-4.190	0.008684
-4.185	0.008597
-4.180	0.008494
-4.175	0.008379
-4.170	0.008236
-4.165	0.008119
-4.160	0.007969
-4.155	0.007749
-4.150	0.007437
-4.145	0.006923
-4.140	0.006137
-4.135	0.005053
-4.130	0.003615
-4.125	0.001697
-4.120	-0.000744
-4.115	-0.003730
-4.110	-0.007276
-4.105	-0.011369
-4.100	-0.015850
-4.095	-0.020789
-4.090	-0.026173
-4.085	-0.031980
-4.080	-0.038014
-4.075	-0.044081
-4.070	-0.050056
-4.065	-0.056018
-4.060	-0.061423
-4.055	-0.065829
-4.050	-0.068940
-4.045	-0.070424
-4.040	-0.070120
-4.035	-0.068005
-4.030	-0.064497
-4.025	-0.060298
-4.020	-0.056083
-4.015	-0.052206
-4.010	-0.048844
-4.005	-0.046014
-4.000	-0.043587
-3.995	-0.041519
-3.990	-0.039729
-3.985	-0.038119
-3.980	-0.036661
-3.975	-0.035393
-3.970	-0.034224
-3.965	-0.033163
-3.960	-0.032238
-3.955	-0.031357
-3.950	-0.030527
-3.945	-0.029831
-3.940	-0.029148
-3.935	-0.028476
-3.930	-0.027863
-3.925	-0.027291
-3.920	-0.026776
-3.915	-0.026266
-3.910	-0.025742
-3.905	-0.025304
-3.900	-0.024902
-3.895	-0.024460
-3.890	-0.024005
-3.885	-0.023592
-3.880	-0.023184
-3.875	-0.022794
-3.870	-0.022453
-3.865	-0.022089
-3.860	-0.021745
-3.855	-0.021397
-3.850	-0.021006
-3.845	-0.020684
-3.840	-0.020360
-3.835	-0.020016
-3.830	-0.019730
-3.825	-0.019401
-3.820	-0.019162
-3.815	-0.018899
-3.810	-0.018647
-3.805	-0.018337
-3.800	-0.018121
-3.795	-0.017867
-3.790	-0.017721
-3.785	-0.017503
-3.780	-0.017257
-3.775	-0.017034
-3.770	-0.016780
-3.765	-0.016559
-3.760	-0.016363
-3.755	-0.016147
-3.750	-0.015947
-3.745	-0.015743
-3.740	-0.015565
-3.735	-0.015345
-3.730	-0.015216
-3.725	-0.015035
-3.720	-0.014901
-3.715	-0.014714
-3.710	-0.014589
-3.705	-0.014434
-3.700	-0.014307
-3.695	-0.014135
-3.690	-0.014028
-3.685	-0.013910
-3.680	-0.013802
-3.675	-0.013645
-3.670	-0.013523
-3.665	-0.013331
-3.660	-0.013203
-3.655	-0.013088
-3.650	-0.012947
-3.645	-0.012856
-3.640	-0.012682
-3.635	-0.012572
-3.630	-0.012451
-3.625	-0.012332
-3.620	-0.012182
-3.615	-0.012052
-3.610	-0.011958
-3.605	-0.011806
-3.600	-0.011665
-3.595	-0.011462
-3.590	-0.011264
-3.585	-0.011033
-3.580	-0.010800
-3.575	-0.010562
-3.570	-0.010274
-3.565	-0.009965
-3.560	-0.009587
-3.555	-0.009145
-3.550	-0.008743
-3.545	-0.008297
-3.540	-0.007805
-3.535	-0.007298
-3.530	-0.006727
-3.525	-0.006193
-3.520	-0.005529
-3.515	-0.004898
-3.510	-0.004246
-3.505	-0.003628
-3.500	-0.003018
-3.495	-0.002428
-3.490	-0.001920
-3.485	-0.001391
-3.480	-0.000897
-3.475	-0.000451
-3.470	-0.000061
-3.465	0.000241
-3.460	0.000460
-3.455	0.000652
-3.450	0.000742
-3.445	0.000817
-3.440	0.000824
-3.435	0.000824
-3.430	0.000810
-3.425	0.000817
-3.420	0.000893
-3.415	0.000980
-3.410	0.001232
-3.405	0.001535
-3.400	0.001922
-3.395	0.002404
-3.390	0.002994
-3.385	0.003662
-3.380	0.004464
-3.375	0.005324
-3.370	0.006304
-3.365	0.007272
-3.360	0.008220
-3.355	0.009144
-3.350	0.010134
-3.345	0.011115
-3.340	0.011892
-3.335	0.012234
-3.330	0.012118
-3.325	0.011783
-3.320	0.011288
-3.315	0.010811
-3.310	0.010321
-3.305	0.009956
-3.300	0.009614
-3.295	0.009455
-3.290	0.009271
-3.285	0.009161
-3.280	0.009078
-3.275	0.008981
-3.270	0.008947
-3.265	0.008835
-3.260	0.008801
-3.255	0.008790
-3.250	0.008805
-3.245	0.008858
-3.240	0.008890
-3.235	0.009014
-3.230	0.009057
-3.225	0.009114
-3.220	0.009134
-3.215	0.009196
-3.210	0.009298
-3.205	0.009359
-3.200	0.009429
-3.195	0.009529
-3.190	0.009619
-3.185	0.009785
-3.180	0.009971
-3.175	0.010131
-3.170	0.010284
-3.165	0.010469
-3.160	0.010597
-3.155	0.010653
-3.150	0.010703
-3.145	0.010766
-3.140	0.010806
-3.135	0.010846
-3.130	0.010927
-3.125	0.010936
-3.120	0.011021
-3.115	0.011085
-3.110	0.011110
-3.105	0.011184
-3.100	0.011204
-3.095	0.011273
-3.090	0.011369
-3.085	0.011438
-3.080	0.011535
-3.075	0.011597
-3.070	0.011716
-3.065	0.011798
-3.060	0.011909
-3.055	0.011953
-3.050	0.011970
-3.045	0.011976
-3.040	0.012082
-3.035	0.012163
-3.030	0.012158
-3.025	0.012239
-3.020	0.012365
-3.015	0.012489
-3.010	0.012588
-3.005	0.012628
-3.000	0.012656
-2.995	0.012736
-2.990	0.012848
-2.985	0.012951
-2.980	0.013054
-2.975	0.013194
-2.970	0.013298
-2.965	0.013372
-2.960	0.013442
-2.955	0.013557
-2.950	0.013645
-2.945	0.013685
-2.940	0.013713
-2.935	0.013802
-2.930	0.013958
-2.925	0.014089
-2.920	0.014164
-2.915	0.014206
-2.910	0.014337
-2.905	0.014404
-2.900	0.014385
-2.895	0.014420
-2.890	0.014491
-2.885	0.014594
-2.880	0.014663
-2.875	0.014717
-2.870	0.014874
-2.865	0.015090
-2.860	0.015226
-2.855	0.015340
-2.850	0.015446
-2.845	0.015493
-2.840	0.015564
-2.835	0.015650
-2.830	0.015612
-2.825	0.015636
-2.820	0.015622
-2.815	0.015640
-2.810	0.015605
-2.805	0.015567
-2.800	0.015558
-2.795	0.015536
-2.790	0.015509
-2.785	0.015436
-2.780	0.015443
-2.775	0.015462
-2.770	0.015504
-2.765	0.015592
-2.760	0.015750
-2.755	0.015901
-2.750	0.016086
-2.745	0.016178
-2.740	0.016219
-2.735	0.016321
-2.730	0.016343
-2.725	0.016477
-2.720	0.016577
-2.715	0.016687
-2.710	0.016907
-2.705	0.017049
-2.700	0.017128
-2.695	0.017146
-2.690	0.017317
-2.685	0.017413
-2.680	0.017339
-2.675	0.017302
-2.670	0.017297
-2.665	0.017366
-2.660	0.017532
-2.655	0.017623
-2.650	0.017734
-2.645	0.017785
-2.640	0.017875
-2.635	0.017945
-2.630	0.018047
-2.625	0.018074
-2.620	0.018092
-2.615	0.018056
-2.610	0.018047
-2.605	0.018084
-2.600	0.018128
-2.595	0.018175
-2.590	0.018235
-2.585	0.018361
-2.580	0.018372
-2.575	0.018367
-2.570	0.018273
-2.565	0.018207
-2.560	0.018222
-2.555	0.018189
-2.550	0.018231
-2.545	0.018334
-2.540	0.018423
-2.535	0.018508
-2.530	0.018538
-2.525	0.018524
-2.520	0.018472
-2.515	0.018365
-2.510	0.018339
-2.505	0.018373
-2.500	0.018445
-2.495	0.018507
-2.490	0.018573
-2.485	0.018632
-2.480	0.018689
-2.475	0.018788
-2.470	0.018818
-2.465	0.018903
-2.460	0.018994
-2.455	0.019093
-2.450	0.019119
-2.445	0.019055
-2.440	0.019055
-2.435	0.019097
-2.430	0.019190
-2.425	0.019213
-2.420	0.019231
-2.415	0.019194
-2.410	0.019287
-2.405	0.019230
-2.400	0.019190
-2.395	0.019217
-2.390	0.019171
-2.385	0.019142
-2.380	0.019178
-2.375	0.019245
-2.370	0.019391
-2.365	0.019490
-2.360	0.019549
-2.355	0.019624
-2.350	0.019729
-2.345	0.019797
-2.340	0.019880
-2.335	0.019930
-2.330	0.019970
-2.325	0.020074
-2.320	0.020084
-2.315	0.020100
-2.310	0.020089
-2.305	0.020062
-2.300	0.020043
-2.295	0.020046
-2.290	0.020008
-2.285	0.019914
-2.280	0.019812
-2.275	0.019793
-2.270	0.019700
-2.265	0.019650
-2.260	0.019544
-2.255	0.019455
-2.250	0.019382
-2.245	0.019339
-2.240	0.019350
-2.235	0.019359
-2.230	0.019276
-2.225	0.019264
-2.220	0.019321
-2.215	0.019422
-2.210	0.019538
-2.205	0.019627
-2.200	0.019735
-2.195	0.019794
-2.190	0.019891
-2.185	0.019881
-2.180	0.019881
-2.175	0.019842
-2.170	0.019843
-2.165	0.019797
-2.160	0.019815
-2.155	0.019863
-2.150	0.019864
-2.145	0.019813
-2.140	0.019746
-2.135	0.019622
-2.130	0.019608
-2.125	0.019577
-2.120	0.019555
-2.115	0.019576
-2.110	0.019509
-2.105	0.019531
-2.100	0.019579
-2.095	0.019672
-2.090	0.019745
-2.085	0.019847
-2.080	0.019868
-2.075	0.019871
-2.070	0.019984
-2.065	0.020064
-2.060	0.020114
-2.055	0.020119
-2.050	0.020116
-2.045	0.020143
-2.040	0.020168
-2.035	0.020136
-2.030	0.020130
-2.025	0.020061
-2.020	0.020036
-2.015	0.020029
-2.010	0.020052
-2.005	0.020051
-2.000	0.020042
-1.995	0.020047
-1.990	0.020013
-1.985	0.020031
-1.980	0.020029
-1.975	0.020042
-1.970	0.020037
-1.965	0.019954
-1.960	0.019924
-1.955	0.019793
-1.950	0.019698
-1.945	0.019650
-1.940	0.019591
-1.935	0.019575
-1.930	0.019511
-1.925	0.019392
-1.920	0.019308
-1.915	0.019243
-1.910	0.019256
-1.905	0.019297
-1.900	0.019393
-1.895	0.019386
-1.890	0.019402
-1.885	0.019373
-1.880	0.019377
-1.875	0.019320
-1.870	0.019286
-1.865	0.019224
-1.860	0.019227
-1.855	0.019246
-1.850	0.019209
-1.845	0.019266
-1.840	0.019232
-1.835	0.019199
-1.830	0.019227
-1.825	0.019282
-1.820	0.019244
-1.815	0.019203
-1.810	0.019171
-1.805	0.019143
-1.800	0.019147
-1.795	0.019105
-1.790	0.019093
-1.785	0.019055
-1.780	0.019019
-1.775	0.018992
-1.770	0.018926
-1.765	0.018887
-1.760	0.018832
-1.755	0.018766
-1.750	0.018711
-1.745	0.018654
-1.740	0.018620
-1.735	0.018594
-1.730	0.018539
-1.725	0.018490
-1.720	0.018513
-1.715	0.018444
-1.710	0.018419
-1.705	0.018354
-1.700	0.018279
-1.695	0.018228
-1.690	0.018214
-1.685	0.018212
-1.680	0.018167
-1.675	0.018063
-1.670	0.017999
-1.665	0.018015
-1.660	0.018100
-1.655	0.018212
-1.650	0.018318
-1.645	0.018428
-1.640	0.018550
-1.635	0.018599
-1.630	0.018655
-1.625	0.018622
-1.620	0.018619
-1.615	0.018552
-1.610	0.018532
-1.605	0.018483
-1.600	0.018445
-1.595	0.018422
-1.590	0.018337
-1.585	0.018300
-1.580	0.018147
-1.575	0.018036
-1.570	0.017975
-1.565	0.017909
-1.560	0.017868
-1.555	0.017873
-1.550	0.017818
-1.545	0.017806
-1.540	0.017786
-1.535	0.017758
-1.530	0.017763
-1.525	0.017664
-1.520	0.017613
-1.515	0.017548
-1.510	0.017426
-1.505	0.017311
-1.500	0.017261
-1.495	0.017131
-1.490	0.017064
-1.485	0.016976
-1.480	0.016853
-1.475	0.016758
-1.470	0.016689
-1.465	0.016592
-1.460	0.016497
-1.455	0.016420
-1.450	0.016346
-1.445	0.016324
-1.440	0.016348
-1.435	0.016384
-1.430	0.016368
-1.425	0.016455
-1.420	0.016469
-1.415	0.016535
-1.410	0.016552
-1.405	0.016514
-1.400	0.016523
-1.395	0.016448
-1.390	0.016317
-1.385	0.016217
-1.380	0.016111
-1.375	0.015984
-1.370	0.015909
-1.365	0.015833
-1.360	0.015753
-1.355	0.015730
-1.350	0.015690
-1.345	0.015636
-1.340	0.015610
-1.335	0.015592
-1.330	0.015577
-1.325	0.015518
-1.320	0.015536
-1.315	0.015522
-1.310	0.015495
-1.305	0.015486
-1.300	0.015424
-1.295	0.015391
-1.290	0.015311
-1.285	0.015239
-1.280	0.015188
-1.275	0.015077
-1.270	0.014974
-1.265	0.014892
-1.260	0.014730
-1.255	0.014640
-1.250	0.014532
-1.245	0.014403
-1.240	0.014327
-1.235	0.014252
-1.230	0.014201
-1.225	0.014212
-1.220	0.014166
-1.215	0.014192
-1.210	0.014247
-1.205	0.014308
-1.200	0.014364
-1.195	0.014459
-1.190	0.014566
-1.185	0.014658
-1.180	0.014770
-1.175	0.014844
-1.170	0.014852
-1.165	0.014812
-1.160	0.014759
-1.155	0.014704
-1.150	0.014626
-1.145	0.014571
-1.140	0.014503
-1.135	0.014436
-1.130	0.014336
-1.125	0.014202
-1.120	0.014088
-1.115	0.013997
-1.110	0.013869
-1.105	0.013766
-1.100	0.013683
-1.095	0.013587
-1.090	0.013522
-1.085	0.013425
-1.080	0.013350
-1.075	0.013240
-1.070	0.013158
-1.065	0.013080
-1.060	0.012973
-1.055	0.012888
-1.050	0.012829
-1.045	0.012765
-1.040	0.012757
-1.035	0.012696
-1.030	0.012668
-1.025	0.012636
-1.020	0.012608
-1.015	0.012643
-1.010	0.012581
-1.005	0.012560
-1.000	0.012485
-0.995	0.012471
-0.990	0.012476
-0.985	0.012430
-0.980	0.012354
-0.975	0.012295
-0.970	0.012208
-0.965	0.012112
-0.960	0.012060
-0.955	0.011981
-0.950	0.011900
-0.945	0.011870
-0.940	0.011775
-0.935	0.011670
-0.930	0.011624
-0.925	0.011605
-0.920	0.011553
-0.915	0.011520
-0.910	0.011523
-0.905	0.011564
-0.900	0.011600
-0.895	0.011626
-0.890	0.011682
-0.885	0.011722
-0.880	0.011763
-0.875	0.011815
-0.870	0.011838
-0.865	0.011816
-0.860	0.011829
-0.855	0.011796
-0.850	0.011831
-0.845	0.011763
-0.840	0.011708
-0.835	0.011584
-0.830	0.011516
-0.825	0.011386
-0.820	0.011257
-0.815	0.011127
-0.810	0.010963
-0.805	0.010819
-0.800	0.010628
-0.795	0.010477
-0.790	0.010316
-0.785	0.010125
-0.780	0.009985
-0.775	0.009782
-0.770	0.009630
-0.765	0.009500
-0.760	0.009342
-0.755	0.009239
-0.750	0.009090
-0.745	0.009002
-0.740	0.008885
-0.735	0.008838
-0.730	0.008755
-0.725	0.008649
-0.720	0.008604
-0.715	0.008554
-0.710	0.008510
-0.705	0.008478
-0.700	0.008466
-0.695	0.008425
-0.690	0.008441
-0.685	0.008440
-0.680	0.008425
-0.675	0.008437
-0.670	0.008429
-0.665	0.008455
-0.660	0.008481
-0.655	0.008461
-0.650	0.008466
-0.645	0.008391
-0.640	0.008397
-0.635	0.008376
-0.630	0.008348
-0.625	0.008254
-0.620	0.008236
-0.615	0.008182
-0.610	0.008142
-0.605	0.008107
-0.600	0.007958
-0.595	0.007875
-0.590	0.007838
-0.585	0.007737
-0.580	0.007673
-0.575	0.007591
-0.570	0.007516
-0.565	0.007469
-0.560	0.007393
-0.555	0.007324
-0.550	0.007268
-0.545	0.007205
-0.540	0.007093
-0.535	0.007077
-0.530	0.006999
-0.525	0.006911
-0.520	0.006851
-0.515	0.006767
-0.510	0.006731
-0.505	0.006649
-0.500	0.006595
-0.495	0.006540
-0.490	0.006437
-0.485	0.006384
-0.480	0.006322
-0.475	0.006247
-0.470	0.006172
-0.465	0.006131
-0.460	0.006105
-0.455	0.006011
-0.450	0.005936
-0.445	0.005899
-0.440	0.005878
-0.435	0.005802
-0.430	0.005741
-0.425	0.005652
-0.420	0.005625
-0.415	0.005563
-0.410	0.005562
-0.405	0.005527
-0.400	0.005485
-0.395	0.005436
-0.390	0.005430
-0.385	0.005367
-0.380	0.005311
-0.375	0.005249
-0.370	0.005195
-0.365	0.005147
-0.360	0.005121
-0.355	0.005038
-0.350	0.004956
-0.345	0.004880
-0.340	0.004871
-0.335	0.004795
-0.330	0.004739
-0.325	0.004687
-0.320	0.004653
-0.315	0.004544
-0.310	0.004486
-0.305	0.004377
-0.300	0.004301
-0.295	0.004239
-0.290	0.004176
-0.285	0.004128
-0.280	0.004115
-0.275	0.004028
-0.270	0.003893
-0.265	0.003790
-0.260	0.003688
-0.255	0.003627
-0.250	0.003578
-0.245	0.003494
-0.240	0.003425
-0.235	0.003369
-0.230	0.003293
-0.225	0.003231
-0.220	0.003176
-0.215	0.003108
-0.210	0.002991
-0.205	0.002948
-0.200	0.002873
-0.195	0.002764
-0.190	0.002691
-0.185	0.002548
-0.180	0.002471
-0.175	0.002388
-0.170	0.002307
-0.165	0.002191
-0.160	0.002143
-0.155	0.002074
-0.150	0.002039
-0.145	0.001984
-0.140	0.001915
-0.135	0.001873
-0.130	0.001791
-0.125	0.001744
-0.120	0.001697
-0.115	0.001689
-0.110	0.001714
-0.105	0.001817
-0.100	0.001919
-0.095	0.002041
-0.090	0.002165
-0.085	0.002208
-0.080	0.002312
-0.075	0.002476
-0.070	0.002600
-0.065	0.002647
-0.060	0.002600
-0.055	0.002526
-0.050	0.002334
-0.045	0.002038
-0.040	0.001558
-0.035	0.001017
-0.030	0.000413
-0.025	-0.000308
-0.020	-0.001200
-0.015	-0.002079
-0.010	-0.002882
-0.005	-0.003685
0.000	-0.004387
0.005	-0.004877
0.010	-0.005119
0.015	-0.005027
0.020	-0.004420
0.025	-0.003445
0.030	-0.002196
0.035	-0.000597
0.040	0.001077
0.045	0.002671
0.050	0.004078
0.055	0.005170
0.060	0.005792
0.065	0.005787
0.070	0.005361
0.075	0.004482
0.080	0.003366
0.085	0.001893
0.090	0.000297
0.095	-0.001077
0.100	-0.002216
0.105	-0.003129
0.110	-0.003733
0.115	-0.003974
0.120	-0.003879
0.125	-0.003564
0.130	-0.003185
0.135	-0.002793
0.140	-0.002478
0.145	-0.002196
0.150	-0.002093
0.155	-0.002052
0.160	-0.002004
0.165	-0.001942
0.170	-0.001839
0.175	-0.001832
0.180	-0.001826
0.185	-0.001887
0.190	-0.002018
0.195	-0.002176
0.200	-0.002300
0.205	-0.002368
0.210	-0.002478
0.215	-0.002547
0.220	-0.002671
0.225	-0.002726
0.230	-0.002795
0.235	-0.002856
0.240	-0.002973
0.245	-0.003062
0.250	-0.003199
0.255	-0.003267
0.260	-0.003350
0.265	-0.003439
0.270	-0.003563
0.275	-0.003652
0.280	-0.003763
0.285	-0.003858
0.290	-0.003933
0.295	-0.003980
0.300	-0.004050
0.305	-0.004056
0.310	-0.004146
0.315	-0.004188
0.320	-0.004230
0.325	-0.004285
0.330	-0.004382
0.335	-0.004443
0.340	-0.004547
0.345	-0.004651
0.350	-0.004733
0.355	-0.004766
0.360	-0.004807
0.365	-0.004849
0.370	-0.004932
0.375	-0.005007
0.380	-0.005074
0.385	-0.005101
0.390	-0.005149
0.395	-0.005218
0.400	-0.005231
0.405	-0.005299
0.410	-0.005314
0.415	-0.005370
0.420	-0.005403
0.425	-0.005430
0.430	-0.005471
0.435	-0.005506
0.440	-0.005589
0.445	-0.005624
0.450	-0.005699
0.455	-0.005685
0.460	-0.005754
0.465	-0.005795
0.470	-0.005857
0.475	-0.005906
0.480	-0.005907
0.485	-0.005914
0.490	-0.005968
0.495	-0.005933
0.500	-0.005927
0.505	-0.005926
0.510	-0.005980
0.515	-0.006061
0.520	-0.006075
0.525	-0.006123
0.530	-0.006151
0.535	-0.006247
0.540	-0.006261
0.545	-0.006318
0.550	-0.006367
0.555	-0.006427
0.560	-0.006504
0.565	-0.006601
0.570	-0.006656
0.575	-0.006718
0.580	-0.006808
0.585	-0.006938
0.590	-0.007069
0.595	-0.007213
0.600	-0.007335
0.605	-0.007473
0.610	-0.007604
0.615	-0.007727
0.620	-0.007876
0.625	-0.008026
0.630	-0.008142
0.635	-0.008267
0.640	-0.008397
0.645	-0.008514
0.650	-0.008639
0.655	-0.008797
0.660	-0.008859
0.665	-0.008982
0.670	-0.009079
0.675	-0.009130
0.680	-0.009215
0.685	-0.009305
0.690	-0.009338
0.695	-0.009400
0.700	-0.009419
0.705	-0.009446
0.710	-0.009460
0.715	-0.009440
0.720	-0.009413
0.725	-0.009386
0.730	-0.009401
0.735	-0.009359
0.740	-0.009329
0.745	-0.009267
0.750	-0.009267
0.755	-0.009235
0.760	-0.009227
0.765	-0.009178
0.770	-0.009213
0.775	-0.009192
0.780	-0.009213
0.785	-0.009247
0.790	-0.009337
0.795	-0.009363
0.800	-0.009446
0.805	-0.009550
0.810	-0.009647
0.815	-0.009736
0.820	-0.009891
0.825	-0.009980
0.830	-0.010110
0.835	-0.010212
0.840	-0.010365
0.845	-0.010442
0.850	-0.010506
0.855	-0.010631
0.860	-0.010680
0.865	-0.010778
0.870	-0.010840
0.875	-0.010903
0.880	-0.010959
0.885	-0.011003
0.890	-0.011028
0.895	-0.011077
0.900	-0.011071
0.905	-0.011070
0.910	-0.011125
0.915	-0.011208
0.920	-0.011312
0.925	-0.011385
0.930	-0.011488
0.935	-0.011519
0.940	-0.011625
0.945	-0.011675
0.950	-0.011799
0.955	-0.011878
0.960	-0.011968
0.965	-0.012097
0.970	-0.012207
0.975	-0.012240
0.980	-0.012350
0.985	-0.012440
0.990	-0.012544
0.995	-0.012640
1.000	-0.012709
1.005	-0.012813
1.010	-0.012899
1.015	-0.012967
1.020	-0.013073
1.025	-0.013145
1.030	-0.013242
1.035	-0.013258
1.040	-0.013328
1.045	-0.013387
1.050	-0.013452
1.055	-0.013470
1.060	-0.013485
1.065	-0.013546
1.070	-0.013514
1.075	-0.013485
1.080	-0.013460
1.085	-0.013380
1.090	-0.013350
1.095	-0.013334
1.100	-0.013320
1.105	-0.013312
1.110	-0.013286
1.115	-0.013320
1.120	-0.013340
1.125	-0.013400
1.130	-0.013426
1.135	-0.013553
1.140	-0.013679
1.145	-0.013784
1.150	-0.013879
1.155	-0.014006
1.160	-0.014133
1.165	-0.014214
1.170	-0.014290
1.175	-0.014329
1.180	-0.014384
1.185	-0.014459
1.190	-0.014479
1.195	-0.014477
1.200	-0.014461
1.205	-0.014460
1.210	-0.014499
1.215	-0.014506
1.220	-0.014537
1.225	-0.014585
1.230	-0.014599
1.235	-0.014623
1.240	-0.014644
1.245	-0.014697
1.250	-0.014746
1.255	-0.014775
1.260	-0.014803
1.265	-0.014886
1.270	-0.014928
1.275	-0.015007
1.280	-0.015078
1.285	-0.015154
1.290	-0.015233
1.295	-0.015307
1.300	-0.015383
1.305	-0.015464
1.310	-0.015604
1.315	-0.015715
1.320	-0.015802
1.325	-0.015878
1.330	-0.015926
1.335	-0.015969
1.340	-0.015998
1.345	-0.016015
1.350	-0.015966
1.355	-0.015936
1.360	-0.015832
1.365	-0.015756
1.370	-0.015691
1.375	-0.015586
1.380	-0.015524
1.385	-0.015489
1.390	-0.015522
1.395	-0.015529
1.400	-0.015624
1.405	-0.015695
1.410	-0.015733
1.415	-0.015884
1.420	-0.015962
1.425	-0.016114
1.430	-0.016212
1.435	-0.016260
1.440	-0.016323
1.445	-0.016416
1.450	-0.016409
1.455	-0.016405
1.460	-0.016380
1.465	-0.016322
1.470	-0.016419
1.475	-0.016553
1.480	-0.016688
1.485	-0.016736
1.490	-0.016748
1.495	-0.016833
1.500	-0.016895
1.505	-0.016927
1.510	-0.017080
1.515	-0.017220
1.520	-0.017374
1.525	-0.017546
1.530	-0.017669
1.535	-0.017756
1.540	-0.017851
1.545	-0.017976
1.550	-0.018064
1.555	-0.018121
1.560	-0.018143
1.565	-0.018194
1.570	-0.018235
1.575	-0.018235
1.580	-0.018230
1.585	-0.018212
1.590	-0.018146
1.595	-0.018134
1.600	-0.018107
1.605	-0.018116
1.610	-0.018106
1.615	-0.018098
1.620	-0.018105
1.625	-0.018118
1.630	-0.018153
1.635	-0.018180
1.640	-0.018221
1.645	-0.018261
1.650	-0.018321
1.655	-0.018299
1.660	-0.018326
1.665	-0.018290
1.670	-0.018270
1.675	-0.018164
1.680	-0.018194
1.685	-0.018166
1.690	-0.018197
1.695	-0.018253
1.700	-0.018279
1.705	-0.018322
1.710	-0.018322
1.715	-0.018329
1.720	-0.018366
1.725	-0.018409
1.730	-0.018517
1.735	-0.018627
1.740	-0.018783
1.745	-0.018864
1.750	-0.018953
1.755	-0.019065
1.760	-0.019139
1.765	-0.019183
1.770	-0.019281
1.775	-0.019305
1.780	-0.019275
1.785	-0.019211
1.790	-0.019150
1.795	-0.019053
1.800	-0.019050
1.805	-0.019066
1.810	-0.019014
1.815	-0.019005
1.820	-0.018921
1.825	-0.018912
1.830	-0.018869
1.835	-0.018946
1.840	-0.018940
1.845	-0.018938
1.850	-0.018900
1.855	-0.018889
1.860	-0.018801
1.865	-0.018827
1.870	-0.018823
1.875	-0.018845
1.880	-0.018934
1.885	-0.019047
1.890	-0.019152
1.895	-0.019248
1.900	-0.019341
1.905	-0.019507
1.910	-0.019636
1.915	-0.019726
1.920	-0.019798
1.925	-0.019846
1.930	-0.019874
1.935	-0.019896
1.940	-0.019951
1.945	-0.019973
1.950	-0.020055
1.955	-0.020084
1.960	-0.020017
1.965	-0.020001
1.970	-0.019956
1.975	-0.019911
1.980	-0.019850
1.985	-0.019761
1.990	-0.019717
1.995	-0.019695
2.000	-0.019733
2.005	-0.019747
2.010	-0.019738
2.015	-0.019769
2.020	-0.019782
2.025	-0.019744
2.030	-0.019727
2.035	-0.019769
2.040	-0.019736
2.045	-0.019721
2.050	-0.019746
2.055	-0.019770
2.060	-0.019840
2.065	-0.019898
2.070	-0.020023
2.075	-0.020151
2.080	-0.020295
2.085	-0.020424
2.090	-0.020491
2.095	-0.020535
2.100	-0.020503
2.105	-0.020425
2.110	-0.020384
2.115	-0.020287
2.120	-0.020226
2.125	-0.020100
2.130	-0.019874
2.135	-0.019717
2.140	-0.019590
2.145	-0.019474
2.150	-0.019374
2.155	-0.019301
2.160	-0.019265
2.165	-0.019247
2.170	-0.019261
2.175	-0.019301
2.180	-0.019325
2.185	-0.019403
2.190	-0.019395
2.195	-0.019478
2.200	-0.019486
2.205	-0.019557
2.210	-0.019658
2.215	-0.019790
2.220	-0.019824
2.225	-0.019895
2.230	-0.019876
2.235	-0.019868
2.240	-0.019813
2.245	-0.019795
2.250	-0.019793
2.255	-0.019764
2.260	-0.019749
2.265	-0.019699
2.270	-0.019680
2.275	-0.019664
2.280	-0.019643
2.285	-0.019640
2.290	-0.019655
2.295	-0.019591
2.300	-0.019544
2.305	-0.019547
2.310	-0.019581
2.315	-0.019614
2.320	-0.019674
2.325	-0.019705
2.330	-0.019668
2.335	-0.019698
2.340	-0.019717
2.345	-0.019779
2.350	-0.019831
2.355	-0.019929
2.360	-0.019941
2.365	-0.019951
2.370	-0.019936
2.375	-0.019897
2.380	-0.019871
2.385	-0.019857
2.390	-0.019812
2.395	-0.019820
2.400	-0.019788
2.405	-0.019633
2.410	-0.019525
2.415	-0.019406
2.420	-0.019283
2.425	-0.019157
2.430	-0.018979
2.435	-0.018861
2.440	-0.018785
2.445	-0.018724
2.450	-0.018721
2.455	-0.018736
2.460	-0.018736
2.465	-0.018686
2.470	-0.018654
2.475	-0.018651
2.480	-0.018653
2.485	-0.018728
2.490	-0.018749
2.495	-0.018813
2.500	-0.018892
2.505	-0.018922
2.510	-0.018908
2.515	-0.018867
2.520	-0.018840
2.525	-0.018849
2.530	-0.018790
2.535	-0.018672
2.540	-0.018598
2.545	-0.018565
2.550	-0.018569
2.555	-0.018529
2.560	-0.018436
2.565	-0.018322
2.570	-0.018302
2.575	-0.018253
2.580	-0.018222
2.585	-0.018108
2.590	-0.018065
2.595	-0.017986
2.600	-0.017976
2.605	-0.017951
2.610	-0.017911
2.615	-0.017980
2.620	-0.018070
2.625	-0.018149
2.630	-0.018187
2.635	-0.018220
2.640	-0.018240
2.645	-0.018244
2.650	-0.018184
2.655	-0.018065
2.660	-0.017945
2.665	-0.017845
2.670	-0.017770
2.675	-0.017669
2.680	-0.017562
2.685	-0.017529
2.690	-0.017499
2.695	-0.017416
2.700	-0.017246
2.705	-0.017007
2.710	-0.016869
2.715	-0.016789
2.720	-0.016630
2.725	-0.016477
2.730	-0.016411
2.735	-0.016465
2.740	-0.016501
2.745	-0.016469
2.750	-0.016318
2.755	-0.016197
2.760	-0.016065
2.765	-0.015954
2.770	-0.015854
2.775	-0.015796
2.780	-0.015727
2.785	-0.015664
2.790	-0.015641
2.795	-0.015620
2.800	-0.015614
2.805	-0.015619
2.810	-0.015645
2.815	-0.015554
2.820	-0.015460
2.825	-0.015398
2.830	-0.015448
2.835	-0.015428
2.840	-0.015464
2.845	-0.015520
2.850	-0.015525
2.855	-0.015505
2.860	-0.015451
2.865	-0.015320
2.870	-0.015197
2.875	-0.015130
2.880	-0.015061
2.885	-0.014946
2.890	-0.014828
2.895	-0.014711
2.900	-0.014559
2.905	-0.014517
2.910	-0.014405
2.915	-0.014274
2.920	-0.014156
2.925	-0.014101
2.930	-0.014052
2.935	-0.013902
2.940	-0.013832
2.945	-0.013760
2.950	-0.013746
2.955	-0.013740
2.960	-0.013565
2.965	-0.013481
2.970	-0.013340
2.975	-0.013187
2.980	-0.013006
2.985	-0.012875
2.990	-0.012856
2.995	-0.012838
3.000	-0.012771
3.005	-0.012768
3.010	-0.012709
3.015	-0.012691
3.020	-0.012571
3.025	-0.012490
3.030	-0.012399
3.035	-0.012296
3.040	-0.012130
3.045	-0.012061
3.050	-0.011930
3.055	-0.011875
3.060	-0.011759
3.065	-0.011722
3.070	-0.011634
3.075	-0.011527
3.080	-0.011432
3.085	-0.011357
3.090	-0.011385
3.095	-0.011355
3.100	-0.011368
3.105	-0.011334
3.110	-0.011212
3.115	-0.011117
3.120	-0.011014
3.125	-0.010918
3.130	-0.010878
3.135	-0.010830
3.140	-0.010717
3.145	-0.010585
3.150	-0.010521
3.155	-0.010422
3.160	-0.010373
3.165	-0.010318
3.170	-0.010232
3.175	-0.010137
3.180	-0.010047
3.185	-0.009965
3.190	-0.009854
3.195	-0.009764
3.200	-0.009646
3.205	-0.009550
3.210	-0.009443
3.215	-0.009366
3.220	-0.009269
3.225	-0.009166
3.230	-0.009030
3.235	-0.008901
3.240	-0.008750
3.245	-0.008735
3.250	-0.008700
3.255	-0.008727
3.260	-0.008760
3.265	-0.008779
3.270	-0.008790
3.275	-0.008854
3.280	-0.008860
3.285	-0.008919
3.290	-0.008946
3.295	-0.009077
3.300	-0.009242
3.305	-0.009490
3.310	-0.009730
3.315	-0.009964
3.320	-0.010232
3.325	-0.010503
3.330	-0.010713
3.335	-0.010814
3.340	-0.010821
3.345	-0.010734
3.350	-0.010533
3.355	-0.010279
3.360	-0.009964
3.365	-0.009456
3.370	-0.008816
3.375	-0.008049
3.380	-0.007225
3.385	-0.006267
3.390	-0.005134
3.395	-0.003776
3.400	-0.002485
3.405	-0.001420
3.410	-0.000748
3.415	-0.000405
3.420	-0.000268
3.425	-0.000233
3.430	-0.000261
3.435	-0.000303
3.440	-0.000364
3.445	-0.000439
3.450	-0.000480
3.455	-0.000426
3.460	-0.000385
3.465	-0.000255
3.470	-0.000090
3.475	0.000164
3.480	0.000439
3.485	0.000836
3.490	0.001282
3.495	0.001797
3.500	0.002331
3.505	0.002948
3.510	0.003599
3.515	0.004222
3.520	0.004838
3.525	0.005497
3.530	0.006204
3.535	0.006781
3.540	0.007434
3.545	0.008003
3.550	0.008508
3.555	0.008995
3.560	0.009469
3.565	0.009902
3.570	0.010260
3.575	0.010604
3.580	0.010900
3.585	0.011145
3.590	0.011331
3.595	0.011561
3.600	0.011789
3.605	0.011950
3.610	0.012092
3.615	0.012228
3.620	0.012350
3.625	0.012491
3.630	0.012623
3.635	0.012767
3.640	0.012857
3.645	0.012947
3.650	0.013042
3.655	0.013176
3.660	0.013301
3.665	0.013435
3.670	0.013580
3.675	0.013715
3.680	0.013853
3.685	0.013951
3.690	0.014130
3.695	0.014239
3.700	0.014432
3.705	0.014560
3.710	0.014703
3.715	0.014857
3.720	0.015029
3.725	0.015172
3.730	0.015375
3.735	0.015541
3.740	0.015724
3.745	0.015892
3.750	0.016069
3.755	0.016231
3.760	0.016475
3.765	0.016656
3.770	0.016827
3.775	0.017044
3.780	0.017249
3.785	0.017542
3.790	0.017787
3.795	0.018025
3.800	0.018263
3.805	0.018495
3.810	0.018737
3.815	0.018976
3.820	0.019235
3.825	0.019548
3.830	0.019861
3.835	0.020201
3.840	0.020530
3.845	0.020850
3.850	0.021208
3.855	0.021537
3.860	0.021902
3.865	0.022243
3.870	0.022610
3.875	0.022985
3.880	0.023373
3.885	0.023774
3.890	0.024163
3.895	0.024632
3.900	0.025031
3.905	0.025491
3.910	0.025985
3.915	0.026537
3.920	0.027024
3.925	0.027593
3.930	0.028190
3.935	0.028846
3.940	0.029469
3.945	0.030166
3.950	0.030902
3.955	0.031735
3.960	0.032629
3.965	0.033587
3.970	0.034733
3.975	0.035945
3.980	0.037314
3.985	0.038869
3.990	0.040561
3.995	0.042495
4.000	0.044671
4.005	0.047030
4.010	0.049512
4.015	0.052148
4.020	0.054771
4.025	0.057263
4.030	0.059446
4.035	0.061327
4.040	0.062715
4.045	0.063593
4.050	0.063855
4.055	0.063327
4.060	0.061835
4.065	0.059490
4.070	0.056297
4.075	0.051983
4.080	0.046598
4.085	0.039901
4.090	0.032460
4.095	0.024592
4.100	0.016917
4.105	0.009950
4.110	0.004306
4.115	0.000091
4.120	-0.002764
4.125	-0.004640
4.130	-0.005802
4.135	-0.006537
4.140	-0.007049
4.145	-0.007352
4.150	-0.007653
4.155	-0.007865
4.160	-0.008092
4.165	-0.008243
4.170	-0.008408
4.175	-0.008525
4.180	-0.008662
4.185	-0.008669
4.190	-0.008676
4.195	-0.008649
4.200	-0.008705
4.205	-0.008687
4.210	-0.008750
4.215	-0.008761
4.220	-0.008779
4.225	-0.008813
4.230	-0.008841
4.235	-0.008910
4.240	-0.008930
4.245	-0.008910
4.250	-0.008933
4.255	-0.008891
4.260	-0.008857
4.265	-0.008856
4.270	-0.008891
4.275	-0.008925
4.280	-0.008999
4.285	-0.009024
4.290	-0.009025
4.295	-0.009060
4.300	-0.009021
4.305	-0.009076
4.310	-0.009146
4.315	-0.009256
4.320	-0.009304
4.325	-0.009385
4.330	-0.009399
4.335	-0.009462
4.340	-0.009470
4.345	-0.009489
4.350	-0.009485
4.355	-0.009504
4.360	-0.009539
4.365	-0.009540
4.370	-0.009576
4.375	-0.009567
4.380	-0.009601
4.385	-0.009615
4.390	-0.009662
4.395	-0.009764
4.400	-0.009825
4.405	-0.009869
4.410	-0.009872
4.415	-0.009912
4.420	-0.009980
4.425	-0.010014
4.430	-0.010088
4.435	-0.010156
4.440	-0.010226
4.445	-0.010218
4.450	-0.010231
4.455	-0.010232
4.460	-0.010192
4.465	-0.010213
4.470	-0.010277
4.475	-0.010333
4.480	-0.010409
4.485	-0.010461
4.490	-0.010495
4.495	-0.010537
4.500	-0.010619
4.505	-0.010706
4.510	-0.010747
4.515	-0.010795
4.520	-0.010815
4.525	-0.010822
4.530	-0.010809
4.535	-0.010831
4.540	-0.010951
4.545	-0.011102
4.550	-0.011133
4.555	-0.011173
4.560	-0.011249
4.565	-0.011275
4.570	-0.011304
4.575	-0.011290
4.580	-0.011277
4.585	-0.011354
4.590	-0.011424
4.595	-0.011415
4.600	-0.011477
4.605	-0.011453
4.610	-0.011399
4.615	-0.011421
4.620	-0.011524
4.625	-0.011585
4.630	-0.011676
4.635	-0.011682
4.640	-0.011730
4.645	-0.011826
4.650	-0.011979
4.655	-0.012103
4.660	-0.012245
4.665	-0.012363
4.670	-0.012477
4.675	-0.012574
4.680	-0.012663
4.685	-0.012692
4.690	-0.012671
4.695	-0.012755
4.700	-0.012791
4.705	-0.012763
4.710	-0.012797
4.715	-0.012811
4.720	-0.012860
4.725	-0.012873
4.730	-0.012999
4.735	-0.013036
4.740	-0.013045
4.745	-0.013128
4.750	-0.013172
4.755	-0.013253
4.760	-0.013299
4.765	-0.013381
4.770	-0.013444
4.775	-0.013583
4.780	-0.013661
4.785	-0.013696
4.790	-0.013812
4.795	-0.013955
4.800	-0.014074
4.805	-0.014212
4.810	-0.014302
4.815	-0.014420
4.820	-0.014480
4.825	-0.014508
4.830	-0.014599
4.835	-0.014668
4.840	-0.014803
4.845	-0.014947
4.850	-0.015017
4.855	-0.015089
4.860	-0.015114
4.865	-0.015119
4.870	-0.015215
4.875	-0.015249
4.880	-0.015275
4.885	-0.015310
4.890	-0.015394
4.895	-0.015466
4.900	-0.015522
4.905	-0.015675
4.910	-0.015787
4.915	-0.015902
4.920	-0.015956
4.925	-0.015988
4.930	-0.016053
4.935	-0.016123
4.940	-0.016299
4.945	-0.016500
4.950	-0.016625
4.955	-0.016823
4.960	-0.016969
4.965	-0.017106
4.970	-0.017265
4.975	-0.017426
4.980	-0.017580
4.985	-0.017704
4.990	-0.017801
4.995	-0.017934
5.000	-0.018085
5.005	-0.018197
5.010	-0.018385
5.015	-0.018569
5.020	-0.018762
5.025	-0.018945
5.030	-0.019069
5.035	-0.019233
5.040	-0.019411
5.045	-0.019587
5.050	-0.019786
5.055	-0.019990
5.060	-0.020215
5.065	-0.020391
5.070	-0.020605
5.075	-0.020827
5.080	-0.021037
5.085	-0.021276
5.090	-0.021454
5.095	-0.021625
5.100	-0.021760
5.105	-0.021949
5.110	-0.022149
5.115	-0.022372
5.120	-0.022642
5.125	-0.022924
5.130	-0.023135
5.135	-0.023352
5.140	-0.023559
5.145	-0.023864
5.150	-0.024170
5.155	-0.024470
5.160	-0.024836
5.165	-0.025195
5.170	-0.025663
5.175	-0.026111
5.180	-0.026520
5.185	-0.026975
5.190	-0.027453
5.195	-0.027891
5.200	-0.028333
5.205	-0.028801
5.210	-0.029331
5.215	-0.029949
5.220	-0.030526
5.225	-0.031188
5.230	-0.031794
5.235	-0.032412
5.240	-0.033064
5.245	-0.033795
5.250	-0.034569
5.255	-0.035382
5.260	-0.036263
5.265	-0.037197
5.270	-0.038209
5.275	-0.039316
5.280	-0.040540
5.285	-0.041977
5.290	-0.043594
5.295	-0.045445
5.300	-0.047601
5.305	-0.049868
5.310	-0.052343
5.315	-0.054902
5.320	-0.057405
5.325	-0.059549
5.330	-0.061450
5.335	-0.062638
5.340	-0.063443
5.345	-0.064018
5.350	-0.063531
5.355	-0.062337
5.360	-0.060839
5.365	-0.057902
5.370	-0.053496
5.375	-0.048772
5.380	-0.043795
5.385	-0.037508
5.390	-0.029303
5.395	-0.020351
5.400	-0.012454
5.405	-0.006620
5.410	-0.002865
5.415	-0.000666
5.420	0.000473
5.425	0.001007
5.430	0.001172
5.435	0.001261
5.440	0.001357
5.445	0.001377
5.450	0.001384
5.455	0.001384
5.460	0.001370
5.465	0.001363
5.470	0.001350
5.475	0.001344
5.480	0.001316
5.485	0.001315
5.490	0.001322
5.495	0.001336
5.500	0.001295
5.505	0.001329
5.510	0.001336
5.515	0.001343
5.520	0.001329
5.525	0.001343
5.530	0.001322
5.535	0.001344
5.540	0.001344
5.545	0.001323
5.550	0.001336
5.555	0.001322
5.560	0.001308
5.565	0.001308
5.570	0.001308
5.575	0.001315
5.580	0.001315
5.585	0.001336
5.590	0.001322
5.595	0.001322
5.600	0.001343
5.605	0.001337
5.610	0.001385
5.615	0.001384
5.620	0.001445
5.625	0.001493
5.630	0.001568
5.635	0.001623
5.640	0.001733
5.645	0.001843
5.650	0.001946
5.655	0.002062
5.660	0.002214
5.665	0.002310
5.670	0.002407
5.675	0.002531
5.680	0.002674
5.685	0.002728
5.690	0.002818
5.695	0.002846
5.700	0.002874
5.705	0.002859
5.710	0.002825
5.715	0.002749
5.720	0.002673
5.725	0.002583
5.730	0.002494
5.735	0.002330
5.740	0.002236
5.745	0.002112
5.750	0.002016
5.755	0.001912
5.760	0.001844
5.765	0.001748
5.770	0.001680
5.775	0.001659
5.780	0.001611
5.785	0.001597
5.790	0.001549
5.795	0.001549
5.800	0.001501
5.805	0.001522
5.810	0.001516
5.815	0.001514
5.820	0.001500
5.825	0.001521
5.830	0.001494
5.835	0.001515
5.840	0.001521
5.845	0.001535
5.850	0.001521
5.855	0.001541
5.860	0.001527
5.865	0.001500
5.870	0.001549
5.875	0.001557
5.880	0.001549
5.885	0.001555
5.890	0.001548
5.895	0.001569
5.900	0.001610
5.905	0.001603
5.910	0.001603
5.915	0.001603
5.920	0.001617
5.925	0.001617
5.930	0.001610
5.935	0.001666
5.940	0.001626
5.945	0.001666
5.950	0.001659
5.955	0.001658
5.960	0.001645
5.965	0.001693
5.970	0.001659
5.975	0.001721
5.980	0.001714
5.985	0.001728
5.990	0.001714
5.995	0.001734
6.000	0.001700
6.005	0.001680
6.010	0.001742
6.015	0.001713
6.020	0.001720
6.025	0.001755
6.030	0.001769
6.035	0.001783
6.040	0.001762
6.045	0.001755
6.050	0.001811
6.055	0.001783
6.060	0.001797
6.065	0.001804
6.070	0.001784
6.075	0.001792
6.080	0.001777
6.085	0.001824
6.090	0.001790
6.095	0.001770
6.100	0.001790
6.105	0.001783
6.110	0.001818
6.115	0.001811
6.120	0.001818
6.125	0.001797
6.130	0.001817
6.135	0.001811
6.140	0.001839
6.145	0.001825
6.150	0.001797
6.155	0.001851
6.160	0.001825
6.165	0.001852
6.170	0.001832
6.175	0.001846
6.180	0.001832
6.185	0.001846
6.190	0.001874
6.195	0.001833
6.200	0.001847
6.205	0.001820
6.210	0.001848
6.215	0.001860
6.220	0.001867
6.225	0.001874
6.230	0.001840
6.235	0.001874
6.240	0.001854
6.245	0.001894
6.250	0.001887
6.255	0.001900
6.260	0.001893
6.265	0.001906
6.270	0.001887
6.275	0.001894
6.280	0.001872
6.285	0.001898
6.290	0.001925
6.295	0.001905
6.300	0.001925
6.305	0.001953
6.310	0.001932
6.315	0.001911
6.320	0.001945
6.325	0.001925
6.330	0.001973
6.335	0.001946
6.340	0.001940
6.345	0.001919
6.350	0.001931
6.355	0.001959
6.360	0.001945
6.365	0.001931
6.370	0.001979
6.375	0.001965
6.380	0.001931
6.385	0.001985
6.390	0.002006
6.395	0.001971
6.400	0.001978
6.405	0.001972
6.410	0.001972
6.415	0.001970
6.420	0.001971
6.425	0.002005
6.430	0.001971
6.435	0.001964
6.440	0.001984
6.445	0.001992
6.450	0.002019
6.455	0.001977
6.460	0.001992
6.465	0.002005
6.470	0.002013
6.475	0.001992
6.480	0.002026
6.485	0.002004
6.490	0.002004
6.495	0.002032
6.500	0.002039
6.505	0.002025
6.510	0.002018
6.515	0.002052
6.520	0.002046
6.525	0.002052
6.530	0.002038
6.535	0.002046
6.540	0.002027
6.545	0.002075
6.550	0.002067
6.555	0.002032
6.560	0.002087
6.565	0.002066
6.570	0.002080
6.575	0.002073
6.580	0.002114
6.585	0.002093
6.590	0.002114
6.595	0.002113
6.600	0.002128
6.605	0.002162
6.610	0.002155
6.615	0.002168
6.620	0.002181
6.625	0.002181
6.630	0.002188
6.635	0.002195
6.640	0.002229
6.645	0.002187
6.650	0.002208
6.655	0.002221
6.660	0.002221
6.665	0.002214
6.670	0.002216
6.675	0.002168
6.680	0.002174
6.685	0.002201
6.690	0.002180
6.695	0.002208
6.700	0.002242
6.705	0.002222
6.710	0.002208
6.715	0.002228
6.720	0.002263
6.725	0.002276
6.730	0.002228
6.735	0.002257
6.740	0.002250
6.745	0.002256
6.750	0.002276
6.755	0.002248
6.760	0.002249
6.765	0.002276
6.770	0.002303
6.775	0.002263
6.780	0.002263
6.785	0.002264
6.790	0.002298
6.795	0.002292
6.800	0.002286
6.805	0.002239
6.810	0.002253
6.815	0.002259
6.820	0.002266
6.825	0.002280
6.830	0.002253
6.835	0.002260
6.840	0.002260
6.845	0.002281
6.850	0.002267
6.855	0.002252
6.860	0.002272
6.865	0.002258
6.870	0.002252
6.875	0.002258
6.880	0.002277
6.885	0.002236
6.890	0.002276
6.895	0.002311
6.900	0.002283
6.905	0.002290
6.910	0.002304
6.915	0.002311
6.920	0.002332
6.925	0.002291
6.930	0.002312
6.935	0.002292
6.940	0.002300
6.945	0.002307
6.950	0.002320
6.955	0.002333
6.960	0.002305
6.965	0.002346
6.970	0.002333
6.975	0.002319
6.980	0.002332
6.985	0.002359
6.990	0.002358
6.995	0.002365
7.000	0.002365
7.005	0.002345
7.010	0.002359
7.015	0.002377
7.020	0.002371
7.025	0.002378
7.030	0.002419
7.035	0.002405
7.040	0.002405
7.045	0.002412
7.050	0.002412
7.055	0.002432
7.060	0.002404
7.065	0.002412
7.070	0.002406
7.075	0.002414
7.080	0.002433
7.085	0.002412
7.090	0.002446
7.095	0.002446
7.100	0.002467
7.105	0.002439
7.110	0.002447
7.115	0.002453
7.120	0.002522
7.125	0.002481
7.130	0.002481
7.135	0.002503
7.140	0.002483
7.145	0.002503
7.150	0.002523
7.155	0.002516
7.160	0.002509
7.165	0.002536
7.170	0.002517
7.175	0.002544
7.180	0.002578
7.185	0.002565
7.190	0.002585
7.195	0.002550
7.200	0.002558
7.205	0.002579
7.210	0.002587
7.215	0.002591
7.220	0.002599
7.225	0.002606
7.230	0.002606
7.235	0.002620
7.240	0.002620
7.245	0.002627
7.250	0.002620
7.255	0.002669
7.260	0.002648
7.265	0.002669
7.270	0.002664
7.275	0.002691
7.280	0.002697
7.285	0.002676
7.290	0.002717
7.295	0.002697
7.300	0.002704
7.305	0.002718
7.310	0.002725
7.315	0.002725
7.320	0.002697
7.325	0.002752
7.330	0.002745
7.335	0.002740
7.340	0.002762
7.345	0.002741
7.350	0.002781
7.355	0.002767
7.360	0.002767
7.365	0.002775
7.370	0.002789
7.375	0.002754
7.380	0.002768
7.385	0.002789
7.390	0.002824
7.395	0.002795
7.400	0.002824
7.405	0.002810
7.410	0.002804
7.415	0.002816
7.420	0.002829
7.425	0.002830
7.430	0.002810
7.435	0.002831
7.440	0.002845
7.445	0.002846
7.450	0.002855
7.455	0.002855
7.460	0.002856
7.465	0.002871
7.470	0.002860
7.475	0.002848
7.480	0.002841
7.485	0.002881
7.490	0.002853
7.495	0.002907
7.500	0.002942
7.505	0.002926
7.510	0.002946
7.515	0.002945
7.520	0.002922
7.525	0.002969
7.530	0.002934
7.535	0.002969
7.540	0.003003
7.545	0.002979
7.550	0.002978
7.555	0.002998
7.560	0.003004
7.565	0.003025
7.570	0.003025
7.575	0.003052
7.580	0.003045
7.585	0.003052
7.590	0.003067
7.595	0.003061
7.600	0.003077
7.605	0.003052
7.610	0.003063
7.615	0.003050
7.620	0.003075
7.625	0.003078
7.630	0.003069
7.635	0.003115
7.640	0.003059
7.645	0.003060
7.650	0.003070
7.655	0.003046
7.660	0.003026
7.665	0.002991
7.670	0.002985
7.675	0.003011
7.680	0.003039
7.685	0.003031
7.690	0.002988
7.695	0.003023
7.700	0.003074
7.705	0.003070
7.710	0.003090
7.715	0.003126
7.720	0.003132
7.725	0.003159
7.730	0.003175
7.735	0.003296
7.740	0.003267
7.745	0.003278
7.750	0.003307
7.755	0.003304
7.760	0.003358
7.765	0.003364
7.770	0.003398
7.775	0.003371
7.780	0.003406
7.785	0.003413
7.790	0.003429
7.795	0.003408
7.800	0.003436
7.805	0.003428
7.810	0.003467
7.815	0.003457
7.820	0.003469
7.825	0.003482
7.830	0.003468
7.835	0.003501
7.840	0.003502
7.845	0.003501
7.850	0.003522
7.855	0.003528
7.860	0.003534
7.865	0.003521
7.870	0.003570
7.875	0.003577
7.880	0.003555
7.885	0.003561
7.890	0.003596
7.895	0.003588
7.900	0.003616
7.905	0.003643
7.910	0.003644
7.915	0.003643
7.920	0.003698
7.925	0.003656
7.930	0.003677
7.935	0.003685
7.940	0.003706
7.945	0.003691
7.950	0.003717
7.955	0.003704
7.960	0.003718
7.965	0.003732
7.970	0.003739
7.975	0.003767
7.980	0.003766
7.985	0.003807
7.990	0.003793
7.995	0.003800
8.000	0.003808
8.005	0.003809
8.010	0.003850
8.015	0.003813
8.020	0.003855
8.025	0.003889
8.030	0.003889
8.035	0.003902
8.040	0.003902
8.045	0.003902
8.050	0.003929
8.055	0.003915
8.060	0.003943
8.065	0.003971
8.070	0.003938
8.075	0.004001
8.080	0.003985
8.085	0.003971
8.090	0.004007
8.095	0.004022
8.100	0.004022
8.105	0.004029
8.110	0.004092
8.115	0.004070
8.120	0.004110
8.125	0.004150
8.130	0.004115
8.135	0.004164
8.140	0.004151
8.145	0.004191
8.150	0.004189
8.155	0.004211
8.160	0.004211
8.165	0.004231
8.170	0.004245
8.175	0.004258
8.180	0.004279
8.185	0.004286
8.190	0.004300
8.195	0.004299
8.200	0.004343
8.205	0.004343
8.210	0.004316
8.215	0.004355
8.220	0.004431
8.225	0.004404
8.230	0.004451
8.235	0.004479
8.240	0.004486
8.245	0.004494
8.250	0.004480
8.255	0.004500
8.260	0.004527
8.265	0.004541
8.270	0.004563
8.275	0.004585
8.280	0.004589
8.285	0.004589
8.290	0.004623
8.295	0.004624
8.300	0.004651
8.305	0.004665
8.310	0.004692
8.315	0.004733
8.320	0.004754
8.325	0.004746
8.330	0.004768
8.335	0.004756
8.340	0.004826
8.345	0.004803
8.350	0.004836
8.355	0.004858
8.360	0.004886
8.365	0.004878
8.370	0.004942
8.375	0.004948
8.380	0.004976
8.385	0.004963
8.390	0.005038
8.395	0.005017
8.400	0.005042
8.405	0.005036
8.410	0.005091
8.415	0.005096
8.420	0.005096
8.425	0.005138
8.430	0.005145
8.435	0.005201
8.440	0.005202
8.445	0.005223
8.450	0.005225
8.455	0.005267
8.460	0.005274
8.465	0.005310
8.470	0.005341
8.475	0.005362
8.480	0.005352
8.485	0.005372
8.490	0.005415
8.495	0.005415
8.500	0.005457
8.505	0.005480
8.510	0.005482
8.515	0.005525
8.520	0.005566
8.525	0.005593
8.530	0.005599
8.535	0.005607
8.540	0.005656
8.545	0.005654
8.550	0.005695
8.555	0.005720
8.560	0.005754
8.565	0.005760
8.570	0.005797
8.575	0.005824
8.580	0.005820
8.585	0.005839
8.590	0.005887
8.595	0.005913
8.600	0.005935
8.605	0.005962
8.610	0.005972
8.615	0.006008
8.620	0.006057
8.625	0.006078
8.630	0.006119
8.635	0.006119
8.640	0.006181
8.645	0.006208
8.650	0.006229
8.655	0.006242
8.660	0.006324
8.665	0.006375
8.670	0.006364
8.675	0.006400
8.680	0.006413
8.685	0.006462
8.690	0.006455
8.695	0.006502
8.700	0.006528
8.705	0.006582
8.710	0.006619
8.715	0.006663
8.720	0.006720
8.725	0.006830
8.730	0.006891
8.735	0.006517
8.740	0.006124
8.745	0.006295
8.750	0.006694
8.755	0.006924
8.760	0.007000
8.765	0.007047
8.770	0.007089
8.775	0.007115
8.780	0.007157
8.785	0.007225
8.790	0.007238
8.795	0.007252
8.800	0.007317
8.805	0.007353
8.810	0.007379
8.815	0.007424
8.820	0.007479
8.825	0.007520
8.830	0.007583
8.835	0.007631
8.840	0.007653
8.845	0.007695
8.850	0.007764
8.855	0.007783
8.860	0.007836
8.865	0.007926
8.870	0.007868
8.875	0.007908
8.880	0.008011
8.885	0.008126
8.890	0.008142
8.895	0.008197
8.900	0.008272
8.905	0.008356
8.910	0.008437
8.915	0.008507
8.920	0.008492
8.925	0.008535
8.930	0.008622
8.935	0.008694
8.940	0.008772
8.945	0.008810
8.950	0.008884
8.955	0.008972
8.960	0.009008
8.965	0.009092
8.970	0.009169
8.975	0.009223
8.980	0.009325
8.985	0.009420
8.990	0.009423
8.995	0.009508
9.000	0.009606
9.005	0.009710
9.010	0.009755
9.015	0.009835
9.020	0.009959
9.025	0.010034
9.030	0.010098
9.035	0.010202
9.040	0.010264
9.045	0.010372
9.050	0.010477
9.055	0.010593
9.060	0.010670
9.065	0.010783
9.070	0.010888
9.075	0.010991
9.080	0.011102
9.085	0.011206
9.090	0.011357
9.095	0.011441
9.100	0.011554
9.105	0.011688
9.110	0.011814
9.115	0.011974
9.120	0.012070
9.125	0.012222
9.130	0.012364
9.135	0.012514
9.140	0.012648
9.145	0.012789
9.150	0.012964
9.155	0.013098
9.160	0.013265
9.165	0.013458
9.170	0.013665
9.175	0.013845
9.180	0.014056
9.185	0.014306
9.190	0.014531
9.195	0.014771
9.200	0.014999
9.205	0.015215
9.210	0.015479
9.215	0.015779
9.220	0.016021
9.225	0.016300
9.230	0.016626
9.235	0.016927
9.240	0.017253
9.245	0.017594
9.250	0.017927
9.255	0.018291
9.260	0.018677
9.265	0.019016
9.270	0.019446
9.275	0.019845
9.280	0.020255
9.285	0.020719
9.290	0.021177
9.295	0.021691
9.300	0.022263
9.305	0.022843
9.310	0.023471
9.315	0.024137
9.320	0.024905
9.325	0.025637
9.330	0.026501
9.335	0.027462
9.340	0.028588
9.345	0.029922
9.350	0.031438
9.355	0.033222
9.360	0.035404
9.365	0.037729
9.370	0.040091
9.375	0.042271
9.380	0.044133
9.385	0.045810
9.390	0.047017
9.395	0.047811
9.400	0.048208
9.405	0.047970
9.410	0.046872
9.415	0.044906
9.420	0.042326
9.425	0.039204
9.430	0.034999
9.435	0.029537
9.440	0.022936
9.445	0.016059
9.450	0.009957
9.455	0.005260
9.460	0.002079
9.465	0.000137
9.470	-0.000902
9.475	-0.001411
9.480	-0.001672
9.485	-0.001782
9.490	-0.001872
9.495	-0.001927
9.500	-0.001947
9.505	-0.001975
9.510	-0.001975
9.515	-0.001975
9.520	-0.002002
9.525	-0.001995
9.530	-0.002002
9.535	-0.002009
9.540	-0.001989
9.545	-0.002044
9.550	-0.002023
9.555	-0.002002
9.560	-0.002030
9.565	-0.002044
9.570	-0.002044
9.575	-0.002051
9.580	-0.002037
9.585	-0.002051
9.590	-0.002044
9.595	-0.002058
9.600	-0.002065
9.605	-0.002058
9.610	-0.002085
9.615	-0.002051
9.620	-0.002058
9.625	-0.002071
9.630	-0.002037
9.635	-0.002037
9.640	-0.002078
9.645	-0.002065
9.650	-0.002077
9.655	-0.002042
9.660	-0.002042
9.665	-0.002084
9.670	-0.002070
9.675	-0.002042
9.680	-0.002091
9.685	-0.002084
9.690	-0.002091
9.695	-0.002091
9.700	-0.002091
9.705	-0.002111
9.710	-0.002111
9.715	-0.002098
9.720	-0.002091
9.725	-0.002077
9.730	-0.002077
9.735	-0.002084
9.740	-0.002091
9.745	-0.002070
9.750	-0.002077
9.755	-0.002112
9.760	-0.002084
9.765	-0.002091
9.770	-0.002105
9.775	-0.002091
9.780	-0.002105
9.785	-0.002091
9.790	-0.002077
9.795	-0.002119
9.800	-0.002098
9.805	-0.002112
9.810	-0.002091
9.815	-0.002098
9.820	-0.002119
9.825	-0.002105
9.830	-0.002091
9.835	-0.002126
9.840	-0.002112
9.845	-0.002085
9.850	-0.002140
9.855	-0.002133
9.860	-0.002133
9.865	-0.002105
9.870	-0.002105
9.875	-0.002133
9.880	-0.002085
9.885	-0.002099
9.890	-0.002099
9.895	-0.002126
9.900	-0.002140
9.905	-0.002140
9.910	-0.002154
9.915	-0.002147
9.920	-0.002140
9.925	-0.002120
9.930	-0.002126
9.935	-0.002120
9.940	-0.002120
9.945	-0.002092
9.950	-0.002113
9.955	-0.002127
9.960	-0.002120
9.965	-0.002154
9.970	-0.002140
9.975	-0.002134
9.980	-0.002134
9.985	-0.002127
9.990	-0.002141
9.995	-0.002106
10.000	-0.002141
10.005	-0.002134
10.010	-0.002148
10.015	-0.002127
10.020	-0.002148
10.025	-0.002162
10.030	-0.002155
10.035	-0.002141
10.040	-0.002148
10.045	-0.002120
10.050	-0.002141
10.055	-0.002141
10.060	-0.002148
10.065	-0.002148
10.070	-0.002155
10.075	-0.002141
10.080	-0.002155
10.085	-0.002155
10.090	-0.002155
10.095	-0.002162
10.100	-0.002162
10.105	-0.002176
10.110	-0.002169
10.115	-0.002176
10.120	-0.002148
10.125	-0.002155
10.130	-0.002176
10.135	-0.002155
10.140	-0.002142
10.145	-0.002176
10.150	-0.002149
10.155	-0.002176
10.160	-0.002156
10.165	-0.002183
10.170	-0.002183
10.175	-0.002183
10.180	-0.002190
10.185	-0.002190
10.190	-0.002176
10.195	-0.002156
10.200	-0.002156
10.205	-0.002169
10.210	-0.002197
10.215	-0.002197
10.220	-0.002183
10.225	-0.002204
10.230	-0.002183
10.235	-0.002204
10.240	-0.002218
10.245	-0.002190
10.250	-0.002211
10.255	-0.002204
10.260	-0.002190
10.265	-0.002204
10.270	-0.002190
10.275	-0.002197
10.280	-0.002218
10.285	-0.002218
10.290	-0.002211
10.295	-0.002225
10.300	-0.002245
10.305	-0.002238
10.310	-0.002259
10.315	-0.002231
10.320	-0.002231
10.325	-0.002245
10.330	-0.002225
10.335	-0.002232
10.340	-0.002252
10.345	-0.002204
10.350	-0.002218
10.355	-0.002239
10.360	-0.002232
10.365	-0.002252
10.370	-0.002232
10.375	-0.002245
10.380	-0.002266
10.385	-0.002252
10.390	-0.002300
10.395	-0.002294
10.400	-0.002287
10.405	-0.002280
10.410	-0.002266
10.415	-0.002266
10.420	-0.002252
10.425	-0.002259
10.430	-0.002259
10.435	-0.002280
10.440	-0.002273
10.445	-0.002294
10.450	-0.002280
10.455	-0.002294
10.460	-0.002287
10.465	-0.002308
10.470	-0.002307
10.475	-0.002232
10.480	-0.002273
10.485	-0.002280
10.490	-0.002328
10.495	-0.002287
10.500	-0.002294
10.505	-0.002301
10.510	-0.002314
10.515	-0.002294
10.520	-0.002280
10.525	-0.002301
10.530	-0.002314
10.535	-0.002294
10.540	-0.002308
10.545	-0.002287
10.550	-0.002328
10.555	-0.002321
10.560	-0.002322
10.565	-0.002308
10.570	-0.002342
10.575	-0.002328
10.580	-0.002328
10.585	-0.002301
10.590	-0.002349
10.595	-0.002335
10.600	-0.002335
10.605	-0.002342
10.610	-0.002342
10.615	-0.002342
10.620	-0.002377
10.625	-0.002336
10.630	-0.002349
10.635	-0.002342
10.640	-0.002356
10.645	-0.002356
10.650	-0.002349
10.655	-0.002315
10.660	-0.002342
10.665	-0.002363
10.670	-0.002370
10.675	-0.002349
10.680	-0.002349
10.685	-0.002377
10.690	-0.002363
10.695	-0.002377
10.700	-0.002384
10.705	-0.002377
10.710	-0.002377
10.715	-0.002398
10.720	-0.002370
10.725	-0.002384
10.730	-0.002377
10.735	-0.002377
10.740	-0.002384
10.745	-0.002370
10.750	-0.002363
10.755	-0.002426
10.760	-0.002377
10.765	-0.002412
10.770	-0.002398
10.775	-0.002398
10.780	-0.002405
10.785	-0.002425
10.790	-0.002419
10.795	-0.002419
10.800	-0.002405
10.805	-0.002391
10.810	-0.002398
10.815	-0.002405
10.820	-0.002412
10.825	-0.002391
10.830	-0.002419
10.835	-0.002419
10.840	-0.002405
10.845	-0.002432
10.850	-0.002439
10.855	-0.002398
10.860	-0.002426
10.865	-0.002419
10.870	-0.002433
10.875	-0.002419
10.880	-0.002399
10.885	-0.002426
10.890	-0.002440
10.895	-0.002413
10.900	-0.002426
10.905	-0.002433
10.910	-0.002454
10.915	-0.002426
10.920	-0.002426
10.925	-0.002440
10.930	-0.002447
10.935	-0.002433
10.940	-0.002440
10.945	-0.002406
10.950	-0.002447
10.955	-0.002447
10.960	-0.002434
10.965	-0.002461
10.970	-0.002468
10.975	-0.002475
10.980	-0.002454
10.985	-0.002454
10.990	-0.002475
10.995	-0.002454
11.000	-0.002461
11.005	-0.002454
11.010	-0.002495
11.015	-0.002454
11.020	-0.002475
11.025	-0.002454
11.030	-0.002461
11.035	-0.002454
11.040	-0.002496
11.045	-0.002475
11.050	-0.002475
11.055	-0.002503
11.060	-0.002489
11.065	-0.002475
11.070	-0.002448
11.075	-0.002489
11.080	-0.002489
11.085	-0.002475
11.090	-0.002517
11.095	-0.002503
11.100	-0.002503
11.105	-0.002510
11.110	-0.002510
11.115	-0.002496
11.120	-0.002489
11.125	-0.002496
11.130	-0.002476
11.135	-0.002510
11.140	-0.002496
11.145	-0.002517
11.150	-0.002476
11.155	-0.002504
11.160	-0.002497
11.165	-0.002559
11.170	-0.002531
11.175	-0.002524
11.180	-0.002517
11.185	-0.002524
11.190	-0.002524
11.195	-0.002504
11.200	-0.002504
11.205	-0.002497
11.210	-0.002504
11.215	-0.002504
11.220	-0.002511
11.225	-0.002511
11.230	-0.002525
11.235	-0.002525
11.240	-0.002580
11.245	-0.002538
11.250	-0.002490
11.255	-0.002545
11.260	-0.002559
11.265	-0.002525
11.270	-0.002518
11.275	-0.002511
11.280	-0.002518
11.285	-0.002552
11.290	-0.002532
11.295	-0.002518
11.300	-0.002566
11.305	-0.002566
11.310	-0.002559
11.315	-0.002539
11.320	-0.002546
11.325	-0.002553
11.330	-0.002566
11.335	-0.002560
11.340	-0.002532
11.345	-0.002560
11.350	-0.002560
11.355	-0.002546
11.360	-0.002546
11.365	-0.002601
11.370	-0.002566
11.375	-0.002580
11.380	-0.002573
11.385	-0.002573
11.390	-0.002573
11.395	-0.002567
11.400	-0.002560
11.405	-0.002560
11.410	-0.002580
11.415	-0.002560
11.420	-0.002574
11.425	-0.002533
11.430	-0.002560
11.435	-0.002594
11.440	-0.002601
11.445	-0.002574
11.450	-0.002560
11.455	-0.002581
11.460	-0.002587
11.465	-0.002608
11.470	-0.002594
11.475	-0.002574
11.480	-0.002594
11.485	-0.002601
11.490	-0.002588
11.495	-0.002560
11.500	-0.002581
11.505	-0.002622
11.510	-0.002595
11.515	-0.002574
11.520	-0.002595
11.525	-0.002608
11.530	-0.002588
11.535	-0.002581
11.540	-0.002595
11.545	-0.002615
11.550	-0.002581
11.555	-0.002629
11.560	-0.002567
11.565	-0.002595
11.570	-0.002615
11.575	-0.002615
11.580	-0.002616
11.585	-0.002629
11.590	-0.002629
11.595	-0.002602
11.600	-0.002588
11.605	-0.002623
11.610	-0.002595
11.615	-0.002623
11.620	-0.002629
11.625	-0.002609
11.630	-0.002630
11.635	-0.002643
11.640	-0.002616
11.645	-0.002643
11.650	-0.002636
11.655	-0.002630
11.660	-0.002616
11.665	-0.002623
11.670	-0.002643
11.675	-0.002643
11.680	-0.002671
11.685	-0.002650
11.690	-0.002671
11.695	-0.002658
11.700	-0.002630
11.705	-0.002644
11.710	-0.002644
11.715	-0.002637
11.720	-0.002664
11.725	-0.002644
11.730	-0.002651
11.735	-0.002651
11.740	-0.002664
11.745	-0.002623
11.750	-0.002664
11.755	-0.002658
11.760	-0.002644
11.765	-0.002658
11.770	-0.002644
11.775	-0.002665
11.780	-0.002651
11.785	-0.002658
11.790	-0.002651
11.795	-0.002665
11.800	-0.002686
11.805	-0.002644
11.810	-0.002651
11.815	-0.002686
11.820	-0.002672
11.825	-0.002707
11.830	-0.002693
11.835	-0.002693
11.840	-0.002693
11.845	-0.002700
11.850	-0.002672
11.855	-0.002693
11.860	-0.002679
11.865	-0.002665
11.870	-0.002693
11.875	-0.002658
11.880	-0.002672
11.885	-0.002693
11.890	-0.002721
11.895	-0.002693
11.900	-0.002679
11.905	-0.002714
11.910	-0.002693
11.915	-0.002693
11.920	-0.002727
11.925	-0.002693
11.930	-0.002714
11.935	-0.002693
11.940	-0.002728
11.945	-0.002679
11.950	-0.002728
11.955	-0.002707
11.960	-0.002707
11.965	-0.002728
11.970	-0.002735
11.975	-0.002721
11.980	-0.002721
11.985	-0.002714
11.990	-0.002728
11.995	-0.002707
12.000	-0.002735
12.005	-0.002735
12.010	-0.002742
12.015	-0.002721
12.020	-0.002708
12.025	-0.002701
12.030	-0.002708
12.035	-0.002756
12.040	-0.002742
12.045	-0.002756
12.050	-0.002783
12.055	-0.002763
12.060	-0.002728
12.065	-0.002742
12.070	-0.002728
12.075	-0.002763
12.080	-0.002728
12.085	-0.002735
12.090	-0.002756
12.095	-0.002784
12.100	-0.002756
12.105	-0.002763
12.110	-0.002763
12.115	-0.002749
12.120	-0.002763
12.125	-0.002756
12.130	-0.002770
12.135	-0.002749
12.140	-0.002756
12.145	-0.002763
12.150	-0.002790
12.155	-0.002784
12.160	-0.002763
12.165	-0.002784
12.170	-0.002804
12.175	-0.002790
12.180	-0.002777
12.185	-0.002790
12.190	-0.002811
12.195	-0.002784
12.200	-0.002791
12.205	-0.002804
12.210	-0.002790
12.215	-0.002790
12.220	-0.002791
12.225	-0.002805
12.230	-0.002832
12.235	-0.002818
12.240	-0.002818
12.245	-0.002818
12.250	-0.002804
12.255	-0.002818
12.260	-0.002797
12.265	-0.002777
12.270	-0.002845
12.275	-0.002790
12.280	-0.002804
12.285	-0.002797
12.290	-0.002832
12.295	-0.002825
12.300	-0.002845
12.305	-0.002859
12.310	-0.002831
12.315	-0.002866
12.320	-0.002838
12.325	-0.002825
12.330	-0.002845
12.335	-0.002831
12.340	-0.002818
12.345	-0.002825
12.350	-0.002831
12.355	-0.002873
12.360	-0.002873
12.365	-0.002866
12.370	-0.002831
12.375	-0.002845
12.380	-0.002838
12.385	-0.002866
12.390	-0.002859
12.395	-0.002852
12.400	-0.002886
12.405	-0.002873
12.410	-0.002879
12.415	-0.002866
12.420	-0.002873
12.425	-0.002894
12.430	-0.002887
12.435	-0.002845
12.440	-0.002886
12.445	-0.002886
12.450	-0.002872
12.455	-0.002859
12.460	-0.002879
12.465	-0.002879
12.470	-0.002879
12.475	-0.002879
12.480	-0.002914
12.485	-0.002907
12.490	-0.002866
12.495	-0.002907
12.500	-0.002907
12.505	-0.002921
12.510	-0.002914
12.515	-0.002886
12.520	-0.002893
12.525	-0.002893
12.530	-0.002914
12.535	-0.002920
12.540	-0.002941
12.545	-0.002906
12.550	-0.002906
12.555	-0.002948
12.560	-0.002955
12.565	-0.002914
12.570	-0.002954
12.575	-0.002913
12.580	-0.002961
12.585	-0.002955
12.590	-0.002934
12.595	-0.002941
12.600	-0.002954
12.605	-0.002941
12.610	-0.002955
12.615	-0.002948
12.620	-0.002969
12.625	-0.002914
12.630	-0.002962
12.635	-0.002989
12.640	-0.002989
12.645	-0.002975
12.650	-0.002975
12.655	-0.002982
12.660	-0.002982
12.665	-0.002982
12.670	-0.002955
12.675	-0.002961
12.680	-0.002982
12.685	-0.002961
12.690	-0.002982
12.695	-0.003010
12.700	-0.002989
12.705	-0.002982
12.710	-0.003002
12.715	-0.002975
12.720	-0.003023
12.725	-0.002996
12.730	-0.002982
12.735	-0.002975
12.740	-0.003009
12.745	-0.002989
12.750	-0.003009
12.755	-0.002996
12.760	-0.002996
12.765	-0.003030
12.770	-0.003044
12.775	-0.003009
12.780	-0.003037
12.785	-0.003023
12.790	-0.003016
12.795	-0.002989
12.800	-0.003030
12.805	-0.003044
12.810	-0.003009
12.815	-0.003009
12.820	-0.003044
12.825	-0.003037
12.830	-0.003044
12.835	-0.003023
12.840	-0.003064
12.845	-0.003043
12.850	-0.003057
12.855	-0.003064
12.860	-0.003064
12.865	-0.003057
12.870	-0.003071
12.875	-0.003071
12.880	-0.003078
12.885	-0.003085
12.890	-0.003058
12.895	-0.003051
12.900	-0.003092
12.905	-0.003092
12.910	-0.003085
12.915	-0.003085
12.920	-0.003085
12.925	-0.003071
12.930	-0.003092
12.935	-0.003133
12.940	-0.003112
12.945	-0.003092
12.950	-0.003119
12.955	-0.003071
12.960	-0.003092
12.965	-0.003099
12.970	-0.003112
12.975	-0.003119
12.980	-0.003126
12.985	-0.003112
12.990	-0.003119
12.995	-0.003078
13.000	-0.003099
13.005	-0.003112
13.010	-0.003105
13.015	-0.003112
13.020	-0.003126
13.025	-0.003147
13.030	-0.003147
13.035	-0.003147
13.040	-0.003126
13.045	-0.003126
13.050	-0.003119
13.055	-0.003161
13.060	-0.003161
13.065	-0.003119
13.070	-0.003154
13.075	-0.003140
13.080	-0.003126
13.085	-0.003133
13.090	-0.003175
13.095	-0.003182
13.100	-0.003120
13.105	-0.003195
13.110	-0.003126
13.115	-0.003140
13.120	-0.003168
13.125	-0.003154
13.130	-0.003175
13.135	-0.003175
13.140	-0.003168
13.145	-0.003168
13.150	-0.003168
13.155	-0.003175
13.160	-0.003175
13.165	-0.003168
13.170	-0.003189
13.175	-0.003182
13.180	-0.003168
13.185	-0.003223
13.190	-0.003161
13.195	-0.003175
13.200	-0.003182
13.205	-0.003196
13.210	-0.003182
13.215	-0.003162
13.220	-0.003183
13.225	-0.003190
13.230	-0.003217
13.235	-0.003217
13.240	-0.003203
13.245	-0.003217
13.250	-0.003196
13.255	-0.003189
13.260	-0.003210
13.265	-0.003210
13.270	-0.003190
13.275	-0.003190
13.280	-0.003217
13.285	-0.003211
13.290	-0.003218
13.295	-0.003225
13.300	-0.003211
13.305	-0.003224
13.310	-0.003204
13.315	-0.003225
13.320	-0.003211
13.325	-0.003197
13.330	-0.003252
13.335	-0.003211
13.340	-0.003197
13.345	-0.003273
13.350	-0.003232
13.355	-0.003239
13.360	-0.003246
13.365	-0.003260
13.370	-0.003260
13.375	-0.003232
13.380	-0.003273
13.385	-0.003239
13.390	-0.003246
13.395	-0.003260
13.400	-0.003239
13.405	-0.003273
13.410	-0.003260
13.415	-0.003246
13.420	-0.003247
13.425	-0.003233
13.430	-0.003268
13.435	-0.003253
13.440	-0.003281
13.445	-0.003267
13.450	-0.003246
13.455	-0.003267
13.460	-0.003267
13.465	-0.003260
13.470	-0.003288
13.475	-0.003301
13.480	-0.003281
13.485	-0.003295
13.490	-0.003288
13.495	-0.003288
13.500	-0.003295
13.505	-0.003302
13.510	-0.003309
13.515	-0.003315
13.520	-0.003308
13.525	-0.003302
13.530	-0.003309
13.535	-0.003302
13.540	-0.003309
13.545	-0.003295
13.550	-0.003309
13.555	-0.003316
13.560	-0.003310
13.565	-0.003330
13.570	-0.003316
13.575	-0.003316
13.580	-0.003343
13.585	-0.003316
13.590	-0.003309
13.595	-0.003336
13.600	-0.003357
13.605	-0.003336
13.610	-0.003350
13.615	-0.003336
13.620	-0.003343
13.625	-0.003364
13.630	-0.003357
13.635	-0.003364
13.640	-0.003364
13.645	-0.003378
13.650	-0.003350
13.655	-0.003364
13.660	-0.003364
13.665	-0.003384
13.670	-0.003357
13.675	-0.003364
13.680	-0.003371
13.685	-0.003385
13.690	-0.003371
13.695	-0.003371
13.700	-0.003371
13.705	-0.003405
13.710	-0.003391
13.715	-0.003432
13.720	-0.003398
13.725	-0.003439
13.730	-0.003377
13.735	-0.003412
13.740	-0.003425
13.745	-0.003357
13.750	-0.003418
13.755	-0.003412
13.760	-0.003419
13.765	-0.003439
13.770	-0.003405
13.775	-0.003398
13.780	-0.003432
13.785	-0.003405
13.790	-0.003432
13.795	-0.003405
13.800	-0.003425
13.805	-0.003446
13.810	-0.003418
13.815	-0.003459
13.820	-0.003412
13.825	-0.003460
13.830	-0.003446
13.835	-0.003459
13.840	-0.003452
13.845	-0.003432
13.850	-0.003432
13.855	-0.003446
13.860	-0.003432
13.865	-0.003494
13.870	-0.003459
13.875	-0.003425
13.880	-0.003459
13.885	-0.003501
13.890	-0.003481
13.895	-0.003481
13.900	-0.003494
13.905	-0.003480
13.910	-0.003487
13.915	-0.003439
13.920	-0.003473
13.925	-0.003460
13.930	-0.003466
13.935	-0.003494
13.940	-0.003494
13.945	-0.003501
13.950	-0.003487
13.955	-0.003487
13.960	-0.003474
13.965	-0.003508
13.970	-0.003501
13.975	-0.003480
13.980	-0.003508
13.985	-0.003487
13.990	-0.003494
13.995	-0.003556
14.000	-0.003522
14.005	-0.003542
14.010	-0.003542
14.015	-0.003528
14.020	-0.003522
14.025	-0.003529
14.030	-0.003556
14.035	-0.003521
14.040	-0.003549
14.045	-0.003549
14.050	-0.003563
14.055	-0.003576
14.060	-0.003563
14.065	-0.003522
14.070	-0.003569
14.075	-0.003549
14.080	-0.003549
14.085	-0.003543
14.090	-0.003570
14.095	-0.003577
14.100	-0.003570
14.105	-0.003556
14.110	-0.003583
14.115	-0.003556
14.120	-0.003570
14.125	-0.003556
14.130	-0.003563
14.135	-0.003577
14.140	-0.003611
14.145	-0.003583
14.150	-0.003604
14.155	-0.003570
14.160	-0.003598
14.165	-0.003577
14.170	-0.003563
14.175	-0.003569
14.180	-0.003617
14.185	-0.003618
14.190	-0.003611
14.195	-0.003590
14.200	-0.003618
14.205	-0.003611
14.210	-0.003604
14.215	-0.003625
14.220	-0.003605
14.225	-0.003626
14.230	-0.003625
14.235	-0.003632
14.240	-0.003652
14.245	-0.003618
14.250	-0.003625
14.255	-0.003673
14.260	-0.003625
14.265	-0.003653
14.270	-0.003632
14.275	-0.003646
14.280	-0.003652
14.285	-0.003653
14.290	-0.003660
14.295	-0.003647
14.300	-0.003653
14.305	-0.003667
14.310	-0.003673
14.315	-0.003673
14.320	-0.003708
14.325	-0.003673
14.330	-0.003687
14.335	-0.003681
14.340	-0.003660
14.345	-0.003667
14.350	-0.003708
14.355	-0.003674
14.360	-0.003681
14.365	-0.003702
14.370	-0.003667
14.375	-0.003695
14.380	-0.003701
14.385	-0.003695
14.390	-0.003715
14.395	-0.003729
14.400	-0.003701
14.405	-0.003729
14.410	-0.003708
14.415	-0.003715
14.420	-0.003709
14.425	-0.003723
14.430	-0.003729
14.435	-0.003743
14.440	-0.003763
14.445	-0.003757
14.450	-0.003736
14.455	-0.003729
14.460	-0.003729
14.465	-0.003757
14.470	-0.003770
14.475	-0.003736
14.480	-0.003750
14.485	-0.003764
14.490	-0.003758
14.495	-0.003785
14.500	-0.003757
14.505	-0.003771
14.510	-0.003771
14.515	-0.003778
14.520	-0.003778
14.525	-0.003757
14.530	-0.003778
14.535	-0.003805
14.540	-0.003771
14.545	-0.003791
14.550	-0.003785
14.555	-0.003792
14.560	-0.003827
14.565	-0.003813
14.570	-0.003798
14.575	-0.003846
14.580	-0.003812
14.585	-0.003812
14.590	-0.003819
14.595	-0.003806
14.600	-0.003812
14.605	-0.003833
14.610	-0.003847
14.615	-0.003834
14.620	-0.003834
14.625	-0.003814
14.630	-0.003827
14.635	-0.003833
14.640	-0.003861
14.645	-0.003861
14.650	-0.003820
14.655	-0.003854
14.660	-0.003834
14.665	-0.003848
14.670	-0.003848
14.675	-0.003875
14.680	-0.003868
14.685	-0.003861
14.690	-0.003876
14.695	-0.003869
14.700	-0.003875
14.705	-0.003868
14.710	-0.003876
14.715	-0.003869
14.720	-0.003875
14.725	-0.003876
14.730	-0.003869
14.735	-0.003910
14.740	-0.003856
14.745	-0.003917
14.750	-0.003911
14.755	-0.003932
14.760	-0.003898
14.765	-0.003904
14.770	-0.003911
14.775	-0.003918
14.780	-0.003918
14.785	-0.003905
14.790	-0.003918
14.795	-0.003919
14.800	-0.003891
14.805	-0.003925
14.810	-0.003932
14.815	-0.003926
14.820	-0.003912
14.825	-0.003954
14.830	-0.003954
14.835	-0.003988
14.840	-0.003946
14.845	-0.003933
14.850	-0.003968
14.855	-0.003974
14.860	-0.003934
14.865	-0.003941
14.870	-0.003982
14.875	-0.003940
14.880	-0.003968
14.885	-0.003948
14.890	-0.003969
14.895	-0.003983
14.900	-0.004003
14.905	-0.003996
14.910	-0.003996
14.915	-0.003982
14.920	-0.003989
14.925	-0.003975
14.930	-0.003989
14.935	-0.003989
14.940	-0.003982
14.945	-0.003989
14.950	-0.003995
14.955	-0.004003
14.960	-0.003990
14.965	-0.003982
14.970	-0.003982
14.975	-0.004023
14.980	-0.004009
14.985	-0.004022
14.990	-0.004029
14.995	-0.004009
15.000	-0.003974
15.005	-0.004043
15.010	-0.004029
15.015	-0.004016
15.020	-0.003989
15.025	-0.004017
15.030	-0.004002
15.035	-0.004064
15.040	-0.004064
15.045	-0.004057
15.050	-0.004091
15.055	-0.004036
15.060	-0.004043
15.065	-0.004043
15.070	-0.004057
15.075	-0.004064
15.080	-0.004056
15.085	-0.004071
15.090	-0.004044
15.095	-0.004078
15.100	-0.004063
15.105	-0.004064
15.110	-0.004077
15.115	-0.004071
15.120	-0.004091
15.125	-0.004098
15.130	-0.004071
15.135	-0.004105
15.140	-0.004098
15.145	-0.004105
15.150	-0.004099
15.155	-0.004106
15.160	-0.004127
15.165	-0.004106
15.170	-0.004112
15.175	-0.004140
15.180	-0.004133
15.185	-0.004133
15.190	-0.004140
15.195	-0.004133
15.200	-0.004161
15.205	-0.004154
15.210	-0.004175
15.215	-0.004147
15.220	-0.004148
15.225	-0.004162
15.230	-0.004134
15.235	-0.004148
15.240	-0.004189
15.245	-0.004175
15.250	-0.004161
15.255	-0.004169
15.260	-0.004162
15.265	-0.004183
15.270	-0.004189
15.275	-0.004169
15.280	-0.004196
15.285	-0.004177
15.290	-0.004177
15.295	-0.004204
15.300	-0.004204
15.305	-0.004190
15.310	-0.004197
15.315	-0.004225
15.320	-0.004232
15.325	-0.004204
15.330	-0.004218
15.335	-0.004211
15.340	-0.004204
15.345	-0.004218
15.350	-0.004239
15.355	-0.004260
15.360	-0.004233
15.365	-0.004233
15.370	-0.004246
15.375	-0.004226
15.380	-0.004232
15.385	-0.004253
15.390	-0.004253
15.395	-0.004281
15.400	-0.004219
15.405	-0.004253
15.410	-0.004274
15.415	-0.004267
15.420	-0.004282
15.425	-0.004269
15.430	-0.004288
15.435	-0.004281
15.440	-0.004261
15.445	-0.004302
15.450	-0.004302
15.455	-0.004268
15.460	-0.004310
15.465	-0.004309
15.470	-0.004275
15.475	-0.004296
15.480	-0.004302
15.485	-0.004268
15.490	-0.004317
15.495	-0.004310
15.500	-0.004329
15.505	-0.004337
15.510	-0.004323
15.515	-0.004343
15.520	-0.004337
15.525	-0.004323
15.530	-0.004295
15.535	-0.004358
15.540	-0.004350
15.545	-0.004316
15.550	-0.004324
15.555	-0.004345
15.560	-0.004352
15.565	-0.004379
15.570	-0.004372
15.575	-0.004351
15.580	-0.004358
15.585	-0.004372
15.590	-0.004399
15.595	-0.004385
15.600	-0.004392
15.605	-0.004364
15.610	-0.004371
15.615	-0.004351
15.620	-0.004413
15.625	-0.004407
15.630	-0.004392
15.635	-0.004399
15.640	-0.004405
15.645	-0.004364
15.650	-0.004426
15.655	-0.004412
15.660	-0.004419
15.665	-0.004399
15.670	-0.004419
15.675	-0.004405
15.680	-0.004419
15.685	-0.004441
15.690	-0.004454
15.695	-0.004419
15.700	-0.004391
15.705	-0.004426
15.710	-0.004467
15.715	-0.004453
15.720	-0.004440
15.725	-0.004433
15.730	-0.004446
15.735	-0.004447
15.740	-0.004467
15.745	-0.004474
15.750	-0.004440
15.755	-0.004468
15.760	-0.004454
15.765	-0.004460
15.770	-0.004494
15.775	-0.004481
15.780	-0.004481
15.785	-0.004508
15.790	-0.004460
15.795	-0.004494
15.800	-0.004467
15.805	-0.004474
15.810	-0.004487
15.815	-0.004515
15.820	-0.004488
15.825	-0.004496
15.830	-0.004488
15.835	-0.004529
15.840	-0.004494
15.845	-0.004508
15.850	-0.004522
15.855	-0.004529
15.860	-0.004474
15.865	-0.004529
15.870	-0.004515
15.875	-0.004514
15.880	-0.004528
15.885	-0.004535
15.890	-0.004543
15.895	-0.004564
15.900	-0.004549
15.905	-0.004577
15.910	-0.004556
15.915	-0.004549
15.920	-0.004583
15.925	-0.004543
15.930	-0.004584
15.935	-0.004550
15.940	-0.004570
15.945	-0.004542
15.950	-0.004570
15.955	-0.004613
15.960	-0.004592
15.965	-0.004570
15.970	-0.004584
15.975	-0.004570
15.980	-0.004605
15.985	-0.004611
15.990	-0.004605
15.995	-0.004605
16.000	-0.004598
16.005	-0.004584
16.010	-0.004625
16.015	-0.004605
16.020	-0.004598
16.025	-0.004634
16.030	-0.004626
16.035	-0.004639
16.040	-0.004639
16.045	-0.004598
16.050	-0.004626
16.055	-0.004626
16.060	-0.004647
16.065	-0.004654
16.070	-0.004653
16.075	-0.004661
16.080	-0.004640
16.085	-0.004662
16.090	-0.004648
16.095	-0.004682
16.100	-0.004654
16.105	-0.004696
16.110	-0.004716
16.115	-0.004689
16.120	-0.004668
16.125	-0.004703
16.130	-0.004641
16.135	-0.004689
16.140	-0.004696
16.145	-0.004730
16.150	-0.004675
16.155	-0.004724
16.160	-0.004697
16.165	-0.004750
16.170	-0.004702
16.175	-0.004702
16.180	-0.004716
16.185	-0.004730
16.190	-0.004730
16.195	-0.004716
16.200	-0.004743
16.205	-0.004737
16.210	-0.004716
16.215	-0.004724
16.220	-0.004800
16.225	-0.004787
16.230	-0.004779
16.235	-0.004765
16.240	-0.004772
16.245	-0.004765
16.250	-0.004765
16.255	-0.004786
16.260	-0.004779
16.265	-0.004772
16.270	-0.004765
16.275	-0.004772
16.280	-0.004793
16.285	-0.004801
16.290	-0.004787
16.295	-0.004808
16.300	-0.004807
16.305	-0.004807
16.310	-0.004807
16.315	-0.004807
16.320	-0.004808
16.325	-0.004821
16.330	-0.004835
16.335	-0.004842
16.340	-0.004828
16.345	-0.004849
16.350	-0.004863
16.355	-0.004844
16.360	-0.004843
16.365	-0.004884
16.370	-0.004863
16.375	-0.004877
16.380	-0.004870
16.385	-0.004857
16.390	-0.004850
16.395	-0.004891
16.400	-0.004877
16.405	-0.004891
16.410	-0.004877
16.415	-0.004912
16.420	-0.004886
16.425	-0.004899
16.430	-0.004912
16.435	-0.004918
16.440	-0.004905
16.445	-0.004933
16.450	-0.004898
16.455	-0.004939
16.460	-0.004912
16.465	-0.004905
16.470	-0.004925
16.475	-0.004919
16.480	-0.004967
16.485	-0.004927
16.490	-0.004941
16.495	-0.004940
16.500	-0.004946
16.505	-0.004953
16.510	-0.004960
16.515	-0.004960
16.520	-0.004939
16.525	-0.004960
16.530	-0.004953
16.535	-0.004946
16.540	-0.004952
16.545	-0.004966
16.550	-0.004981
16.555	-0.004974
16.560	-0.004994
16.565	-0.004987
16.570	-0.004993
16.575	-0.005014
16.580	-0.004979
16.585	-0.005008
16.590	-0.004987
16.595	-0.005029
16.600	-0.005021
16.605	-0.005014
16.610	-0.005021
16.615	-0.005029
16.620	-0.005036
16.625	-0.005037
16.630	-0.005084
16.635	-0.005042
16.640	-0.005049
16.645	-0.005056
16.650	-0.005063
16.655	-0.005057
16.660	-0.005071
16.665	-0.005050
16.670	-0.005057
16.675	-0.005091
16.680	-0.005084
16.685	-0.005065
16.690	-0.005066
16.695	-0.005066
16.700	-0.005078
16.705	-0.005120
16.710	-0.005099
16.715	-0.005092
16.720	-0.005099
16.725	-0.005079
16.730	-0.005120
16.735	-0.005121
16.740	-0.005121
16.745	-0.005121
16.750	-0.005136
16.755	-0.005158
16.760	-0.005143
16.765	-0.005156
16.770	-0.005163
16.775	-0.005178
16.780	-0.005199
16.785	-0.005151
16.790	-0.005172
16.795	-0.005185
16.800	-0.005179
16.805	-0.005179
16.810	-0.005192
16.815	-0.005207
16.820	-0.005202
16.825	-0.005195
16.830	-0.005201
16.835	-0.005208
16.840	-0.005249
16.845	-0.005222
16.850	-0.005242
16.855	-0.005215
16.860	-0.005230
16.865	-0.005231
16.870	-0.005252
16.875	-0.005259
16.880	-0.005280
16.885	-0.005253
16.890	-0.005268
16.895	-0.005261
16.900	-0.005260
16.905	-0.005288
16.910	-0.005288
16.915	-0.005309
16.920	-0.005295
16.925	-0.005302
16.930	-0.005295
16.935	-0.005323
16.940	-0.005329
16.945	-0.005295
16.950	-0.005317
16.955	-0.005339
16.960	-0.005318
16.965	-0.005345
16.970	-0.005337
16.975	-0.005330
16.980	-0.005322
16.985	-0.005349
16.990	-0.005342
16.995	-0.005378
17.000	-0.005363
17.005	-0.005364
17.010	-0.005384
17.015	-0.005378
17.020	-0.005378
17.025	-0.005392
17.030	-0.005383
17.035	-0.005377
17.040	-0.005384
17.045	-0.005404
17.050	-0.005396
17.055	-0.005410
17.060	-0.005410
17.065	-0.005396
17.070	-0.005409
17.075	-0.005423
17.080	-0.005422
17.085	-0.005438
17.090	-0.005411
17.095	-0.005444
17.100	-0.005485
17.105	-0.005437
17.110	-0.005444
17.115	-0.005506
17.120	-0.005451
17.125	-0.005465
17.130	-0.005499
17.135	-0.005471
17.140	-0.005484
17.145	-0.005464
17.150	-0.005513
17.155	-0.005486
17.160	-0.005493
17.165	-0.005505
17.170	-0.005491
17.175	-0.005512
17.180	-0.005498
17.185	-0.005533
17.190	-0.005504
17.195	-0.005539
17.200	-0.005511
17.205	-0.005532
17.210	-0.005539
17.215	-0.005547
17.220	-0.005554
17.225	-0.005561
17.230	-0.005546
17.235	-0.005560
17.240	-0.005574
17.245	-0.005581
17.250	-0.005581
17.255	-0.005595
17.260	-0.005616
17.265	-0.005623
17.270	-0.005574
17.275	-0.005609
17.280	-0.005602
17.285	-0.005604
17.290	-0.005625
17.295	-0.005637
17.300	-0.005637
17.305	-0.005609
17.310	-0.005671
17.315	-0.005650
17.320	-0.005657
17.325	-0.005623
17.330	-0.005651
17.335	-0.005665
17.340	-0.005637
17.345	-0.005665
17.350	-0.005665
17.355	-0.005687
17.360	-0.005673
17.365	-0.005693
17.370	-0.005720
17.375	-0.005706
17.380	-0.005706
17.385	-0.005699
17.390	-0.005713
17.395	-0.005686
17.400	-0.005720
17.405	-0.005714
17.410	-0.005720
17.415	-0.005727
17.420	-0.005722
17.425	-0.005736
17.430	-0.005720
17.435	-0.005775
17.440	-0.005754
17.445	-0.005734
17.450	-0.005761
17.455	-0.005762
17.460	-0.005747
17.465	-0.005775
17.470	-0.005781
17.475	-0.005809
17.480	-0.005801
17.485	-0.005796
17.490	-0.005803
17.495	-0.005768
17.500	-0.005815
17.505	-0.005822
17.510	-0.005802
17.515	-0.005815
17.520	-0.005815
17.525	-0.005822
17.530	-0.005843
17.535	-0.005808
17.540	-0.005836
17.545	-0.005857
17.550	-0.005893
17.555	-0.005859
17.560	-0.005907
17.565	-0.005872
17.570	-0.005892
17.575	-0.005913
17.580	-0.005906
17.585	-0.005906
17.590	-0.005907
17.595	-0.005920
17.600	-0.005913
17.605	-0.005940
17.610	-0.005926
17.615	-0.005933
17.620	-0.005941
17.625	-0.005934
17.630	-0.005954
17.635	-0.005974
17.640	-0.005981
17.645	-0.005953
17.650	-0.005954
17.655	-0.005988
17.660	-0.005974
17.665	-0.005967
17.670	-0.005995
17.675	-0.005988
17.680	-0.005981
17.685	-0.006044
17.690	-0.006023
17.695	-0.006056
17.700	-0.006021
17.705	-0.006042
17.710	-0.006029
17.715	-0.006056
17.720	-0.006077
17.725	-0.006035
17.730	-0.006055
17.735	-0.006041
17.740	-0.006082
17.745	-0.006116
17.750	-0.006082
17.755	-0.006097
17.760	-0.006062
17.765	-0.006123
17.770	-0.006122
17.775	-0.006122
17.780	-0.006128
17.785	-0.006136
17.790	-0.006164
17.795	-0.006128
17.800	-0.006149
17.805	-0.006170
17.810	-0.006176
17.815	-0.006156
17.820	-0.006190
17.825	-0.006156
17.830	-0.006154
17.835	-0.006181
17.840	-0.006167
17.845	-0.006195
17.850	-0.006222
17.855	-0.006209
17.860	-0.006187
17.865	-0.006228
17.870	-0.006214
17.875	-0.006214
17.880	-0.006234
17.885	-0.006228
17.890	-0.006249
17.895	-0.006262
17.900	-0.006268
17.905	-0.006281
17.910	-0.006260
17.915	-0.006288
17.920	-0.006281
17.925	-0.006288
17.930	-0.006294
17.935	-0.006309
17.940	-0.006322
17.945	-0.006301
17.950	-0.006337
17.955	-0.006310
17.960	-0.006357
17.965	-0.006330
17.970	-0.006337
17.975	-0.006352
17.980	-0.006372
17.985	-0.006372
17.990	-0.006372
17.995	-0.006372
18.000	-0.006386
18.005	-0.006406
18.010	-0.006358
18.015	-0.006413
18.020	-0.006414
18.025	-0.006401
18.030	-0.006427
18.035	-0.006400
18.040	-0.006449
18.045	-0.006442
18.050	-0.006462
18.055	-0.006422
18.060	-0.006463
18.065	-0.006463
18.070	-0.006498
18.075	-0.006477
18.080	-0.006492
18.085	-0.006487
18.090	-0.006473
18.095	-0.006541
18.100	-0.006520
18.105	-0.006506
18.110	-0.006540
18.115	-0.006513
18.120	-0.006533
18.125	-0.006546
18.130	-0.006546
18.135	-0.006546
18.140	-0.006553
18.145	-0.006560
18.150	-0.006595
18.155	-0.006541
18.160	-0.006581
18.165	-0.006560
18.170	-0.006573
18.175	-0.006602
18.180	-0.006630
18.185	-0.006595
18.190	-0.006609
18.195	-0.006630
18.200	-0.006644
18.205	-0.006631
18.210	-0.006631
18.215	-0.006667
18.220	-0.006640
18.225	-0.006653
18.230	-0.006699
18.235	-0.006645
18.240	-0.006686
18.245	-0.006687
18.250	-0.006694
18.255	-0.006688
18.260	-0.006695
18.265	-0.006694
18.270	-0.006721
18.275	-0.006762
18.280	-0.006735
18.285	-0.006730
18.290	-0.006772
18.295	-0.006757
18.300	-0.006770
18.305	-0.006756
18.310	-0.006756
18.315	-0.006825
18.320	-0.006812
18.325	-0.006797
18.330	-0.006831
18.335	-0.006805
18.340	-0.006818
18.345	-0.006812
18.350	-0.006847
18.355	-0.006849
18.360	-0.006854
18.365	-0.006846
18.370	-0.006880
18.375	-0.006853
18.380	-0.006887
18.385	-0.006902
18.390	-0.006882
18.395	-0.006895
18.400	-0.006901
18.405	-0.006915
18.410	-0.006894
18.415	-0.006924
18.420	-0.006980
18.425	-0.006945
18.430	-0.006970
18.435	-0.006985
18.440	-0.006965
18.445	-0.006980
18.450	-0.006993
18.455	-0.006993
18.460	-0.006999
18.465	-0.006994
18.470	-0.007029
18.475	-0.007015
18.480	-0.007016
18.485	-0.007032
18.490	-0.007039
18.495	-0.007065
18.500	-0.007045
18.505	-0.007101
18.510	-0.007053
18.515	-0.007109
18.520	-0.007067
18.525	-0.007101
18.530	-0.007108
18.535	-0.007123
18.540	-0.007116
18.545	-0.007137
18.550	-0.007138
18.555	-0.007166
18.560	-0.007152
18.565	-0.007152
18.570	-0.007158
18.575	-0.007186
18.580	-0.007207
18.585	-0.007208
18.590	-0.007194
18.595	-0.007214
18.600	-0.007214
18.605	-0.007235
18.610	-0.007262
18.615	-0.007250
18.620	-0.007237
18.625	-0.007224
18.630	-0.007278
18.635	-0.007251
18.640	-0.007298
18.645	-0.007285
18.650	-0.007305
18.655	-0.007320
18.660	-0.007347
18.665	-0.007320
18.670	-0.007306
18.675	-0.007312
18.680	-0.007341
18.685	-0.007344
18.690	-0.007358
18.695	-0.007390
18.700	-0.007424
18.705	-0.007389
18.710	-0.007424
18.715	-0.007419
18.720	-0.007432
18.725	-0.007439
18.730	-0.007459
18.735	-0.007445
18.740	-0.007424
18.745	-0.007453
18.750	-0.007462
18.755	-0.007504
18.760	-0.007495
18.765	-0.007507
18.770	-0.007508
18.775	-0.007522
18.780	-0.007495
18.785	-0.007515
18.790	-0.007543
18.795	-0.007556
18.800	-0.007550
18.805	-0.007564
18.810	-0.007578
18.815	-0.007572
18.820	-0.007622
18.825	-0.007650
18.830	-0.007620
18.835	-0.007642
18.840	-0.007628
18.845	-0.007662
18.850	-0.007662
18.855	-0.007669
18.860	-0.007663
18.865	-0.007679
18.870	-0.007701
18.875	-0.007694
18.880	-0.007702
18.885	-0.007691
18.890	-0.007712
18.895	-0.007760
18.900	-0.007753
18.905	-0.007762
18.910	-0.007755
18.915	-0.007763
18.920	-0.007791
18.925	-0.007785
18.930	-0.007792
18.935	-0.007813
18.940	-0.007788
18.945	-0.007829
18.950	-0.007850
18.955	-0.007817
18.960	-0.007850
18.965	-0.007843
18.970	-0.007851
18.975	-0.007880
18.980	-0.007866
18.985	-0.007884
18.990	-0.007861
18.995	-0.007873
19.000	-0.007921
19.005	-0.007913
19.010	-0.007932
19.015	-0.007962
19.020	-0.007936
19.025	-0.007970
19.030	-0.007988
19.035	-0.007994
19.040	-0.007993
19.045	-0.008014
19.050	-0.008020
19.055	-0.008013
19.060	-0.008048
19.065	-0.008048
19.070	-0.008060
19.075	-0.008067
19.080	-0.008102
19.085	-0.008091
19.090	-0.008125
19.095	-0.008137
19.100	-0.008122
19.105	-0.008149
19.110	-0.008169
19.115	-0.008163
19.120	-0.008184
19.125	-0.008164
19.130	-0.008184
19.135	-0.008214
19.140	-0.008207
19.145	-0.008214
19.150	-0.008237
19.155	-0.008251
19.160	-0.008276
19.165	-0.008283
19.170	-0.008289
19.175	-0.008304
19.180	-0.008338
19.185	-0.008326
19.190	-0.008361
19.195	-0.008375
19.200	-0.008376
19.205	-0.008348
19.210	-0.008405
19.215	-0.008429
19.220	-0.008439
19.225	-0.008446
19.230	-0.008458
19.235	-0.008460
19.240	-0.008461
19.245	-0.008477
19.250	-0.008499
19.255	-0.008514
19.260	-0.008535
19.265	-0.008542
19.270	-0.008520
19.275	-0.008514
19.280	-0.008557
19.285	-0.008558
19.290	-0.008565
19.295	-0.008583
19.300	-0.008596
19.305	-0.008624
19.310	-0.008616
19.315	-0.008645
19.320	-0.008658
19.325	-0.008643
19.330	-0.008662
19.335	-0.008654
19.340	-0.008701
19.345	-0.008667
19.350	-0.008681
19.355	-0.008723
19.360	-0.008747
19.365	-0.008746
19.370	-0.008772
19.375	-0.008764
19.380	-0.008783
19.385	-0.008818
19.390	-0.008824
19.395	-0.008810
19.400	-0.008796
19.405	-0.008858
19.410	-0.008873
19.415	-0.008847
19.420	-0.008883
19.425	-0.008896
19.430	-0.008907
19.435	-0.008955
19.440	-0.008941
19.445	-0.008926
19.450	-0.008974
19.455	-0.008989
19.460	-0.009003
19.465	-0.009017
19.470	-0.009037
19.475	-0.009030
19.480	-0.009059
19.485	-0.009067
19.490	-0.009088
19.495	-0.009121
19.500	-0.009107
19.505	-0.009128
19.510	-0.009128
19.515	-0.009138
19.520	-0.009173
19.525	-0.009181
19.530	-0.009195
19.535	-0.009189
19.540	-0.009231
19.545	-0.009227
19.550	-0.009236
19.555	-0.009264
19.560	-0.009296
19.565	-0.009295
19.570	-0.009289
19.575	-0.009303
19.580	-0.009337
19.585	-0.009348
19.590	-0.009355
19.595	-0.009376
19.600	-0.009376
19.605	-0.009397
19.610	-0.009389
19.615	-0.009398
19.620	-0.009441
19.625	-0.009503
19.630	-0.009495
19.635	-0.009516
19.640	-0.009485
19.645	-0.009534
19.650	-0.009535
19.655	-0.009549
19.660	-0.009590
19.665	-0.009551
19.670	-0.009587
19.675	-0.009622
19.680	-0.009611
19.685	-0.009649
19.690	-0.009663
19.695	-0.009653
19.700	-0.009634
19.705	-0.009678
19.710	-0.009714
19.715	-0.009735
19.720	-0.009763
19.725	-0.009784
19.730	-0.009807
19.735	-0.009814
19.740	-0.009848
19.745	-0.009834
19.750	-0.009848
19.755	-0.009863
19.760	-0.009923
19.765	-0.009924
19.770	-0.009917
19.775	-0.009930
19.780	-0.009963
19.785	-0.009971
19.790	-0.009975
19.795	-0.010005
19.800	-0.010061
19.805	-0.010076
19.810	-0.010089
19.815	-0.010105
19.820	-0.010142
19.825	-0.010157
19.830	-0.010169
19.835	-0.010198
19.840	-0.010212
19.845	-0.010227
19.850	-0.010239
19.855	-0.010268
19.860	-0.010270
19.865	-0.010278
19.870	-0.010332
19.875	-0.010337
19.880	-0.010328
19.885	-0.010391
19.890	-0.010397
19.895	-0.010420
19.900	-0.010424
19.905	-0.010485
19.910	-0.010456
19.915	-0.010483
19.920	-0.010535
19.925	-0.010548
19.930	-0.010580
19.935	-0.010591
19.940	-0.010570
19.945	-0.010590
19.950	-0.010662
19.955	-0.010656
19.960	-0.010707
19.965	-0.010719
19.970	-0.010754
19.975	-0.010760
19.980	-0.010794
19.985	-0.010801
19.990	-0.010800
19.995	-0.010840
20.000	-0.010888
20.005	-0.010888
20.010	-0.010921
20.015	-0.010944
20.020	-0.010960
20.025	-0.010986
20.030	-0.011004
20.035	-0.011033
20.040	-0.011074
20.045	-0.011097
20.050	-0.011090
20.055	-0.011132
20.060	-0.011174
20.065	-0.011190
20.070	-0.011230
20.075	-0.011225
20.080	-0.011258
20.085	-0.011288
20.090	-0.011300
20.095	-0.011360
20.100	-0.011375
20.105	-0.011403
20.110	-0.011424
20.115	-0.011479
20.120	-0.011465
20.125	-0.011487
20.130	-0.011502
20.135	-0.011551
20.140	-0.011599
20.145	-0.011572
20.150	-0.011595
20.155	-0.011625
20.160	-0.011637
20.165	-0.011707
20.170	-0.011736
20.175	-0.011730
20.180	-0.011765
20.185	-0.011787
20.190	-0.011796
20.195	-0.011860
20.200	-0.011882
20.205	-0.011913
20.210	-0.011942
20.215	-0.011952
20.220	-0.011962
20.225	-0.012046
20.230	-0.012049
20.235	-0.012080
20.240	-0.012108
20.245	-0.012159
20.250	-0.012160
20.255	-0.012156
20.260	-0.012214
20.265	-0.012248
20.270	-0.012250
20.275	-0.012326
20.280	-0.012332
20.285	-0.012359
20.290	-0.012402
20.295	-0.012434
20.300	-0.012468
20.305	-0.012516
20.310	-0.012544
20.315	-0.012575
20.320	-0.012584
20.325	-0.012614
20.330	-0.012676
20.335	-0.012679
20.340	-0.012749
20.345	-0.012766
20.350	-0.012809
20.355	-0.012853
20.360	-0.012890
20.365	-0.012889
20.370	-0.012938
20.375	-0.012971
20.380	-0.012996
20.385	-0.013049
20.390	-0.013100
20.395	-0.013118
20.400	-0.013148
20.405	-0.013180
20.410	-0.013241
20.415	-0.013264
20.420	-0.013320
20.425	-0.013353
20.430	-0.013386
20.435	-0.013379
20.440	-0.013460
20.445	-0.013487
20.450	-0.013535
20.455	-0.013587
20.460	-0.013616
20.465	-0.013697
20.470	-0.013769
20.475	-0.013778
20.480	-0.013874
20.485	-0.013893
20.490	-0.013948
20.495	-0.014021
20.500	-0.014053
20.505	-0.014100
20.510	-0.014112
20.515	-0.014146
20.520	-0.014144
20.525	-0.014217
20.530	-0.014276
20.535	-0.014301
20.540	-0.014325
20.545	-0.014373
20.550	-0.014415
20.555	-0.014438
20.560	-0.014505
20.565	-0.014575
20.570	-0.014597
20.575	-0.014655
20.580	-0.014680
20.585	-0.014696
20.590	-0.014781
20.595	-0.014808
20.600	-0.014855
20.605	-0.014860
20.610	-0.014960
20.615	-0.015017
20.620	-0.015054
20.625	-0.015135
20.630	-0.015168
20.635	-0.015277
20.640	-0.015317
20.645	-0.015405
20.650	-0.015466
20.655	-0.015479
20.660	-0.015601
20.665	-0.015654
20.670	-0.015718
20.675	-0.015770
20.680	-0.015825
20.685	-0.015912
20.690	-0.015930
20.695	-0.015999
20.700	-0.016087
20.705	-0.016131
20.710	-0.016197
20.715	-0.016267
20.720	-0.016324
20.725	-0.016415
20.730	-0.016446
20.735	-0.016545
20.740	-0.016588
20.745	-0.016625
20.750	-0.016673
20.755	-0.016799
20.760	-0.016891
20.765	-0.016985
20.770	-0.017041
20.775	-0.017175
20.780	-0.017264
20.785	-0.017378
20.790	-0.017473
20.795	-0.017517
20.800	-0.017618
20.805	-0.017726
20.810	-0.017776
20.815	-0.017833
20.820	-0.017956
20.825	-0.018080
20.830	-0.018216
20.835	-0.018272
20.840	-0.018361
20.845	-0.018474
20.850	-0.018544
20.855	-0.018618
20.860	-0.018739
20.865	-0.018831
20.870	-0.018901
20.875	-0.019038
20.880	-0.019202
20.885	-0.019288
20.890	-0.019433
20.895	-0.019491
20.900	-0.019592
20.905	-0.019685
20.910	-0.019770
20.915	-0.019844
20.920	-0.019934
20.925	-0.020041
20.930	-0.020131
20.935	-0.020264
20.940	-0.020387
20.945	-0.020528
20.950	-0.020646
20.955	-0.020781
20.960	-0.020887
20.965	-0.020992
20.970	-0.021181
20.975	-0.021289
20.980	-0.021419
20.985	-0.021542
20.990	-0.021668
20.995	-0.021809
21.000	-0.021979
21.005	-0.022160
21.010	-0.022309
21.015	-0.022420
21.020	-0.022639
21.025	-0.022828
21.030	-0.023003
21.035	-0.023210
21.040	-0.023403
21.045	-0.023608
21.050	-0.023852
21.055	-0.024100
21.060	-0.024241
21.065	-0.024423
21.070	-0.024673
21.075	-0.024948
21.080	-0.025143
21.085	-0.025398
21.090	-0.025642
21.095	-0.025907
21.100	-0.026176
21.105	-0.026471
21.110	-0.026748
21.115	-0.027025
21.120	-0.027280
21.125	-0.027595
21.130	-0.027948
21.135	-0.028386
21.140	-0.028906
21.145	-0.029102
21.150	-0.029005
21.155	-0.029298
21.160	-0.029722
21.165	-0.030090
21.170	-0.030738
21.175	-0.031226
21.180	-0.031650
21.185	-0.032122
21.190	-0.032729
21.195	-0.033249
21.200	-0.033878
21.205	-0.034486
21.210	-0.034992
21.215	-0.035572
21.220	-0.036573
21.225	-0.037279
21.230	-0.037998
21.235	-0.039073
21.240	-0.039443
21.245	-0.040285
21.250	-0.042157
21.255	-0.042861
21.260	-0.043389
21.265	-0.044380
21.270	-0.045649
21.275	-0.046800
21.280	-0.047621
21.285	-0.047944
21.290	-0.047949
21.295	-0.047665
21.300	-0.046920
21.305	-0.045751
21.310	-0.043805
21.315	-0.041386
21.320	-0.038410
21.325	-0.034810
21.330	-0.030858
21.335	-0.026922
21.340	-0.022858
21.345	-0.018424
21.350	-0.013728
21.355	-0.009424
21.360	-0.005911
21.365	-0.003460
21.370	-0.001913
21.375	-0.001029
21.380	-0.000562
21.385	-0.000292
21.390	-0.000204
21.395	-0.000116
21.400	-0.000110
21.405	-0.000056
21.410	-0.000063
21.415	-0.000008
21.420	-0.000048
21.425	-0.000035
21.430	-0.000009
21.435	0.000018
21.440	-0.000002
21.445	0.000005
21.450	-0.000002
21.455	-0.000002
21.460	-0.000009
21.465	0.000032
21.470	0.000032
21.475	0.000052
21.480	0.000018
21.485	0.000032
21.490	0.000032
21.495	0.000004
21.500	0.000038
21.505	0.000025
21.510	0.000004
21.515	0.000025
21.520	0.000031
21.525	0.000018
21.530	0.000004
21.535	0.000011
21.540	0.000024
21.545	0.000052
21.550	0.000019
21.555	0.000045
21.560	0.000031
21.565	0.000011
21.570	0.000038
21.575	0.000018
21.580	0.000024
21.585	0.000045
21.590	0.000038
21.595	0.000038
21.600	0.000072
21.605	0.000031
21.610	0.000058
21.615	0.000031
21.620	0.000038
21.625	0.000031
21.630	0.000024
21.635	0.000017
21.640	-0.000003
21.645	0.000044
21.650	0.000031
21.655	0.000044
21.660	0.000017
21.665	0.000058
21.670	0.000044
21.675	0.000071
21.680	0.000045
21.685	-0.000016
21.690	0.000038
21.695	0.000017
21.700	0.000044
21.705	0.000085
21.710	0.000051
21.715	0.000071
21.720	0.000078
21.725	0.000051
21.730	0.000030
21.735	0.000024
21.740	0.000044
21.745	0.000024
21.750	0.000024
21.755	0.000037
21.760	0.000023
21.765	-0.000017
21.770	0.000030
21.775	0.000043
21.780	0.000023
21.785	0.000071
21.790	0.000064
21.795	0.000050
21.800	0.000030
21.805	0.000037
21.810	0.000023
21.815	0.000024
21.820	0.000031
21.825	0.000023
21.830	0.000057
21.835	0.000037
21.840	0.000043
21.845	0.000016
21.850	0.000010
21.855	0.000070
21.860	0.000009
21.865	0.000063
21.870	0.000050
21.875	0.000050
21.880	0.000037
21.885	0.000030
21.890	0.000016
21.895	0.000043
21.900	0.000050
21.905	0.000043
21.910	0.000022
21.915	0.000056
21.920	0.000002
21.925	0.000050
21.930	0.000036
21.935	0.000022
21.940	0.000036
21.945	0.000037
21.950	0.000030
21.955	-0.000011
21.960	0.000056
21.965	0.000050
21.970	0.000043
21.975	0.000043
21.980	0.000049
21.985	0.000043
21.990	0.000043
21.995	0.000063
22.000	0.000042
22.005	0.000049
22.010	0.000036
22.015	0.000023
22.020	0.000029
22.025	0.000029
22.030	0.000015
22.035	0.000022
22.040	0.000015
22.045	0.000042
22.050	0.000035
22.055	0.000028
22.060	0.000035
22.065	0.000076
22.070	0.000049
22.075	0.000022
22.080	0.000043
22.085	0.000009
22.090	0.000029
22.095	0.000028
22.100	0.000055
22.105	0.000022
22.110	0.000055
22.115	0.000029
22.120	0.000049
22.125	0.000062
22.130	0.000042
22.135	0.000042
22.140	0.000055
22.145	0.000049
22.150	0.000022
22.155	0.000042
22.160	0.000055
22.165	0.000008
22.170	0.000041
22.175	0.000035
22.180	0.000041
22.185	0.000048
22.190	0.000055
22.195	0.000048
22.200	0.000048
22.205	0.000035
22.210	0.000035
22.215	0.000042
22.220	0.000042
22.225	0.000042
22.230	0.000021
22.235	0.000028
22.240	0.000028
22.245	0.000021
22.250	0.000028
22.255	0.000055
22.260	0.000048
22.265	0.000041
22.270	0.000034
22.275	0.000034
22.280	0.000028
22.285	0.000015
22.290	0.000028
22.295	0.000041
22.300	0.000041
22.305	0.000034
22.310	0.000007
22.315	0.000034
22.320	0.000041
22.325	0.000048
22.330	0.000034
22.335	0.000062
22.340	0.000061
22.345	0.000014
22.350	0.000042
22.355	0.000008
22.360	0.000007
22.365	0.000027
22.370	0.000068
22.375	0.000027
22.380	0.000041
22.385	0.000061
22.390	0.000027
22.395	0.000048
22.400	0.000034
22.405	0.000054
22.410	0.000034
22.415	0.000041
22.420	0.000014
22.425	0.000047
22.430	-0.000014
22.435	0.000047
22.440	0.000006
22.445	0.000020
22.450	0.000034
22.455	0.000013
22.460	0.000027
22.465	0.000033
22.470	0.000054
22.475	0.000074
22.480	0.000061
22.485	0.000034
22.490	0.000020
22.495	0.000020
22.500	0.000020
22.505	0.000027
22.510	0.000061
22.515	0.000061
22.520	0.000006
22.525	0.000047
22.530	0.000013
22.535	0.000026
22.540	0.000033
22.545	0.000027
22.550	0.000027
22.555	0.000020
22.560	0.000033
22.565	0.000019
22.570	0.000020
22.575	0.000074
22.580	0.000006
22.585	0.000013
22.590	0.000060
22.595	0.000040
22.600	0.000060
22.605	0.000067
22.610	0.000033
22.615	0.000068
22.620	0.000034
22.625	0.000026
22.630	0.000040
22.635	0.000033
22.640	0.000019
22.645	0.000040
22.650	-0.000001
22.655	-0.000008
22.660	0.000060
22.665	0.000033
22.670	0.000019
22.675	0.000033
22.680	0.000026
22.685	0.000027
22.690	0.000040
22.695	0.000046
22.700	0.000033
22.705	0.000046
22.710	-0.000002
22.715	0.000046
22.720	0.000012
22.725	0.000019
22.730	0.000053
22.735	0.000032
22.740	0.000046
22.745	0.000033
22.750	0.000047
22.755	0.000013
22.760	0.000032
22.765	0.000026
22.770	0.000039
22.775	0.000032
22.780	0.000025
22.785	0.000039
22.790	0.000046
22.795	0.000053
22.800	0.000018
22.805	0.000025
22.810	0.000053
22.815	0.000012
22.820	-0.000001
22.825	0.000019
22.830	0.000032
22.835	0.000032
22.840	0.000025
22.845	0.000019
22.850	-0.000002
22.855	0.000045
22.860	0.000052
22.865	0.000045
22.870	-0.000002
22.875	0.000039
22.880	0.000073
22.885	0.000033
22.890	0.000025
22.895	0.000039
22.900	-0.000002
22.905	0.000046
22.910	0.000018
22.915	0.000019
22.920	0.000045
22.925	0.000039
22.930	0.000045
22.935	0.000025
22.940	0.000018
22.945	0.000018
22.950	0.000026
22.955	-0.000002
22.960	0.000038
22.965	0.000018
22.970	0.000031
22.975	0.000018
22.980	0.000045
22.985	0.000045
22.990	0.000038
22.995	0.000045
23.000	0.000025
23.005	0.000031
23.010	0.000045
23.015	0.000026
23.020	0.000012
23.025	0.000025
23.030	0.000031
23.035	0.000004
23.040	0.000018
23.045	0.000031
23.050	0.000025
23.055	0.000025
23.060	0.000031
23.065	0.000052
23.070	0.000024
23.075	0.000045
23.080	0.000025
23.085	0.000052
23.090	0.000038
23.095	0.000011
23.100	0.000017
23.105	0.000011
23.110	0.000031
23.115	0.000018
23.120	0.000031
23.125	0.000018
23.130	0.000031
23.135	0.000058
23.140	0.000031
23.145	0.000045
23.150	0.000025
23.155	0.000031
23.160	0.000024
23.165	0.000031
23.170	0.000010
23.175	0.000017
23.180	0.000044
23.185	0.000011
23.190	0.000031
23.195	0.000031
23.200	0.000051
23.205	0.000030
23.210	0.000031
23.215	0.000018
23.220	0.000018
23.225	0.000003
23.230	-0.000003
23.235	0.000017
23.240	0.000031
23.245	0.000037
23.250	0.000044
23.255	0.000031
23.260	0.000044
23.265	0.000003
23.270	0.000024
23.275	0.000031
23.280	0.000024
23.285	0.000038
23.290	0.000037
23.295	0.000037
23.300	-0.000004
23.305	-0.000003
23.310	-0.000003
23.315	0.000051
23.320	0.000037
23.325	0.000024
23.330	0.000010
23.335	0.000023
23.340	0.000009
23.345	0.000044
23.350	0.000017
23.355	0.000031
23.360	0.000043
23.365	0.000030
23.370	0.000023
23.375	-0.000011
23.380	0.000023
23.385	0.000016
23.390	0.000016
23.395	0.000030
23.400	0.000023
23.405	0.000030
23.410	0.000044
23.415	0.000017
23.420	0.000030
23.425	-0.000004
23.430	0.000009
23.435	0.000043
23.440	0.000023
23.445	0.000037
23.450	0.000016
23.455	0.000016
23.460	0.000023
23.465	0.000036
23.470	0.000043
23.475	0.000029
23.480	0.000010
23.485	0.000024
23.490	-0.000004
23.495	0.000002
23.500	0.000009
23.505	0.000023
23.510	0.000022
23.515	0.000009
23.520	0.000016
23.525	0.000002
23.530	0.000029
23.535	0.000036
23.540	0.000016
23.545	0.000037
23.550	0.000023
23.555	0.000036
23.560	0.000016
23.565	0.000036
23.570	0.000022
23.575	0.000056
23.580	0.000036
23.585	0.000036
23.590	0.000016
23.595	0.000036
23.600	0.000022
23.605	0.000008
23.610	0.000049
23.615	0.000050
23.620	0.000029
23.625	-0.000005
23.630	0.000002
23.635	0.000029
23.640	0.000029
23.645	0.000029
23.650	0.000015
23.655	0.000036
23.660	0.000029
23.665	0.000022
23.670	0.000015
23.675	0.000029
23.680	0.000043
23.685	0.000023
23.690	0.000035
23.695	0.000042
23.700	0.000022
23.705	0.000002
23.710	0.000029
23.715	-0.000005
23.720	0.000035
23.725	0.000008
23.730	0.000029
23.735	0.000015
23.740	0.000055
23.745	0.000009
23.750	0.000016
23.755	0.000042
23.760	0.000001
23.765	-0.000019
23.770	0.000062
23.775	0.000008
23.780	0.000001
23.785	0.000035
23.790	0.000008
23.795	0.000008
23.800	0.000055
23.805	0.000035
23.810	0.000029
23.815	0.000009
23.820	-0.000005
23.825	0.000022
23.830	0.000008
23.835	0.000028
23.840	0.000028
23.845	0.000021
23.850	0.000021
23.855	0.000015
23.860	0.000015
23.865	0.000035
23.870	0.000014
23.875	0.000028
23.880	-0.000019
23.885	0.000035
23.890	-0.000026
23.895	0.000014
23.900	0.000021
23.905	0.000021
23.910	0.000048
23.915	0.000021
23.920	0.000014
23.925	0.000007
23.930	0.000048
23.935	0.000048
23.940	0.000007
23.945	0.000008
23.950	0.000008
23.955	0.000007
23.960	0.000014
23.965	0.000007
23.970	0.000034
23.975	0.000041
23.980	0.000021
23.985	0.000034
23.990	0.000034
23.995	0.000021
24.000	0.000020
24.005	0.000007
24.010	-0.000006
24.015	0.000001
24.020	0.000035
24.025	0.000021
24.030	0.000020
24.035	0.000014
24.040	0.000007
24.045	0.000020
24.050	-0.000007
24.055	0.000014
24.060	0.000054
24.065	0.000027
24.070	0.000020
24.075	0.000000
24.080	0.000028
24.085	-0.000006
24.090	0.000000
24.095	0.000027
24.100	0.000014
24.105	0.000007
24.110	0.000027
24.115	0.000027
24.120	0.000020
24.125	0.000027
24.130	0.000014
24.135	0.000007
24.140	-0.000007
24.145	-0.000007
24.150	0.000028
24.155	0.000020
24.160	0.000006
24.165	0.000013
24.170	0.000027
24.175	0.000020
24.180	0.000013
24.185	0.000020
24.190	0.000020
24.195	0.000027
24.200	0.000040
24.205	0.000006
24.210	0.000041
24.215	0.000021
24.220	0.000027
24.225	-0.000000
24.230	-0.000007
24.235	0.000027
24.240	0.000006
24.245	0.000033
24.250	0.000033
24.255	0.000013
24.260	0.000040
24.265	-0.000007
24.270	0.000006
24.275	-0.000007
24.280	0.000020
24.285	0.000007
24.290	-0.000001
24.295	-0.000008
24.300	-0.000008
24.305	-0.000008
24.310	0.000013
24.315	0.000047
24.320	0.000013
24.325	0.000019
24.330	-0.000008
24.335	0.000006
24.340	0.000033
24.345	0.000027
24.350	-0.000007
24.355	0.000013
24.360	-0.000001
24.365	0.000013
24.370	0.000020
24.375	0.000019
24.380	0.000006
24.385	-0.000008
24.390	-0.000008
24.395	-0.000015
24.400	-0.000001
24.405	0.000032
24.410	-0.000001
24.415	0.000027
24.420	0.000020
24.425	0.000026
24.430	-0.000001
24.435	0.000026
24.440	0.000012
24.445	0.000046
24.450	0.000012
24.455	0.000012
24.460	0.000032
24.465	0.000019
24.470	0.000026
24.475	-0.000001
24.480	0.000040
24.485	0.000019
24.490	-0.000008
24.495	0.000012
24.500	0.000005
24.505	0.000012
24.510	0.000005
24.515	0.000026
24.520	-0.000002
24.525	-0.000008
24.530	0.000005
24.535	0.000019
24.540	-0.000002
24.545	0.000012
24.550	-0.000008
24.555	0.000039
24.560	-0.000002
24.565	0.000025
24.570	-0.000016
24.575	0.000018
24.580	-0.000002
24.585	-0.000002
24.590	0.000005
24.595	0.000039
24.600	0.000032
24.605	0.000018
24.610	0.000005
24.615	0.000019
24.620	0.000032
24.625	-0.000002
24.630	0.000025
24.635	0.000032
24.640	-0.000009
24.645	0.000005
24.650	0.000005
24.655	0.000032
24.660	0.000032
24.665	-0.000009
24.670	0.000018
24.675	0.000018
24.680	-0.000009
24.685	0.000005
24.690	0.000004
24.695	-0.000016
24.700	-0.000003
24.705	-0.000003
24.710	0.000011
24.715	0.000004
24.720	0.000038
24.725	0.000018
24.730	0.000038
24.735	0.000018
24.740	0.000011
24.745	0.000018
24.750	0.000012
24.755	0.000011
24.760	0.000024
24.765	0.000011
24.770	-0.000010
24.775	0.000004
24.780	0.000011
24.785	-0.000003
24.790	0.000024
24.795	0.000045
24.800	0.000017
24.805	0.000031
24.810	-0.000009
24.815	0.000032
24.820	0.000004
24.825	0.000031
24.830	0.000051
24.835	0.000004
24.840	0.000004
24.845	0.000010
24.850	-0.000010
24.855	0.000010
24.860	-0.000017
24.865	-0.000003
24.870	-0.000003
24.875	0.000011
24.880	0.000018
24.885	0.000018
24.890	0.000004
24.895	0.000024
24.900	-0.000003
24.905	-0.000003
24.910	0.000024
24.915	0.000017
24.920	0.000024
24.925	0.000010
24.930	-0.000010
24.935	0.000051
24.940	0.000024
24.945	-0.000010
24.950	0.000004
24.955	0.000003
24.960	0.000037
24.965	-0.000004
24.970	0.000010
24.975	0.000010
24.980	0.000003
24.985	-0.000003
24.990	0.000003
24.995	0.000003
25.000	-0.000004
25.005	0.000003
25.010	0.000011
25.015	0.000018
25.020	-0.000010
25.025	-0.000031
25.030	0.000003
25.035	0.000003
25.040	0.000003
25.045	0.000017
25.050	0.000003
25.055	0.000010
25.060	0.000003
25.065	0.000010
25.070	0.000036
25.075	0.000023
25.080	0.000017
25.085	0.000010
25.090	0.000009
25.095	-0.000011
25.100	-0.000004
25.105	0.000010
25.110	-0.000011
25.115	0.000043
25.120	0.000016
25.125	0.000036
25.130	0.000016
25.135	-0.000018
25.140	0.000010
25.145	0.000017
25.150	-0.000003
25.155	0.000009
25.160	0.000003
25.165	0.000003
25.170	-0.000024
25.175	0.000003
25.180	0.000016
25.185	0.000009
25.190	-0.000004
25.195	0.000023
25.200	0.000016
25.205	0.000016
25.210	0.000016
25.215	0.000030
25.220	0.000016
25.225	0.000016
25.230	-0.000018
25.235	0.000016
25.240	0.000002
25.245	0.000016
25.250	-0.000005
25.255	0.000022
25.260	-0.000011
25.265	0.000022
25.270	0.000022
25.275	0.000016
25.280	0.000010
25.285	0.000043
25.290	0.000036
25.295	0.000016
25.300	0.000009
25.305	0.000022
25.310	0.000009
25.315	-0.000011
25.320	0.000022
25.325	0.000022
25.330	0.000015
25.335	0.000029
25.340	0.000008
25.345	0.000016
25.350	0.000023
25.355	-0.000025
25.360	0.000001
25.365	0.000002
25.370	0.000015
25.375	0.000029
25.380	0.000035
25.385	0.000002
25.390	0.000015
25.395	0.000008
25.400	0.000035
25.405	0.000015
25.410	0.000022
25.415	0.000002
25.420	0.000016
25.425	0.000029
25.430	-0.000005
25.435	0.000015
25.440	-0.000012
25.445	0.000029
25.450	0.000008
25.455	0.000008
25.460	0.000008
25.465	0.000021
25.470	0.000001
25.475	-0.000019
25.480	0.000029
25.485	0.000015
25.490	-0.000006
25.495	-0.000026
25.500	0.000001
25.505	0.000021
25.510	0.000028
25.515	0.000001
25.520	0.000021
25.525	0.000014
25.530	-0.000019
25.535	0.000014
25.540	-0.000006
25.545	-0.000025
25.550	0.000015
25.555	-0.000006
25.560	0.000001
25.565	0.000014
25.570	0.000008
25.575	-0.000019
25.580	-0.000013
25.585	0.000015
25.590	0.000034
25.595	0.000041
25.600	0.000000
25.605	-0.000013
25.610	-0.000019
25.615	-0.000012
25.620	0.000028
25.625	0.000014
25.630	0.000034
25.635	0.000014
25.640	0.000007
25.645	-0.000006
25.650	0.000000
25.655	0.000007
25.660	0.000020
25.665	0.000014
25.670	0.000007
25.675	0.000034
25.680	0.000014
25.685	0.000034
25.690	-0.000013
25.695	0.000000
25.700	0.000000
25.705	0.000021
25.710	0.000000
25.715	0.000014
25.720	0.000000
25.725	-0.000007
25.730	0.000020
25.735	-0.000021
25.740	-0.000000
25.745	-0.000013
25.750	-0.000020
25.755	-0.000000
25.760	0.000020
25.765	0.000020
25.770	-0.000027
25.775	0.000006
25.780	0.000040
25.785	0.000006
25.790	-0.000007
25.795	0.000006
25.800	-0.000014
25.805	-0.000028
25.810	-0.000013
25.815	0.000007
25.820	-0.000000
25.825	-0.000014
25.830	-0.000014
25.835	-0.000014
25.840	-0.000001
25.845	0.000020
25.850	-0.000007
25.855	-0.000007
25.860	-0.000001
25.865	0.000033
25.870	-0.000001
25.875	0.000006
25.880	0.000013
25.885	0.000013
25.890	-0.000021
25.895	0.000006
25.900	-0.000001
25.905	0.000013
25.910	-0.000014
25.915	0.000019
25.920	-0.000001
25.925	-0.000001
25.930	-0.000001
25.935	0.000006
25.940	-0.000014
25.945	0.000007
25.950	0.000020
25.955	0.000006
25.960	0.000006
25.965	0.000006
25.970	-0.000001
25.975	0.000006
25.980	0.000006
25.985	0.000033
25.990	0.000019
25.995	0.000019
26.000	0.000005
26.005	0.000012
26.010	0.000006
26.015	0.000013
26.020	-0.000021
26.025	-0.000001
26.030	0.000012
26.035	-0.000002
26.040	-0.000008
26.045	0.000032
26.050	0.000005
26.055	-0.000002
26.060	-0.000008
26.065	-0.000002
26.070	-0.000002
26.075	0.000006
26.080	0.000019
26.085	-0.000015
26.090	-0.000008
26.095	0.000012
26.100	0.000019
26.105	0.000005
26.110	-0.000022
26.115	0.000012
26.120	-0.000008
26.125	0.000046
26.130	0.000032
26.135	0.000018
26.140	-0.000009
26.145	0.000005
26.150	0.000005
26.155	0.000032
26.160	0.000005
26.165	0.000005
26.170	-0.000002
26.175	0.000018
26.180	0.000025
26.185	0.000005
26.190	0.000011
26.195	-0.000002
26.200	0.000025
26.205	-0.000009
26.210	-0.000022
26.215	0.000012
26.220	0.000005
26.225	0.000005
26.230	-0.000009
26.235	0.000018
26.240	0.000018
26.245	-0.000015
26.250	-0.000009
26.255	-0.000023
26.260	0.000011
26.265	-0.000002
26.270	-0.000043
26.275	-0.000009
26.280	0.000005
26.285	0.000005
26.290	-0.000016
26.295	0.000004
26.300	0.000018
26.305	-0.000009
26.310	0.000024
26.315	-0.000009
