PK2650 Deflection Data
Z Position (mm)	100.000	W Position (deg)	288.00
Preform ID	Diameter (mm)	Time Stamp	Start Time	Operator	Serial Number
Test 1	25	03-Nov-22 18:05:01	03-Nov-22 18:06:23	[no user]	266007708
Radius (mm)	Deflection
-26.250	-0.000002
-26.245	0.000018
-26.240	-0.000002
-26.235	0.000018
-26.230	-0.000030
-26.225	-0.000029
-26.220	0.000005
-26.215	0.000004
-26.210	0.000004
-26.205	0.000011
-26.200	-0.000003
-26.195	-0.000010
-26.190	0.000004
-26.185	0.000004
-26.180	0.000004
-26.175	-0.000003
-26.170	-0.000010
-26.165	-0.000010
-26.160	-0.000023
-26.155	-0.000017
-26.150	-0.000031
-26.145	-0.000004
-26.140	0.000010
-26.135	-0.000011
-26.130	-0.000017
-26.125	0.000010
-26.120	-0.000010
-26.115	0.000024
-26.110	-0.000004
-26.105	0.000003
-26.100	-0.000011
-26.095	0.000004
-26.090	0.000011
-26.085	-0.000010
-26.080	-0.000031
-26.075	-0.000031
-26.070	-0.000004
-26.065	0.000016
-26.060	-0.000031
-26.055	0.000016
-26.050	0.000003
-26.045	-0.000011
-26.040	0.000023
-26.035	0.000009
-26.030	-0.000004
-26.025	-0.000017
-26.020	-0.000011
-26.015	-0.000011
-26.010	-0.000032
-26.005	0.000016
-26.000	-0.000005
-25.995	-0.000011
-25.990	0.000016
-25.985	0.000023
-25.980	0.000009
-25.975	0.000029
-25.970	0.000016
-25.965	0.000016
-25.960	-0.000018
-25.955	-0.000018
-25.950	0.000002
-25.945	0.000009
-25.940	-0.000032
-25.935	-0.000012
-25.930	-0.000018
-25.925	0.000002
-25.920	0.000022
-25.915	-0.000012
-25.910	0.000036
-25.905	-0.000019
-25.900	0.000008
-25.895	-0.000005
-25.890	-0.000018
-25.885	0.000002
-25.880	-0.000012
-25.875	-0.000019
-25.870	-0.000026
-25.865	0.000001
-25.860	0.000001
-25.855	0.000022
-25.850	0.000015
-25.845	-0.000012
-25.840	0.000028
-25.835	-0.000006
-25.830	0.000008
-25.825	-0.000012
-25.820	-0.000012
-25.815	-0.000019
-25.810	0.000015
-25.805	0.000001
-25.800	-0.000012
-25.795	0.000008
-25.790	0.000001
-25.785	0.000015
-25.780	0.000008
-25.775	0.000001
-25.770	-0.000006
-25.765	-0.000026
-25.760	-0.000026
-25.755	0.000002
-25.750	-0.000033
-25.745	-0.000040
-25.740	-0.000006
-25.735	0.000007
-25.730	-0.000020
-25.725	-0.000013
-25.720	0.000008
-25.715	-0.000006
-25.710	0.000007
-25.705	0.000001
-25.700	-0.000006
-25.695	-0.000006
-25.690	-0.000019
-25.685	-0.000033
-25.680	-0.000034
-25.675	-0.000013
-25.670	-0.000013
-25.665	-0.000006
-25.660	-0.000013
-25.655	-0.000020
-25.650	0.000001
-25.645	-0.000027
-25.640	-0.000020
-25.635	-0.000027
-25.630	-0.000013
-25.625	-0.000040
-25.620	0.000014
-25.615	-0.000020
-25.610	-0.000000
-25.605	0.000007
-25.600	-0.000020
-25.595	-0.000014
-25.590	0.000000
-25.585	-0.000014
-25.580	0.000000
-25.575	0.000021
-25.570	-0.000020
-25.565	-0.000013
-25.560	0.000007
-25.555	-0.000006
-25.550	-0.000027
-25.545	0.000007
-25.540	-0.000000
-25.535	-0.000020
-25.530	0.000007
-25.525	0.000000
-25.520	-0.000020
-25.515	0.000027
-25.510	0.000013
-25.505	-0.000021
-25.500	-0.000021
-25.495	-0.000027
-25.490	-0.000013
-25.485	0.000007
-25.480	0.000020
-25.475	-0.000014
-25.470	-0.000014
-25.465	-0.000021
-25.460	0.000006
-25.455	-0.000007
-25.450	0.000020
-25.445	-0.000001
-25.440	-0.000007
-25.435	0.000013
-25.430	-0.000034
-25.425	-0.000007
-25.420	-0.000000
-25.415	-0.000028
-25.410	-0.000035
-25.405	0.000006
-25.400	-0.000014
-25.395	-0.000008
-25.390	0.000006
-25.385	0.000020
-25.380	-0.000001
-25.375	0.000006
-25.370	-0.000008
-25.365	-0.000021
-25.360	-0.000007
-25.355	-0.000014
-25.350	-0.000008
-25.345	-0.000001
-25.340	-0.000035
-25.335	0.000006
-25.330	0.000005
-25.325	-0.000049
-25.320	-0.000008
-25.315	-0.000001
-25.310	0.000019
-25.305	-0.000008
-25.300	-0.000022
-25.295	0.000006
-25.290	-0.000041
-25.285	-0.000008
-25.280	0.000012
-25.275	-0.000022
-25.270	0.000019
-25.265	-0.000015
-25.260	-0.000001
-25.255	0.000019
-25.250	-0.000001
-25.245	-0.000008
-25.240	-0.000002
-25.235	-0.000022
-25.230	0.000005
-25.225	-0.000021
-25.220	0.000006
-25.215	-0.000022
-25.210	-0.000022
-25.205	-0.000015
-25.200	-0.000008
-25.195	-0.000022
-25.190	-0.000002
-25.185	0.000025
-25.180	0.000012
-25.175	0.000012
-25.170	-0.000009
-25.165	-0.000008
-25.160	0.000006
-25.155	0.000006
-25.150	-0.000022
-25.145	-0.000022
-25.140	0.000011
-25.135	-0.000022
-25.130	0.000018
-25.125	0.000019
-25.120	-0.000002
-25.115	0.000025
-25.110	0.000025
-25.105	0.000005
-25.100	0.000004
-25.095	0.000019
-25.090	0.000019
-25.085	-0.000023
-25.080	-0.000016
-25.075	-0.000002
-25.070	-0.000002
-25.065	0.000011
-25.060	0.000004
-25.055	0.000004
-25.050	0.000025
-25.045	0.000018
-25.040	0.000011
-25.035	0.000004
-25.030	-0.000009
-25.025	0.000005
-25.020	0.000005
-25.015	-0.000009
-25.010	-0.000009
-25.005	-0.000002
-25.000	-0.000016
-24.995	0.000018
-24.990	0.000004
-24.985	0.000018
-24.980	0.000018
-24.975	0.000018
-24.970	-0.000003
-24.965	-0.000016
-24.960	-0.000009
-24.955	-0.000009
-24.950	-0.000023
-24.945	-0.000010
-24.940	0.000004
-24.935	-0.000009
-24.930	-0.000017
-24.925	0.000017
-24.920	-0.000016
-24.915	0.000018
-24.910	-0.000003
-24.905	-0.000023
-24.900	-0.000003
-24.895	-0.000002
-24.890	-0.000029
-24.885	-0.000016
-24.880	-0.000003
-24.875	-0.000016
-24.870	0.000031
-24.865	-0.000023
-24.860	-0.000023
-24.855	-0.000003
-24.850	0.000004
-24.845	0.000011
-24.840	0.000011
-24.835	0.000010
-24.830	-0.000030
-24.825	0.000011
-24.820	-0.000010
-24.815	0.000004
-24.810	0.000004
-24.805	0.000004
-24.800	-0.000003
-24.795	0.000017
-24.790	-0.000017
-24.785	0.000031
-24.780	0.000003
-24.775	0.000031
-24.770	0.000010
-24.765	-0.000003
-24.760	-0.000023
-24.755	-0.000016
-24.750	-0.000017
-24.745	-0.000030
-24.740	-0.000017
-24.735	-0.000003
-24.730	0.000024
-24.725	0.000024
-24.720	-0.000017
-24.715	0.000017
-24.710	0.000010
-24.705	0.000031
-24.700	0.000003
-24.695	-0.000003
-24.690	-0.000037
-24.685	0.000004
-24.680	0.000003
-24.675	0.000003
-24.670	-0.000003
-24.665	0.000010
-24.660	0.000010
-24.655	0.000037
-24.650	-0.000003
-24.645	0.000017
-24.640	0.000017
-24.635	0.000010
-24.630	-0.000030
-24.625	-0.000003
-24.620	-0.000037
-24.615	-0.000004
-24.610	-0.000010
-24.605	0.000003
-24.600	0.000024
-24.595	0.000037
-24.590	0.000024
-24.585	0.000017
-24.580	0.000003
-24.575	-0.000004
-24.570	-0.000004
-24.565	0.000010
-24.560	0.000031
-24.555	-0.000003
-24.550	0.000030
-24.545	0.000016
-24.540	-0.000004
-24.535	0.000016
-24.530	0.000016
-24.525	-0.000011
-24.520	0.000023
-24.515	0.000016
-24.510	0.000023
-24.505	0.000023
-24.500	0.000010
-24.495	0.000010
-24.490	0.000024
-24.485	0.000003
-24.480	0.000003
-24.475	0.000023
-24.470	0.000016
-24.465	0.000030
-24.460	0.000023
-24.455	0.000016
-24.450	0.000003
-24.445	0.000003
-24.440	0.000009
-24.435	0.000009
-24.430	-0.000031
-24.425	0.000017
-24.420	0.000003
-24.415	-0.000018
-24.410	-0.000011
-24.405	-0.000011
-24.400	0.000023
-24.395	0.000029
-24.390	0.000050
-24.385	-0.000011
-24.380	0.000043
-24.375	0.000002
-24.370	0.000002
-24.365	0.000003
-24.360	0.000010
-24.355	-0.000011
-24.350	-0.000005
-24.345	-0.000025
-24.340	0.000002
-24.335	0.000009
-24.330	0.000022
-24.325	0.000036
-24.320	0.000023
-24.315	0.000023
-24.310	0.000022
-24.305	0.000022
-24.300	0.000036
-24.295	0.000029
-24.290	0.000023
-24.285	-0.000012
-24.280	0.000008
-24.275	-0.000005
-24.270	0.000035
-24.265	0.000022
-24.260	0.000002
-24.255	0.000036
-24.250	0.000009
-24.245	0.000022
-24.240	0.000036
-24.235	0.000009
-24.230	0.000029
-24.225	0.000016
-24.220	0.000015
-24.215	0.000022
-24.210	0.000008
-24.205	0.000029
-24.200	0.000022
-24.195	0.000015
-24.190	0.000022
-24.185	0.000002
-24.180	0.000015
-24.175	0.000029
-24.170	0.000021
-24.165	0.000022
-24.160	0.000008
-24.155	0.000008
-24.150	0.000021
-24.145	0.000014
-24.140	0.000008
-24.135	0.000021
-24.130	0.000028
-24.125	0.000028
-24.120	0.000015
-24.115	0.000035
-24.110	0.000042
-24.105	0.000001
-24.100	0.000035
-24.095	0.000035
-24.090	0.000015
-24.085	-0.000013
-24.080	-0.000006
-24.075	-0.000013
-24.070	0.000021
-24.065	0.000008
-24.060	0.000021
-24.055	0.000041
-24.050	0.000021
-24.045	0.000014
-24.040	0.000014
-24.035	0.000028
-24.030	0.000014
-24.025	-0.000006
-24.020	0.000021
-24.015	0.000014
-24.010	0.000014
-24.005	-0.000006
-24.000	0.000027
-23.995	0.000014
-23.990	0.000000
-23.985	0.000027
-23.980	0.000034
-23.975	0.000034
-23.970	0.000021
-23.965	0.000021
-23.960	0.000001
-23.955	-0.000020
-23.950	0.000000
-23.945	-0.000000
-23.940	0.000000
-23.935	0.000054
-23.930	0.000014
-23.925	0.000014
-23.920	-0.000000
-23.915	0.000007
-23.910	0.000027
-23.905	0.000034
-23.900	-0.000000
-23.895	-0.000007
-23.890	-0.000007
-23.885	-0.000014
-23.880	-0.000001
-23.875	0.000013
-23.870	0.000006
-23.865	-0.000014
-23.860	-0.000014
-23.855	0.000020
-23.850	0.000026
-23.845	0.000006
-23.840	-0.000014
-23.835	0.000006
-23.830	-0.000007
-23.825	0.000007
-23.820	-0.000014
-23.815	-0.000008
-23.810	-0.000008
-23.805	-0.000008
-23.800	-0.000001
-23.795	-0.000001
-23.790	0.000040
-23.785	0.000019
-23.780	0.000006
-23.775	0.000019
-23.770	0.000006
-23.765	0.000020
-23.760	0.000006
-23.755	-0.000021
-23.750	-0.000022
-23.745	-0.000008
-23.740	0.000012
-23.735	0.000032
-23.730	0.000019
-23.725	0.000026
-23.720	0.000012
-23.715	0.000019
-23.710	0.000032
-23.705	-0.000022
-23.700	-0.000022
-23.695	0.000040
-23.690	-0.000021
-23.685	0.000005
-23.680	-0.000022
-23.675	-0.000022
-23.670	-0.000022
-23.665	-0.000002
-23.660	-0.000001
-23.655	0.000012
-23.650	-0.000008
-23.645	-0.000002
-23.640	-0.000009
-23.635	0.000025
-23.630	-0.000015
-23.625	-0.000008
-23.620	-0.000029
-23.615	0.000011
-23.610	-0.000016
-23.605	-0.000023
-23.600	0.000011
-23.595	0.000011
-23.590	-0.000022
-23.585	-0.000009
-23.580	0.000005
-23.575	-0.000016
-23.570	-0.000016
-23.565	-0.000036
-23.560	-0.000015
-23.555	-0.000029
-23.550	-0.000043
-23.545	-0.000023
-23.540	-0.000030
-23.535	-0.000002
-23.530	-0.000009
-23.525	-0.000030
-23.520	-0.000009
-23.515	-0.000016
-23.510	-0.000030
-23.505	-0.000044
-23.500	-0.000037
-23.495	-0.000050
-23.490	-0.000063
-23.485	-0.000057
-23.480	-0.000057
-23.475	-0.000037
-23.470	-0.000051
-23.465	-0.000057
-23.460	-0.000051
-23.455	-0.000024
-23.450	-0.000044
-23.445	-0.000017
-23.440	-0.000010
-23.435	-0.000024
-23.430	-0.000044
-23.425	-0.000016
-23.420	-0.000051
-23.415	-0.000037
-23.410	-0.000038
-23.405	-0.000010
-23.400	-0.000044
-23.395	-0.000065
-23.390	-0.000010
-23.385	0.000010
-23.380	-0.000024
-23.375	-0.000031
-23.370	-0.000024
-23.365	0.000003
-23.360	-0.000044
-23.355	-0.000051
-23.350	-0.000024
-23.345	-0.000038
-23.340	-0.000031
-23.335	-0.000045
-23.330	-0.000025
-23.325	-0.000018
-23.320	-0.000031
-23.315	-0.000045
-23.310	-0.000038
-23.305	-0.000031
-23.300	-0.000018
-23.295	-0.000017
-23.290	-0.000011
-23.285	-0.000045
-23.280	-0.000018
-23.275	-0.000072
-23.270	-0.000031
-23.265	-0.000018
-23.260	-0.000025
-23.255	-0.000025
-23.250	-0.000011
-23.245	-0.000011
-23.240	-0.000012
-23.235	-0.000018
-23.230	-0.000025
-23.225	-0.000011
-23.220	-0.000012
-23.215	-0.000032
-23.210	-0.000039
-23.205	-0.000025
-23.200	-0.000018
-23.195	-0.000032
-23.190	-0.000005
-23.185	-0.000005
-23.180	-0.000039
-23.175	-0.000025
-23.170	-0.000039
-23.165	-0.000039
-23.160	-0.000059
-23.155	-0.000038
-23.150	-0.000033
-23.145	-0.000032
-23.140	-0.000032
-23.135	-0.000053
-23.130	-0.000039
-23.125	-0.000039
-23.120	0.000008
-23.115	-0.000039
-23.110	-0.000012
-23.105	-0.000046
-23.100	-0.000026
-23.095	-0.000019
-23.090	-0.000012
-23.085	-0.000026
-23.080	-0.000053
-23.075	-0.000019
-23.070	-0.000047
-23.065	-0.000033
-23.060	-0.000019
-23.055	-0.000026
-23.050	-0.000040
-23.045	-0.000033
-23.040	0.000008
-23.035	-0.000047
-23.030	0.000001
-23.025	-0.000025
-23.020	-0.000040
-23.015	-0.000047
-23.010	-0.000020
-23.005	-0.000040
-23.000	-0.000033
-22.995	-0.000067
-22.990	-0.000040
-22.985	-0.000040
-22.980	-0.000047
-22.975	-0.000020
-22.970	-0.000020
-22.965	-0.000033
-22.960	-0.000040
-22.955	-0.000046
-22.950	0.000000
-22.945	-0.000027
-22.940	-0.000061
-22.935	-0.000040
-22.930	-0.000020
-22.925	0.000000
-22.920	-0.000013
-22.915	-0.000047
-22.910	-0.000007
-22.905	-0.000020
-22.900	-0.000060
-22.895	-0.000033
-22.890	-0.000033
-22.885	-0.000041
-22.880	-0.000047
-22.875	-0.000047
-22.870	-0.000027
-22.865	-0.000020
-22.860	-0.000027
-22.855	-0.000027
-22.850	0.000007
-22.845	-0.000014
-22.840	-0.000000
-22.835	-0.000007
-22.830	-0.000020
-22.825	-0.000020
-22.820	-0.000041
-22.815	-0.000041
-22.810	-0.000041
-22.805	-0.000041
-22.800	-0.000048
-22.795	-0.000034
-22.790	-0.000034
-22.785	-0.000007
-22.780	-0.000014
-22.775	-0.000041
-22.770	-0.000021
-22.765	-0.000047
-22.760	-0.000013
-22.755	-0.000054
-22.750	-0.000041
-22.745	-0.000055
-22.740	-0.000034
-22.735	-0.000014
-22.730	-0.000007
-22.725	-0.000034
-22.720	-0.000014
-22.715	-0.000034
-22.710	-0.000014
-22.705	-0.000001
-22.700	-0.000021
-22.695	-0.000034
-22.690	-0.000055
-22.685	-0.000055
-22.680	-0.000055
-22.675	-0.000035
-22.670	-0.000062
-22.665	-0.000021
-22.660	0.000006
-22.655	-0.000042
-22.650	-0.000028
-22.645	-0.000042
-22.640	-0.000015
-22.635	-0.000055
-22.630	-0.000021
-22.625	-0.000021
-22.620	-0.000042
-22.615	-0.000049
-22.610	-0.000083
-22.605	-0.000021
-22.600	-0.000028
-22.595	-0.000028
-22.590	-0.000035
-22.585	-0.000028
-22.580	-0.000035
-22.575	-0.000035
-22.570	-0.000015
-22.565	-0.000035
-22.560	-0.000028
-22.555	-0.000035
-22.550	-0.000049
-22.545	-0.000070
-22.540	-0.000043
-22.535	-0.000042
-22.530	-0.000049
-22.525	-0.000049
-22.520	-0.000029
-22.515	-0.000049
-22.510	-0.000043
-22.505	-0.000042
-22.500	-0.000042
-22.495	-0.000042
-22.490	-0.000022
-22.485	-0.000049
-22.480	-0.000056
-22.475	-0.000049
-22.470	-0.000022
-22.465	-0.000022
-22.460	-0.000029
-22.455	-0.000036
-22.450	-0.000016
-22.445	-0.000022
-22.440	-0.000043
-22.435	-0.000056
-22.430	-0.000036
-22.425	-0.000049
-22.420	-0.000070
-22.415	-0.000070
-22.410	-0.000043
-22.405	-0.000050
-22.400	-0.000057
-22.395	-0.000050
-22.390	-0.000050
-22.385	-0.000050
-22.380	-0.000023
-22.375	-0.000043
-22.370	-0.000036
-22.365	-0.000063
-22.360	-0.000056
-22.355	-0.000056
-22.350	-0.000064
-22.345	-0.000037
-22.340	-0.000037
-22.335	-0.000057
-22.330	-0.000030
-22.325	-0.000016
-22.320	-0.000064
-22.315	-0.000030
-22.310	-0.000037
-22.305	-0.000037
-22.300	-0.000030
-22.295	-0.000023
-22.290	-0.000023
-22.285	-0.000057
-22.280	-0.000051
-22.275	-0.000051
-22.270	-0.000057
-22.265	-0.000071
-22.260	-0.000037
-22.255	-0.000050
-22.250	-0.000057
-22.245	-0.000030
-22.240	-0.000017
-22.235	-0.000050
-22.230	-0.000050
-22.225	-0.000057
-22.220	-0.000030
-22.215	-0.000037
-22.210	-0.000044
-22.205	-0.000037
-22.200	-0.000024
-22.195	-0.000044
-22.190	-0.000017
-22.185	-0.000051
-22.180	-0.000044
-22.175	-0.000010
-22.170	-0.000064
-22.165	-0.000057
-22.160	-0.000064
-22.155	-0.000071
-22.150	-0.000024
-22.145	-0.000037
-22.140	-0.000058
-22.135	-0.000099
-22.130	-0.000051
-22.125	-0.000031
-22.120	-0.000031
-22.115	-0.000003
-22.110	-0.000044
-22.105	-0.000017
-22.100	-0.000024
-22.095	-0.000071
-22.090	-0.000051
-22.085	-0.000078
-22.080	-0.000078
-22.075	-0.000031
-22.070	-0.000038
-22.065	-0.000044
-22.060	-0.000038
-22.055	-0.000037
-22.050	-0.000044
-22.045	-0.000017
-22.040	-0.000004
-22.035	-0.000031
-22.030	-0.000044
-22.025	-0.000024
-22.020	-0.000045
-22.015	-0.000052
-22.010	-0.000058
-22.005	-0.000025
-22.000	-0.000038
-21.995	-0.000024
-21.990	-0.000045
-21.985	-0.000024
-21.980	-0.000018
-21.975	-0.000031
-21.970	-0.000045
-21.965	-0.000037
-21.960	-0.000058
-21.955	-0.000031
-21.950	-0.000045
-21.945	-0.000052
-21.940	-0.000031
-21.935	-0.000052
-21.930	-0.000052
-21.925	-0.000024
-21.920	-0.000031
-21.915	-0.000045
-21.910	-0.000045
-21.905	-0.000018
-21.900	-0.000011
-21.895	-0.000038
-21.890	-0.000051
-21.885	-0.000066
-21.880	-0.000032
-21.875	-0.000025
-21.870	-0.000059
-21.865	-0.000052
-21.860	-0.000018
-21.855	-0.000032
-21.850	-0.000032
-21.845	-0.000038
-21.840	-0.000052
-21.835	-0.000052
-21.830	-0.000065
-21.825	-0.000051
-21.820	-0.000045
-21.815	-0.000079
-21.810	-0.000032
-21.805	-0.000052
-21.800	-0.000052
-21.795	-0.000052
-21.790	-0.000045
-21.785	-0.000025
-21.780	-0.000039
-21.775	-0.000052
-21.770	-0.000025
-21.765	-0.000032
-21.760	-0.000065
-21.755	-0.000059
-21.750	-0.000073
-21.745	-0.000025
-21.740	-0.000046
-21.735	-0.000025
-21.730	-0.000052
-21.725	-0.000039
-21.720	-0.000019
-21.715	-0.000059
-21.710	-0.000026
-21.705	-0.000025
-21.700	-0.000045
-21.695	-0.000065
-21.690	-0.000045
-21.685	-0.000046
-21.680	-0.000033
-21.675	-0.000026
-21.670	-0.000059
-21.665	-0.000032
-21.660	-0.000025
-21.655	-0.000025
-21.650	-0.000059
-21.645	-0.000019
-21.640	-0.000019
-21.635	-0.000053
-21.630	-0.000032
-21.625	-0.000018
-21.620	-0.000026
-21.615	-0.000046
-21.610	-0.000026
-21.605	-0.000033
-21.600	-0.000026
-21.595	-0.000026
-21.590	-0.000046
-21.585	-0.000026
-21.580	-0.000046
-21.575	-0.000026
-21.570	-0.000053
-21.565	-0.000025
-21.560	-0.000012
-21.555	-0.000026
-21.550	-0.000040
-21.545	-0.000019
-21.540	-0.000046
-21.535	-0.000019
-21.530	-0.000040
-21.525	-0.000026
-21.520	0.000001
-21.515	-0.000026
-21.510	-0.000026
-21.505	-0.000006
-21.500	-0.000033
-21.495	-0.000005
-21.490	-0.000033
-21.485	-0.000020
-21.480	-0.000027
-21.475	-0.000013
-21.470	0.000001
-21.465	0.000014
-21.460	0.000048
-21.455	0.000049
-21.450	0.000062
-21.445	0.000137
-21.440	0.000219
-21.435	0.000356
-21.430	0.000569
-21.425	0.000912
-21.420	0.001344
-21.415	0.001868
-21.410	0.002720
-21.405	0.003746
-21.400	0.004991
-21.395	0.006498
-21.390	0.008314
-21.385	0.010344
-21.380	0.012724
-21.375	0.015503
-21.370	0.018465
-21.365	0.021654
-21.360	0.025097
-21.355	0.028700
-21.350	0.032281
-21.345	0.035829
-21.340	0.039543
-21.335	0.043233
-21.330	0.046676
-21.325	0.049781
-21.320	0.050405
-21.315	0.049488
-21.310	0.048708
-21.305	0.047079
-21.300	0.045255
-21.295	0.044322
-21.290	0.043509
-21.285	0.042542
-21.280	0.041743
-21.275	0.041206
-21.270	0.040044
-21.265	0.038900
-21.260	0.037932
-21.255	0.036894
-21.250	0.036086
-21.245	0.035710
-21.240	0.034836
-21.235	0.034123
-21.230	0.033976
-21.225	0.033229
-21.220	0.032684
-21.215	0.032180
-21.210	0.031750
-21.205	0.031294
-21.200	0.031000
-21.195	0.030664
-21.190	0.030359
-21.185	0.030464
-21.180	0.030080
-21.175	0.029087
-21.170	0.028434
-21.165	0.028147
-21.160	0.027855
-21.155	0.027397
-21.150	0.027112
-21.145	0.026950
-21.140	0.026863
-21.135	0.027106
-21.130	0.027088
-21.125	0.026264
-21.120	0.025657
-21.115	0.025472
-21.110	0.025296
-21.105	0.025039
-21.100	0.024864
-21.095	0.024764
-21.090	0.024474
-21.085	0.024171
-21.080	0.023890
-21.075	0.023740
-21.070	0.023546
-21.065	0.023326
-21.060	0.023062
-21.055	0.022854
-21.050	0.022662
-21.045	0.022571
-21.040	0.022486
-21.035	0.022324
-21.030	0.022153
-21.025	0.021975
-21.020	0.021807
-21.015	0.021746
-21.010	0.021603
-21.005	0.021574
-21.000	0.021472
-20.995	0.021412
-20.990	0.021229
-20.985	0.021010
-20.980	0.020801
-20.975	0.020681
-20.970	0.020574
-20.965	0.020444
-20.960	0.020312
-20.955	0.020139
-20.950	0.020025
-20.945	0.019912
-20.940	0.019814
-20.935	0.019669
-20.930	0.019586
-20.925	0.019492
-20.920	0.019404
-20.915	0.019232
-20.910	0.019155
-20.905	0.019043
-20.900	0.018931
-20.895	0.018816
-20.890	0.018719
-20.885	0.018597
-20.880	0.018516
-20.875	0.018459
-20.870	0.018379
-20.865	0.018324
-20.860	0.018267
-20.855	0.018171
-20.850	0.018063
-20.845	0.017947
-20.840	0.017824
-20.835	0.017708
-20.830	0.017621
-20.825	0.017516
-20.820	0.017417
-20.815	0.017324
-20.810	0.017260
-20.805	0.017155
-20.800	0.017111
-20.795	0.017060
-20.790	0.016973
-20.785	0.016907
-20.780	0.016868
-20.775	0.016815
-20.770	0.016732
-20.765	0.016673
-20.760	0.016570
-20.755	0.016459
-20.750	0.016405
-20.745	0.016308
-20.740	0.016239
-20.735	0.016191
-20.730	0.016125
-20.725	0.016041
-20.720	0.015986
-20.715	0.015947
-20.710	0.015852
-20.705	0.015796
-20.700	0.015740
-20.695	0.015627
-20.690	0.015600
-20.685	0.015507
-20.680	0.015515
-20.675	0.015419
-20.670	0.015347
-20.665	0.015330
-20.660	0.015303
-20.655	0.015241
-20.650	0.015182
-20.645	0.015165
-20.640	0.015064
-20.635	0.015006
-20.630	0.014947
-20.625	0.014931
-20.620	0.014833
-20.615	0.014816
-20.610	0.014743
-20.605	0.014677
-20.600	0.014659
-20.595	0.014630
-20.590	0.014603
-20.585	0.014527
-20.580	0.014454
-20.575	0.014443
-20.570	0.014366
-20.565	0.014326
-20.560	0.014238
-20.555	0.014186
-20.550	0.014154
-20.545	0.014112
-20.540	0.014066
-20.535	0.014031
-20.530	0.013995
-20.525	0.013974
-20.520	0.013931
-20.515	0.013888
-20.510	0.013847
-20.505	0.013796
-20.500	0.013728
-20.495	0.013722
-20.490	0.013680
-20.485	0.013630
-20.480	0.013629
-20.475	0.013588
-20.470	0.013577
-20.465	0.013510
-20.460	0.013480
-20.455	0.013428
-20.450	0.013408
-20.445	0.013338
-20.440	0.013286
-20.435	0.013239
-20.430	0.013210
-20.425	0.013158
-20.420	0.013136
-20.415	0.013092
-20.410	0.013073
-20.405	0.013014
-20.400	0.012981
-20.395	0.012972
-20.390	0.012954
-20.385	0.012863
-20.380	0.012865
-20.375	0.012816
-20.370	0.012768
-20.365	0.012754
-20.360	0.012708
-20.355	0.012695
-20.350	0.012641
-20.345	0.012610
-20.340	0.012581
-20.335	0.012540
-20.330	0.012498
-20.325	0.012487
-20.320	0.012467
-20.315	0.012399
-20.310	0.012372
-20.305	0.012319
-20.300	0.012277
-20.295	0.012242
-20.290	0.012220
-20.285	0.012195
-20.280	0.012150
-20.275	0.012130
-20.270	0.012101
-20.265	0.012075
-20.260	0.012029
-20.255	0.012035
-20.250	0.011979
-20.245	0.012005
-20.240	0.011929
-20.235	0.011931
-20.230	0.011901
-20.225	0.011851
-20.220	0.011809
-20.215	0.011827
-20.210	0.011778
-20.205	0.011760
-20.200	0.011734
-20.195	0.011736
-20.190	0.011698
-20.185	0.011704
-20.180	0.011666
-20.175	0.011657
-20.170	0.011580
-20.165	0.011548
-20.160	0.011536
-20.155	0.011529
-20.150	0.011478
-20.145	0.011443
-20.140	0.011406
-20.135	0.011405
-20.130	0.011396
-20.125	0.011357
-20.120	0.011326
-20.115	0.011302
-20.110	0.011297
-20.105	0.011261
-20.100	0.011206
-20.095	0.011192
-20.090	0.011142
-20.085	0.011132
-20.080	0.011100
-20.075	0.011073
-20.070	0.011052
-20.065	0.011032
-20.060	0.011017
-20.055	0.011012
-20.050	0.010984
-20.045	0.010968
-20.040	0.010904
-20.035	0.010892
-20.030	0.010901
-20.025	0.010859
-20.020	0.010820
-20.015	0.010807
-20.010	0.010787
-20.005	0.010759
-20.000	0.010745
-19.995	0.010758
-19.990	0.010722
-19.985	0.010659
-19.980	0.010658
-19.975	0.010656
-19.970	0.010614
-19.965	0.010591
-19.960	0.010557
-19.955	0.010520
-19.950	0.010542
-19.945	0.010515
-19.940	0.010487
-19.935	0.010482
-19.930	0.010462
-19.925	0.010441
-19.920	0.010430
-19.915	0.010417
-19.910	0.010433
-19.905	0.010388
-19.900	0.010345
-19.895	0.010335
-19.890	0.010310
-19.885	0.010297
-19.880	0.010249
-19.875	0.010265
-19.870	0.010239
-19.865	0.010222
-19.860	0.010194
-19.855	0.010196
-19.850	0.010164
-19.845	0.010161
-19.840	0.010129
-19.835	0.010128
-19.830	0.010100
-19.825	0.010041
-19.820	0.010029
-19.815	0.010067
-19.810	0.010020
-19.805	0.009985
-19.800	0.009983
-19.795	0.009933
-19.790	0.009911
-19.785	0.009930
-19.780	0.009867
-19.775	0.009852
-19.770	0.009846
-19.765	0.009799
-19.760	0.009758
-19.755	0.009755
-19.750	0.009728
-19.745	0.009740
-19.740	0.009706
-19.735	0.009694
-19.730	0.009664
-19.725	0.009684
-19.720	0.009658
-19.715	0.009624
-19.710	0.009567
-19.705	0.009567
-19.700	0.009557
-19.695	0.009517
-19.690	0.009473
-19.685	0.009500
-19.680	0.009474
-19.675	0.009453
-19.670	0.009466
-19.665	0.009443
-19.660	0.009380
-19.655	0.009401
-19.650	0.009339
-19.645	0.009369
-19.640	0.009341
-19.635	0.009316
-19.630	0.009318
-19.625	0.009275
-19.620	0.009245
-19.615	0.009231
-19.610	0.009193
-19.605	0.009228
-19.600	0.009212
-19.595	0.009232
-19.590	0.009216
-19.585	0.009188
-19.580	0.009182
-19.575	0.009164
-19.570	0.009162
-19.565	0.009154
-19.560	0.009159
-19.555	0.009135
-19.550	0.009121
-19.545	0.009079
-19.540	0.009074
-19.535	0.009052
-19.530	0.009058
-19.525	0.009029
-19.520	0.009055
-19.515	0.009013
-19.510	0.009009
-19.505	0.009027
-19.500	0.008979
-19.495	0.008991
-19.490	0.008967
-19.485	0.008964
-19.480	0.008949
-19.475	0.008908
-19.470	0.008923
-19.465	0.008923
-19.460	0.008883
-19.455	0.008892
-19.450	0.008892
-19.445	0.008851
-19.440	0.008831
-19.435	0.008844
-19.430	0.008783
-19.425	0.008761
-19.420	0.008781
-19.415	0.008741
-19.410	0.008729
-19.405	0.008738
-19.400	0.008753
-19.395	0.008746
-19.390	0.008698
-19.385	0.008684
-19.380	0.008683
-19.375	0.008664
-19.370	0.008646
-19.365	0.008637
-19.360	0.008630
-19.355	0.008606
-19.350	0.008589
-19.345	0.008587
-19.340	0.008606
-19.335	0.008573
-19.330	0.008595
-19.325	0.008541
-19.320	0.008557
-19.315	0.008539
-19.310	0.008537
-19.305	0.008516
-19.300	0.008511
-19.295	0.008462
-19.290	0.008461
-19.285	0.008436
-19.280	0.008437
-19.275	0.008408
-19.270	0.008446
-19.265	0.008437
-19.260	0.008414
-19.255	0.008439
-19.250	0.008389
-19.245	0.008400
-19.240	0.008363
-19.235	0.008331
-19.230	0.008303
-19.225	0.008320
-19.220	0.008316
-19.215	0.008267
-19.210	0.008294
-19.205	0.008294
-19.200	0.008268
-19.195	0.008268
-19.190	0.008263
-19.185	0.008250
-19.180	0.008236
-19.175	0.008209
-19.170	0.008233
-19.165	0.008222
-19.160	0.008194
-19.155	0.008179
-19.150	0.008152
-19.145	0.008142
-19.140	0.008177
-19.135	0.008151
-19.130	0.008172
-19.125	0.008139
-19.120	0.008134
-19.115	0.008134
-19.110	0.008098
-19.105	0.008123
-19.100	0.008104
-19.095	0.008078
-19.090	0.008045
-19.085	0.008085
-19.080	0.008040
-19.075	0.008048
-19.070	0.008007
-19.065	0.008030
-19.060	0.008024
-19.055	0.008031
-19.050	0.007987
-19.045	0.007973
-19.040	0.007946
-19.035	0.007970
-19.030	0.007950
-19.025	0.007905
-19.020	0.007902
-19.015	0.007895
-19.010	0.007908
-19.005	0.007881
-19.000	0.007896
-18.995	0.007857
-18.990	0.007872
-18.985	0.007851
-18.980	0.007851
-18.975	0.007843
-18.970	0.007810
-18.965	0.007798
-18.960	0.007756
-18.955	0.007740
-18.950	0.007745
-18.945	0.007751
-18.940	0.007764
-18.935	0.007731
-18.930	0.007739
-18.925	0.007704
-18.920	0.007706
-18.915	0.007650
-18.910	0.007651
-18.905	0.007631
-18.900	0.007633
-18.895	0.007607
-18.890	0.007589
-18.885	0.007563
-18.880	0.007557
-18.875	0.007593
-18.870	0.007537
-18.865	0.007566
-18.860	0.007571
-18.855	0.007543
-18.850	0.007526
-18.845	0.007553
-18.840	0.007526
-18.835	0.007494
-18.830	0.007453
-18.825	0.007452
-18.820	0.007449
-18.815	0.007415
-18.810	0.007436
-18.805	0.007429
-18.800	0.007411
-18.795	0.007436
-18.790	0.007409
-18.785	0.007400
-18.780	0.007446
-18.775	0.007388
-18.770	0.007373
-18.765	0.007394
-18.760	0.007343
-18.755	0.007367
-18.750	0.007331
-18.745	0.007317
-18.740	0.007355
-18.735	0.007355
-18.730	0.007342
-18.725	0.007315
-18.720	0.007293
-18.715	0.007293
-18.710	0.007270
-18.705	0.007276
-18.700	0.007262
-18.695	0.007277
-18.690	0.007245
-18.685	0.007223
-18.680	0.007209
-18.675	0.007217
-18.670	0.007209
-18.665	0.007216
-18.660	0.007194
-18.655	0.007187
-18.650	0.007171
-18.645	0.007192
-18.640	0.007177
-18.635	0.007138
-18.630	0.007167
-18.625	0.007129
-18.620	0.007133
-18.615	0.007106
-18.610	0.007097
-18.605	0.007112
-18.600	0.007097
-18.595	0.007090
-18.590	0.007089
-18.585	0.007096
-18.580	0.007096
-18.575	0.007062
-18.570	0.007056
-18.565	0.007044
-18.560	0.007029
-18.555	0.007053
-18.550	0.007011
-18.545	0.007026
-18.540	0.007012
-18.535	0.007040
-18.530	0.006991
-18.525	0.006992
-18.520	0.006992
-18.515	0.006999
-18.510	0.006970
-18.505	0.006938
-18.500	0.006967
-18.495	0.006960
-18.490	0.006951
-18.485	0.006911
-18.480	0.006937
-18.475	0.006909
-18.470	0.006909
-18.465	0.006917
-18.460	0.006924
-18.455	0.006910
-18.450	0.006909
-18.445	0.006881
-18.440	0.006852
-18.435	0.006862
-18.430	0.006828
-18.425	0.006839
-18.420	0.006816
-18.415	0.006809
-18.410	0.006837
-18.405	0.006804
-18.400	0.006811
-18.395	0.006825
-18.390	0.006824
-18.385	0.006790
-18.380	0.006810
-18.375	0.006776
-18.370	0.006778
-18.365	0.006752
-18.360	0.006758
-18.355	0.006755
-18.350	0.006748
-18.345	0.006729
-18.340	0.006707
-18.335	0.006728
-18.330	0.006700
-18.325	0.006721
-18.320	0.006706
-18.315	0.006698
-18.310	0.006697
-18.305	0.006685
-18.300	0.006680
-18.295	0.006673
-18.290	0.006635
-18.285	0.006629
-18.280	0.006655
-18.275	0.006629
-18.270	0.006607
-18.265	0.006628
-18.260	0.006628
-18.255	0.006607
-18.250	0.006614
-18.245	0.006594
-18.240	0.006574
-18.235	0.006556
-18.230	0.006537
-18.225	0.006543
-18.220	0.006502
-18.215	0.006557
-18.210	0.006523
-18.205	0.006496
-18.200	0.006512
-18.195	0.006518
-18.190	0.006525
-18.185	0.006491
-18.180	0.006506
-18.175	0.006499
-18.170	0.006502
-18.165	0.006491
-18.160	0.006510
-18.155	0.006482
-18.150	0.006447
-18.145	0.006455
-18.140	0.006475
-18.135	0.006462
-18.130	0.006477
-18.125	0.006484
-18.120	0.006478
-18.115	0.006446
-18.110	0.006461
-18.105	0.006444
-18.100	0.006445
-18.095	0.006432
-18.090	0.006415
-18.085	0.006429
-18.080	0.006429
-18.075	0.006409
-18.070	0.006424
-18.065	0.006403
-18.060	0.006438
-18.055	0.006403
-18.050	0.006360
-18.045	0.006386
-18.040	0.006363
-18.035	0.006345
-18.030	0.006351
-18.025	0.006342
-18.020	0.006347
-18.015	0.006312
-18.010	0.006345
-18.005	0.006311
-18.000	0.006330
-17.995	0.006322
-17.990	0.006329
-17.985	0.006315
-17.980	0.006314
-17.975	0.006264
-17.970	0.006266
-17.965	0.006287
-17.960	0.006265
-17.955	0.006248
-17.950	0.006242
-17.945	0.006214
-17.940	0.006261
-17.935	0.006213
-17.930	0.006232
-17.925	0.006247
-17.920	0.006225
-17.915	0.006212
-17.910	0.006231
-17.905	0.006205
-17.900	0.006191
-17.895	0.006192
-17.890	0.006189
-17.885	0.006169
-17.880	0.006168
-17.875	0.006196
-17.870	0.006223
-17.865	0.006134
-17.860	0.006162
-17.855	0.006161
-17.850	0.006119
-17.845	0.006154
-17.840	0.006154
-17.835	0.006128
-17.830	0.006134
-17.825	0.006112
-17.820	0.006090
-17.815	0.006126
-17.810	0.006112
-17.805	0.006126
-17.800	0.006105
-17.795	0.006091
-17.790	0.006124
-17.785	0.006104
-17.780	0.006095
-17.775	0.006100
-17.770	0.006061
-17.765	0.006083
-17.760	0.006075
-17.755	0.006058
-17.750	0.006050
-17.745	0.006016
-17.740	0.006016
-17.735	0.006036
-17.730	0.006048
-17.725	0.006035
-17.720	0.006028
-17.715	0.006015
-17.710	0.006014
-17.705	0.005968
-17.700	0.005983
-17.695	0.005975
-17.690	0.005951
-17.685	0.005972
-17.680	0.005957
-17.675	0.005943
-17.670	0.005944
-17.665	0.005945
-17.660	0.005944
-17.655	0.005938
-17.650	0.005924
-17.645	0.005910
-17.640	0.005915
-17.635	0.005898
-17.630	0.005843
-17.625	0.005876
-17.620	0.005828
-17.615	0.005863
-17.610	0.005856
-17.605	0.005869
-17.600	0.005876
-17.595	0.005864
-17.590	0.005824
-17.585	0.005858
-17.580	0.005870
-17.575	0.005822
-17.570	0.005845
-17.565	0.005826
-17.560	0.005844
-17.555	0.005829
-17.550	0.005793
-17.545	0.005788
-17.540	0.005801
-17.535	0.005801
-17.530	0.005801
-17.525	0.005801
-17.520	0.005772
-17.515	0.005772
-17.510	0.005787
-17.505	0.005787
-17.500	0.005753
-17.495	0.005739
-17.490	0.005763
-17.485	0.005743
-17.480	0.005729
-17.475	0.005728
-17.470	0.005733
-17.465	0.005734
-17.460	0.005720
-17.455	0.005740
-17.450	0.005699
-17.445	0.005740
-17.440	0.005707
-17.435	0.005680
-17.430	0.005687
-17.425	0.005670
-17.420	0.005684
-17.415	0.005672
-17.410	0.005672
-17.405	0.005651
-17.400	0.005657
-17.395	0.005642
-17.390	0.005677
-17.385	0.005657
-17.380	0.005641
-17.375	0.005661
-17.370	0.005629
-17.365	0.005629
-17.360	0.005619
-17.355	0.005618
-17.350	0.005624
-17.345	0.005596
-17.340	0.005603
-17.335	0.005596
-17.330	0.005596
-17.325	0.005595
-17.320	0.005595
-17.315	0.005575
-17.310	0.005595
-17.305	0.005576
-17.300	0.005590
-17.295	0.005563
-17.290	0.005559
-17.285	0.005553
-17.280	0.005524
-17.275	0.005586
-17.270	0.005552
-17.265	0.005525
-17.260	0.005538
-17.255	0.005525
-17.250	0.005559
-17.245	0.005531
-17.240	0.005525
-17.235	0.005519
-17.230	0.005485
-17.225	0.005503
-17.220	0.005488
-17.215	0.005475
-17.210	0.005473
-17.205	0.005475
-17.200	0.005490
-17.195	0.005492
-17.190	0.005430
-17.185	0.005458
-17.180	0.005451
-17.175	0.005431
-17.170	0.005461
-17.165	0.005448
-17.160	0.005432
-17.155	0.005445
-17.150	0.005424
-17.145	0.005416
-17.140	0.005451
-17.135	0.005444
-17.130	0.005459
-17.125	0.005417
-17.120	0.005410
-17.115	0.005395
-17.110	0.005435
-17.105	0.005382
-17.100	0.005403
-17.095	0.005389
-17.090	0.005385
-17.085	0.005372
-17.080	0.005385
-17.075	0.005378
-17.070	0.005378
-17.065	0.005373
-17.060	0.005379
-17.055	0.005379
-17.050	0.005399
-17.045	0.005370
-17.040	0.005337
-17.035	0.005373
-17.030	0.005331
-17.025	0.005356
-17.020	0.005342
-17.015	0.005350
-17.010	0.005308
-17.005	0.005330
-17.000	0.005336
-16.995	0.005344
-16.990	0.005329
-16.985	0.005329
-16.980	0.005315
-16.975	0.005308
-16.970	0.005310
-16.965	0.005298
-16.960	0.005276
-16.955	0.005294
-16.950	0.005267
-16.945	0.005254
-16.940	0.005267
-16.935	0.005274
-16.930	0.005261
-16.925	0.005268
-16.920	0.005288
-16.915	0.005241
-16.910	0.005268
-16.905	0.005249
-16.900	0.005229
-16.895	0.005250
-16.890	0.005234
-16.885	0.005242
-16.880	0.005234
-16.875	0.005228
-16.870	0.005215
-16.865	0.005237
-16.860	0.005209
-16.855	0.005238
-16.850	0.005209
-16.845	0.005202
-16.840	0.005190
-16.835	0.005207
-16.830	0.005201
-16.825	0.005185
-16.820	0.005185
-16.815	0.005186
-16.810	0.005178
-16.805	0.005185
-16.800	0.005136
-16.795	0.005199
-16.790	0.005164
-16.785	0.005172
-16.780	0.005179
-16.775	0.005179
-16.770	0.005160
-16.765	0.005113
-16.760	0.005139
-16.755	0.005110
-16.750	0.005116
-16.745	0.005123
-16.740	0.005124
-16.735	0.005144
-16.730	0.005131
-16.725	0.005098
-16.720	0.005096
-16.715	0.005137
-16.710	0.005089
-16.705	0.005077
-16.700	0.005030
-16.695	0.005098
-16.690	0.005068
-16.685	0.005067
-16.680	0.005047
-16.675	0.005039
-16.670	0.005067
-16.665	0.005082
-16.660	0.005020
-16.655	0.005055
-16.650	0.005062
-16.645	0.005042
-16.640	0.005057
-16.635	0.005018
-16.630	0.005051
-16.625	0.005028
-16.620	0.005008
-16.615	0.005008
-16.610	0.004994
-16.605	0.005009
-16.600	0.004996
-16.595	0.004983
-16.590	0.005010
-16.585	0.004989
-16.580	0.004960
-16.575	0.004967
-16.570	0.004961
-16.565	0.005011
-16.560	0.004954
-16.555	0.004933
-16.550	0.004932
-16.545	0.004926
-16.540	0.004933
-16.535	0.004932
-16.530	0.004960
-16.525	0.004954
-16.520	0.004933
-16.515	0.004941
-16.510	0.004913
-16.505	0.004915
-16.500	0.004896
-16.495	0.004881
-16.490	0.004905
-16.485	0.004884
-16.480	0.004891
-16.475	0.004870
-16.470	0.004890
-16.465	0.004917
-16.460	0.004903
-16.455	0.004903
-16.450	0.004889
-16.445	0.004882
-16.440	0.004896
-16.435	0.004891
-16.430	0.004849
-16.425	0.004839
-16.420	0.004858
-16.415	0.004839
-16.410	0.004859
-16.405	0.004845
-16.400	0.004852
-16.395	0.004873
-16.390	0.004872
-16.385	0.004865
-16.380	0.004844
-16.375	0.004859
-16.370	0.004847
-16.365	0.004827
-16.360	0.004790
-16.355	0.004830
-16.350	0.004795
-16.345	0.004788
-16.340	0.004822
-16.335	0.004822
-16.330	0.004815
-16.325	0.004808
-16.320	0.004822
-16.315	0.004807
-16.310	0.004815
-16.305	0.004781
-16.300	0.004796
-16.295	0.004769
-16.290	0.004787
-16.285	0.004794
-16.280	0.004773
-16.275	0.004781
-16.270	0.004753
-16.265	0.004780
-16.260	0.004801
-16.255	0.004801
-16.250	0.004760
-16.245	0.004746
-16.240	0.004761
-16.235	0.004771
-16.230	0.004736
-16.225	0.004749
-16.220	0.004735
-16.215	0.004728
-16.210	0.004715
-16.205	0.004722
-16.200	0.004749
-16.195	0.004716
-16.190	0.004715
-16.185	0.004709
-16.180	0.004722
-16.175	0.004695
-16.170	0.004690
-16.165	0.004699
-16.160	0.004711
-16.155	0.004697
-16.150	0.004684
-16.145	0.004657
-16.140	0.004692
-16.135	0.004727
-16.130	0.004707
-16.125	0.004708
-16.120	0.004714
-16.115	0.004688
-16.110	0.004668
-16.105	0.004684
-16.100	0.004679
-16.095	0.004665
-16.090	0.004628
-16.085	0.004629
-16.080	0.004649
-16.075	0.004683
-16.070	0.004676
-16.065	0.004642
-16.060	0.004642
-16.055	0.004628
-16.050	0.004641
-16.045	0.004655
-16.040	0.004634
-16.035	0.004615
-16.030	0.004629
-16.025	0.004620
-16.020	0.004612
-16.015	0.004599
-16.010	0.004612
-16.005	0.004599
-16.000	0.004646
-15.995	0.004626
-15.990	0.004612
-15.985	0.004626
-15.980	0.004625
-15.975	0.004583
-15.970	0.004584
-15.965	0.004592
-15.960	0.004589
-15.955	0.004568
-15.950	0.004582
-15.945	0.004560
-15.940	0.004567
-15.935	0.004553
-15.930	0.004573
-15.925	0.004518
-15.920	0.004565
-15.915	0.004530
-15.910	0.004563
-15.905	0.004545
-15.900	0.004551
-15.895	0.004536
-15.890	0.004506
-15.885	0.004499
-15.880	0.004527
-15.875	0.004520
-15.870	0.004506
-15.865	0.004546
-15.860	0.004518
-15.855	0.004511
-15.850	0.004517
-15.845	0.004524
-15.840	0.004484
-15.835	0.004505
-15.830	0.004470
-15.825	0.004460
-15.820	0.004480
-15.815	0.004453
-15.810	0.004459
-15.805	0.004467
-15.800	0.004460
-15.795	0.004453
-15.790	0.004460
-15.785	0.004440
-15.780	0.004426
-15.775	0.004441
-15.770	0.004422
-15.765	0.004370
-15.760	0.004410
-15.755	0.004391
-15.750	0.004372
-15.745	0.004417
-15.740	0.004365
-15.735	0.004356
-15.730	0.004332
-15.725	0.004344
-15.720	0.004307
-15.715	0.004326
-15.710	0.004296
-15.705	0.004289
-15.700	0.004267
-15.695	0.004260
-15.690	0.004286
-15.685	0.004274
-15.680	0.004249
-15.675	0.004299
-15.670	0.004279
-15.665	0.004312
-15.660	0.004353
-15.655	0.004308
-15.650	0.004372
-15.645	0.004362
-15.640	0.004348
-15.635	0.004364
-15.630	0.004367
-15.625	0.004427
-15.620	0.004451
-15.615	0.004448
-15.610	0.004470
-15.605	0.004485
-15.600	0.004492
-15.595	0.004461
-15.590	0.004489
-15.585	0.004463
-15.580	0.004440
-15.575	0.004433
-15.570	0.004434
-15.565	0.004402
-15.560	0.004373
-15.555	0.004356
-15.550	0.004365
-15.545	0.004356
-15.540	0.004360
-15.535	0.004363
-15.530	0.004340
-15.525	0.004332
-15.520	0.004295
-15.515	0.004314
-15.510	0.004298
-15.505	0.004265
-15.500	0.004287
-15.495	0.004293
-15.490	0.004235
-15.485	0.004270
-15.480	0.004256
-15.475	0.004256
-15.470	0.004304
-15.465	0.004283
-15.460	0.004290
-15.455	0.004269
-15.450	0.004254
-15.445	0.004220
-15.440	0.004256
-15.435	0.004222
-15.430	0.004249
-15.425	0.004213
-15.420	0.004212
-15.415	0.004220
-15.410	0.004206
-15.405	0.004255
-15.400	0.004220
-15.395	0.004234
-15.390	0.004219
-15.385	0.004205
-15.380	0.004232
-15.375	0.004191
-15.370	0.004185
-15.365	0.004199
-15.360	0.004196
-15.355	0.004162
-15.350	0.004148
-15.345	0.004163
-15.340	0.004204
-15.335	0.004170
-15.330	0.004183
-15.325	0.004177
-15.320	0.004184
-15.315	0.004156
-15.310	0.004149
-15.305	0.004138
-15.300	0.004165
-15.295	0.004109
-15.290	0.004149
-15.285	0.004170
-15.280	0.004129
-15.275	0.004158
-15.270	0.004130
-15.265	0.004125
-15.260	0.004131
-15.255	0.004139
-15.250	0.004119
-15.245	0.004125
-15.240	0.004106
-15.235	0.004088
-15.230	0.004100
-15.225	0.004085
-15.220	0.004078
-15.215	0.004086
-15.210	0.004086
-15.205	0.004081
-15.200	0.004103
-15.195	0.004110
-15.190	0.004105
-15.185	0.004065
-15.180	0.004086
-15.175	0.004116
-15.170	0.004118
-15.165	0.004069
-15.160	0.004068
-15.155	0.004056
-15.150	0.004064
-15.145	0.004080
-15.140	0.004074
-15.135	0.004061
-15.130	0.004062
-15.125	0.004041
-15.120	0.004048
-15.115	0.004062
-15.110	0.004055
-15.105	0.004042
-15.100	0.004064
-15.095	0.004021
-15.090	0.004027
-15.085	0.004068
-15.080	0.004048
-15.075	0.004054
-15.070	0.004047
-15.065	0.004040
-15.060	0.004068
-15.055	0.004042
-15.050	0.004076
-15.045	0.004021
-15.040	0.004008
-15.035	0.004043
-15.030	0.004022
-15.025	0.004040
-15.020	0.004033
-15.015	0.004020
-15.010	0.004027
-15.005	0.003992
-15.000	0.003991
-14.995	0.004004
-14.990	0.004017
-14.985	0.004001
-14.980	0.004021
-14.975	0.003979
-14.970	0.004035
-14.965	0.004014
-14.960	0.004004
-14.955	0.004003
-14.950	0.003974
-14.945	0.003981
-14.940	0.004021
-14.935	0.003980
-14.930	0.003980
-14.925	0.004014
-14.920	0.003998
-14.915	0.004019
-14.910	0.003964
-14.905	0.003978
-14.900	0.003964
-14.895	0.003963
-14.890	0.003960
-14.885	0.003954
-14.880	0.003967
-14.875	0.003974
-14.870	0.003959
-14.865	0.003952
-14.860	0.003952
-14.855	0.003923
-14.850	0.003950
-14.845	0.003901
-14.840	0.003944
-14.835	0.003903
-14.830	0.003867
-14.825	0.003921
-14.820	0.003920
-14.815	0.003914
-14.810	0.003872
-14.805	0.003921
-14.800	0.003893
-14.795	0.003921
-14.790	0.003913
-14.785	0.003887
-14.780	0.003886
-14.775	0.003846
-14.770	0.003889
-14.765	0.003854
-14.760	0.003873
-14.755	0.003866
-14.750	0.003893
-14.745	0.003852
-14.740	0.003879
-14.735	0.003867
-14.730	0.003901
-14.725	0.003894
-14.720	0.003887
-14.715	0.003873
-14.710	0.003887
-14.705	0.003820
-14.700	0.003855
-14.695	0.003832
-14.690	0.003852
-14.685	0.003831
-14.680	0.003832
-14.675	0.003805
-14.670	0.003819
-14.665	0.003860
-14.660	0.003873
-14.655	0.003811
-14.650	0.003818
-14.645	0.003831
-14.640	0.003820
-14.635	0.003801
-14.630	0.003813
-14.625	0.003783
-14.620	0.003791
-14.615	0.003818
-14.610	0.003804
-14.605	0.003783
-14.600	0.003797
-14.595	0.003776
-14.590	0.003803
-14.585	0.003817
-14.580	0.003781
-14.575	0.003768
-14.570	0.003797
-14.565	0.003749
-14.560	0.003795
-14.555	0.003760
-14.550	0.003759
-14.545	0.003759
-14.540	0.003766
-14.535	0.003765
-14.530	0.003772
-14.525	0.003765
-14.520	0.003744
-14.515	0.003759
-14.510	0.003745
-14.505	0.003747
-14.500	0.003733
-14.495	0.003731
-14.490	0.003716
-14.485	0.003730
-14.480	0.003736
-14.475	0.003730
-14.470	0.003736
-14.465	0.003757
-14.460	0.003735
-14.455	0.003728
-14.450	0.003708
-14.445	0.003734
-14.440	0.003722
-14.435	0.003723
-14.430	0.003708
-14.425	0.003678
-14.420	0.003698
-14.415	0.003691
-14.410	0.003704
-14.405	0.003712
-14.400	0.003698
-14.395	0.003732
-14.390	0.003711
-14.385	0.003698
-14.380	0.003676
-14.375	0.003691
-14.370	0.003658
-14.365	0.003665
-14.360	0.003677
-14.355	0.003649
-14.350	0.003649
-14.345	0.003656
-14.340	0.003670
-14.335	0.003677
-14.330	0.003656
-14.325	0.003676
-14.320	0.003690
-14.315	0.003642
-14.310	0.003648
-14.305	0.003635
-14.300	0.003636
-14.295	0.003641
-14.290	0.003647
-14.285	0.003620
-14.280	0.003606
-14.275	0.003647
-14.270	0.003634
-14.265	0.003641
-14.260	0.003627
-14.255	0.003627
-14.250	0.003599
-14.245	0.003647
-14.240	0.003615
-14.235	0.003616
-14.230	0.003594
-14.225	0.003600
-14.220	0.003586
-14.215	0.003593
-14.210	0.003593
-14.205	0.003594
-14.200	0.003573
-14.195	0.003573
-14.190	0.003586
-14.185	0.003599
-14.180	0.003591
-14.175	0.003580
-14.170	0.003567
-14.165	0.003559
-14.160	0.003536
-14.155	0.003557
-14.150	0.003563
-14.145	0.003564
-14.140	0.003564
-14.135	0.003557
-14.130	0.003557
-14.125	0.003550
-14.120	0.003571
-14.115	0.003557
-14.110	0.003585
-14.105	0.003594
-14.100	0.003539
-14.095	0.003543
-14.090	0.003515
-14.085	0.003528
-14.080	0.003549
-14.075	0.003536
-14.070	0.003495
-14.065	0.003536
-14.060	0.003515
-14.055	0.003522
-14.050	0.003508
-14.045	0.003521
-14.040	0.003509
-14.035	0.003496
-14.030	0.003495
-14.025	0.003534
-14.020	0.003486
-14.015	0.003472
-14.010	0.003520
-14.005	0.003506
-14.000	0.003514
-13.995	0.003507
-13.990	0.003487
-13.985	0.003459
-13.980	0.003465
-13.975	0.003494
-13.970	0.003502
-13.965	0.003460
-13.960	0.003459
-13.955	0.003486
-13.950	0.003472
-13.945	0.003452
-13.940	0.003451
-13.935	0.003466
-13.930	0.003445
-13.925	0.003452
-13.920	0.003465
-13.915	0.003479
-13.910	0.003465
-13.905	0.003460
-13.900	0.003433
-13.895	0.003424
-13.890	0.003444
-13.885	0.003451
-13.880	0.003438
-13.875	0.003431
-13.870	0.003424
-13.865	0.003446
-13.860	0.003404
-13.855	0.003430
-13.850	0.003431
-13.845	0.003431
-13.840	0.003439
-13.835	0.003426
-13.830	0.003396
-13.825	0.003375
-13.820	0.003402
-13.815	0.003403
-13.810	0.003410
-13.805	0.003430
-13.800	0.003396
-13.795	0.003409
-13.790	0.003409
-13.785	0.003402
-13.780	0.003401
-13.775	0.003381
-13.770	0.003402
-13.765	0.003381
-13.760	0.003393
-13.755	0.003365
-13.750	0.003393
-13.745	0.003366
-13.740	0.003386
-13.735	0.003420
-13.730	0.003387
-13.725	0.003393
-13.720	0.003392
-13.715	0.003393
-13.710	0.003407
-13.705	0.003374
-13.700	0.003360
-13.695	0.003378
-13.690	0.003364
-13.685	0.003359
-13.680	0.003372
-13.675	0.003364
-13.670	0.003371
-13.665	0.003351
-13.660	0.003330
-13.655	0.003357
-13.650	0.003371
-13.645	0.003364
-13.640	0.003365
-13.635	0.003311
-13.630	0.003310
-13.625	0.003302
-13.620	0.003323
-13.615	0.003336
-13.610	0.003344
-13.605	0.003330
-13.600	0.003358
-13.595	0.003283
-13.590	0.003324
-13.585	0.003317
-13.580	0.003310
-13.575	0.003326
-13.570	0.003313
-13.565	0.003312
-13.560	0.003297
-13.555	0.003291
-13.550	0.003290
-13.545	0.003277
-13.540	0.003311
-13.535	0.003305
-13.530	0.003264
-13.525	0.003299
-13.520	0.003292
-13.515	0.003306
-13.510	0.003279
-13.505	0.003280
-13.500	0.003281
-13.495	0.003293
-13.490	0.003279
-13.485	0.003244
-13.480	0.003244
-13.475	0.003274
-13.470	0.003233
-13.465	0.003261
-13.460	0.003268
-13.455	0.003269
-13.450	0.003261
-13.445	0.003242
-13.440	0.003258
-13.435	0.003258
-13.430	0.003230
-13.425	0.003257
-13.420	0.003250
-13.415	0.003272
-13.410	0.003231
-13.405	0.003245
-13.400	0.003265
-13.395	0.003258
-13.390	0.003217
-13.385	0.003243
-13.380	0.003250
-13.375	0.003258
-13.370	0.003259
-13.365	0.003217
-13.360	0.003215
-13.355	0.003229
-13.350	0.003243
-13.345	0.003230
-13.340	0.003201
-13.335	0.003215
-13.330	0.003229
-13.325	0.003257
-13.320	0.003243
-13.315	0.003188
-13.310	0.003244
-13.305	0.003196
-13.300	0.003188
-13.295	0.003193
-13.290	0.003207
-13.285	0.003200
-13.280	0.003200
-13.275	0.003194
-13.270	0.003193
-13.265	0.003234
-13.260	0.003200
-13.255	0.003192
-13.250	0.003206
-13.245	0.003205
-13.240	0.003173
-13.235	0.003194
-13.230	0.003171
-13.225	0.003206
-13.220	0.003192
-13.215	0.003177
-13.210	0.003163
-13.205	0.003177
-13.200	0.003163
-13.195	0.003191
-13.190	0.003170
-13.185	0.003170
-13.180	0.003149
-13.175	0.003164
-13.170	0.003130
-13.165	0.003150
-13.160	0.003142
-13.155	0.003134
-13.150	0.003121
-13.145	0.003120
-13.140	0.003133
-13.135	0.003154
-13.130	0.003154
-13.125	0.003168
-13.120	0.003133
-13.115	0.003126
-13.110	0.003147
-13.105	0.003093
-13.100	0.003100
-13.095	0.003084
-13.090	0.003098
-13.085	0.003098
-13.080	0.003119
-13.075	0.003133
-13.070	0.003133
-13.065	0.003092
-13.060	0.003120
-13.055	0.003120
-13.050	0.003105
-13.045	0.003085
-13.040	0.003086
-13.035	0.003074
-13.030	0.003079
-13.025	0.003085
-13.020	0.003058
-13.015	0.003058
-13.010	0.003065
-13.005	0.003093
-13.000	0.003093
-12.995	0.003086
-12.990	0.003093
-12.985	0.003113
-12.980	0.003078
-12.975	0.003093
-12.970	0.003060
-12.965	0.003039
-12.960	0.003058
-12.955	0.003051
-12.950	0.003051
-12.945	0.003092
-12.940	0.003072
-12.935	0.003024
-12.930	0.003079
-12.925	0.003065
-12.920	0.003037
-12.915	0.003031
-12.910	0.003031
-12.905	0.003019
-12.900	0.003039
-12.895	0.003016
-12.890	0.002996
-12.885	0.003010
-12.880	0.003037
-12.875	0.003010
-12.870	0.003038
-12.865	0.003024
-12.860	0.003017
-12.855	0.003024
-12.850	0.003044
-12.845	0.003043
-12.840	0.003016
-12.835	0.003003
-12.830	0.002995
-12.825	0.002981
-12.820	0.003008
-12.815	0.003021
-12.810	0.003000
-12.805	0.003014
-12.800	0.003007
-12.795	0.002987
-12.790	0.002986
-12.785	0.003021
-12.780	0.003007
-12.775	0.003008
-12.770	0.003016
-12.765	0.002974
-12.760	0.002958
-12.755	0.002965
-12.750	0.002971
-12.745	0.002958
-12.740	0.002999
-12.735	0.002993
-12.730	0.002979
-12.725	0.002986
-12.720	0.002979
-12.715	0.002978
-12.710	0.002993
-12.705	0.002952
-12.700	0.002973
-12.695	0.002957
-12.690	0.002951
-12.685	0.002936
-12.680	0.002978
-12.675	0.002943
-12.670	0.002963
-12.665	0.002971
-12.660	0.002936
-12.655	0.002956
-12.650	0.002949
-12.645	0.002935
-12.640	0.002909
-12.635	0.002931
-12.630	0.002943
-12.625	0.002963
-12.620	0.002921
-12.615	0.002942
-12.610	0.002935
-12.605	0.002956
-12.600	0.002942
-12.595	0.002936
-12.590	0.002955
-12.585	0.002949
-12.580	0.002941
-12.575	0.002873
-12.570	0.002915
-12.565	0.002922
-12.560	0.002900
-12.555	0.002907
-12.550	0.002913
-12.545	0.002907
-12.540	0.002907
-12.535	0.002914
-12.530	0.002927
-12.525	0.002927
-12.520	0.002940
-12.515	0.002920
-12.510	0.002893
-12.505	0.002874
-12.500	0.002908
-12.495	0.002886
-12.490	0.002899
-12.485	0.002893
-12.480	0.002886
-12.475	0.002872
-12.470	0.002859
-12.465	0.002879
-12.460	0.002879
-12.455	0.002879
-12.450	0.002892
-12.445	0.002858
-12.440	0.002873
-12.435	0.002867
-12.430	0.002865
-12.425	0.002850
-12.420	0.002857
-12.415	0.002863
-12.410	0.002891
-12.405	0.002871
-12.400	0.002857
-12.395	0.002871
-12.390	0.002857
-12.385	0.002864
-12.380	0.002864
-12.375	0.002831
-12.370	0.002845
-12.365	0.002824
-12.360	0.002802
-12.355	0.002843
-12.350	0.002836
-12.345	0.002823
-12.340	0.002843
-12.335	0.002822
-12.330	0.002823
-12.325	0.002823
-12.320	0.002822
-12.315	0.002828
-12.310	0.002836
-12.305	0.002830
-12.300	0.002836
-12.295	0.002807
-12.290	0.002793
-12.285	0.002821
-12.280	0.002806
-12.275	0.002814
-12.270	0.002820
-12.265	0.002834
-12.260	0.002813
-12.255	0.002813
-12.250	0.002813
-12.245	0.002793
-12.240	0.002794
-12.235	0.002780
-12.230	0.002779
-12.225	0.002771
-12.220	0.002771
-12.215	0.002765
-12.210	0.002813
-12.205	0.002806
-12.200	0.002792
-12.195	0.002799
-12.190	0.002785
-12.185	0.002804
-12.180	0.002783
-12.175	0.002784
-12.170	0.002765
-12.165	0.002771
-12.160	0.002749
-12.155	0.002749
-12.150	0.002735
-12.145	0.002755
-12.140	0.002769
-12.135	0.002769
-12.130	0.002755
-12.125	0.002782
-12.120	0.002748
-12.115	0.002734
-12.110	0.002742
-12.105	0.002736
-12.100	0.002736
-12.095	0.002741
-12.090	0.002754
-12.085	0.002706
-12.080	0.002754
-12.075	0.002733
-12.070	0.002741
-12.065	0.002761
-12.060	0.002726
-12.055	0.002761
-12.050	0.002740
-12.045	0.002746
-12.040	0.002734
-12.035	0.002720
-12.030	0.002732
-12.025	0.002766
-12.020	0.002745
-12.015	0.002732
-12.010	0.002698
-12.005	0.002753
-12.000	0.002753
-11.995	0.002712
-11.990	0.002712
-11.985	0.002712
-11.980	0.002692
-11.975	0.002727
-11.970	0.002686
-11.965	0.002719
-11.960	0.002746
-11.955	0.002705
-11.950	0.002678
-11.945	0.002712
-11.940	0.002706
-11.935	0.002705
-11.930	0.002719
-11.925	0.002733
-11.920	0.002684
-11.915	0.002698
-11.910	0.002732
-11.905	0.002685
-11.900	0.002692
-11.895	0.002684
-11.890	0.002683
-11.885	0.002710
-11.880	0.002683
-11.875	0.002662
-11.870	0.002662
-11.865	0.002648
-11.860	0.002696
-11.855	0.002710
-11.850	0.002641
-11.845	0.002676
-11.840	0.002677
-11.835	0.002671
-11.830	0.002669
-11.825	0.002648
-11.820	0.002669
-11.815	0.002635
-11.810	0.002648
-11.805	0.002683
-11.800	0.002683
-11.795	0.002676
-11.790	0.002676
-11.785	0.002662
-11.780	0.002627
-11.775	0.002628
-11.770	0.002636
-11.765	0.002615
-11.760	0.002641
-11.755	0.002641
-11.750	0.002641
-11.745	0.002621
-11.740	0.002621
-11.735	0.002622
-11.730	0.002655
-11.725	0.002629
-11.720	0.002649
-11.715	0.002648
-11.710	0.002616
-11.705	0.002624
-11.700	0.002609
-11.695	0.002608
-11.690	0.002629
-11.685	0.002622
-11.680	0.002601
-11.675	0.002622
-11.670	0.002616
-11.665	0.002602
-11.660	0.002616
-11.655	0.002636
-11.650	0.002601
-11.645	0.002601
-11.640	0.002603
-11.635	0.002583
-11.630	0.002636
-11.625	0.002602
-11.620	0.002608
-11.615	0.002595
-11.610	0.002602
-11.605	0.002595
-11.600	0.002608
-11.595	0.002595
-11.590	0.002608
-11.585	0.002595
-11.580	0.002574
-11.575	0.002582
-11.570	0.002590
-11.565	0.002582
-11.560	0.002567
-11.555	0.002567
-11.550	0.002594
-11.545	0.002629
-11.540	0.002561
-11.535	0.002575
-11.530	0.002561
-11.525	0.002568
-11.520	0.002561
-11.515	0.002574
-11.510	0.002575
-11.505	0.002570
-11.500	0.002528
-11.495	0.002562
-11.490	0.002526
-11.485	0.002574
-11.480	0.002533
-11.475	0.002533
-11.470	0.002575
-11.465	0.002562
-11.460	0.002602
-11.455	0.002555
-11.450	0.002554
-11.445	0.002542
-11.440	0.002562
-11.435	0.002522
-11.430	0.002575
-11.425	0.002540
-11.420	0.002520
-11.415	0.002520
-11.410	0.002527
-11.405	0.002520
-11.400	0.002520
-11.395	0.002568
-11.390	0.002506
-11.385	0.002533
-11.380	0.002533
-11.375	0.002513
-11.370	0.002514
-11.365	0.002513
-11.360	0.002540
-11.355	0.002532
-11.350	0.002532
-11.345	0.002546
-11.340	0.002525
-11.335	0.002533
-11.330	0.002526
-11.325	0.002520
-11.320	0.002526
-11.315	0.002499
-11.310	0.002500
-11.305	0.002514
-11.300	0.002493
-11.295	0.002478
-11.290	0.002498
-11.285	0.002485
-11.280	0.002506
-11.275	0.002485
-11.270	0.002505
-11.265	0.002513
-11.260	0.002526
-11.255	0.002464
-11.250	0.002505
-11.245	0.002492
-11.240	0.002472
-11.235	0.002473
-11.230	0.002478
-11.225	0.002464
-11.220	0.002470
-11.215	0.002449
-11.210	0.002477
-11.205	0.002464
-11.200	0.002485
-11.195	0.002464
-11.190	0.002484
-11.185	0.002471
-11.180	0.002478
-11.175	0.002451
-11.170	0.002452
-11.165	0.002485
-11.160	0.002450
-11.155	0.002471
-11.150	0.002457
-11.145	0.002464
-11.140	0.002450
-11.135	0.002471
-11.130	0.002429
-11.125	0.002477
-11.120	0.002463
-11.115	0.002449
-11.110	0.002450
-11.105	0.002437
-11.100	0.002444
-11.095	0.002429
-11.090	0.002421
-11.085	0.002442
-11.080	0.002422
-11.075	0.002442
-11.070	0.002435
-11.065	0.002464
-11.060	0.002443
-11.055	0.002402
-11.050	0.002435
-11.045	0.002444
-11.040	0.002423
-11.035	0.002437
-11.030	0.002401
-11.025	0.002422
-11.020	0.002415
-11.015	0.002394
-11.010	0.002408
-11.005	0.002449
-11.000	0.002395
-10.995	0.002401
-10.990	0.002408
-10.985	0.002421
-10.980	0.002407
-10.975	0.002388
-10.970	0.002423
-10.965	0.002401
-10.960	0.002394
-10.955	0.002393
-10.950	0.002400
-10.945	0.002406
-10.940	0.002413
-10.935	0.002420
-10.930	0.002407
-10.925	0.002420
-10.920	0.002358
-10.915	0.002386
-10.910	0.002373
-10.905	0.002408
-10.900	0.002373
-10.895	0.002385
-10.890	0.002378
-10.885	0.002351
-10.880	0.002378
-10.875	0.002357
-10.870	0.002344
-10.865	0.002405
-10.860	0.002371
-10.855	0.002378
-10.850	0.002377
-10.845	0.002357
-10.840	0.002351
-10.835	0.002371
-10.830	0.002342
-10.825	0.002356
-10.820	0.002349
-10.815	0.002376
-10.810	0.002356
-10.805	0.002363
-10.800	0.002370
-10.795	0.002356
-10.790	0.002363
-10.785	0.002404
-10.780	0.002356
-10.775	0.002344
-10.770	0.002330
-10.765	0.002349
-10.760	0.002341
-10.755	0.002328
-10.750	0.002321
-10.745	0.002341
-10.740	0.002321
-10.735	0.002315
-10.730	0.002328
-10.725	0.002355
-10.720	0.002321
-10.715	0.002342
-10.710	0.002328
-10.705	0.002329
-10.700	0.002308
-10.695	0.002292
-10.690	0.002306
-10.685	0.002320
-10.680	0.002327
-10.675	0.002314
-10.670	0.002320
-10.665	0.002335
-10.660	0.002335
-10.655	0.002301
-10.650	0.002328
-10.645	0.002329
-10.640	0.002295
-10.635	0.002281
-10.630	0.002293
-10.625	0.002300
-10.620	0.002280
-10.615	0.002321
-10.610	0.002273
-10.605	0.002280
-10.600	0.002253
-10.595	0.002294
-10.590	0.002280
-10.585	0.002280
-10.580	0.002253
-10.575	0.002296
-10.570	0.002310
-10.565	0.002260
-10.560	0.002295
-10.555	0.002295
-10.550	0.002281
-10.545	0.002282
-10.540	0.002302
-10.535	0.002282
-10.530	0.002281
-10.525	0.002281
-10.520	0.002281
-10.515	0.002295
-10.510	0.002290
-10.505	0.002229
-10.500	0.002269
-10.495	0.002275
-10.490	0.002268
-10.485	0.002296
-10.480	0.002268
-10.475	0.002254
-10.470	0.002261
-10.465	0.002268
-10.460	0.002261
-10.455	0.002295
-10.450	0.002267
-10.445	0.002274
-10.440	0.002262
-10.435	0.002248
-10.430	0.002232
-10.425	0.002260
-10.420	0.002246
-10.415	0.002260
-10.410	0.002253
-10.405	0.002246
-10.400	0.002246
-10.395	0.002267
-10.390	0.002247
-10.385	0.002233
-10.380	0.002226
-10.375	0.002214
-10.370	0.002262
-10.365	0.002226
-10.360	0.002240
-10.355	0.002254
-10.350	0.002198
-10.345	0.002226
-10.340	0.002219
-10.335	0.002219
-10.330	0.002205
-10.325	0.002206
-10.320	0.002232
-10.315	0.002219
-10.310	0.002219
-10.305	0.002199
-10.300	0.002204
-10.295	0.002204
-10.290	0.002211
-10.285	0.002210
-10.280	0.002190
-10.275	0.002197
-10.270	0.002225
-10.265	0.002204
-10.260	0.002210
-10.255	0.002190
-10.250	0.002196
-10.245	0.002177
-10.240	0.002191
-10.235	0.002191
-10.230	0.002183
-10.225	0.002162
-10.220	0.002156
-10.215	0.002182
-10.210	0.002155
-10.205	0.002176
-10.200	0.002190
-10.195	0.002169
-10.190	0.002183
-10.185	0.002176
-10.180	0.002149
-10.175	0.002171
-10.170	0.002156
-10.165	0.002162
-10.160	0.002175
-10.155	0.002141
-10.150	0.002155
-10.145	0.002155
-10.140	0.002161
-10.135	0.002120
-10.130	0.002176
-10.125	0.002161
-10.120	0.002168
-10.115	0.002148
-10.110	0.002163
-10.105	0.002135
-10.100	0.002128
-10.095	0.002128
-10.090	0.002154
-10.085	0.002168
-10.080	0.002127
-10.075	0.002141
-10.070	0.002162
-10.065	0.002100
-10.060	0.002134
-10.055	0.002134
-10.050	0.002140
-10.045	0.002107
-10.040	0.002108
-10.035	0.002149
-10.030	0.002106
-10.025	0.002133
-10.020	0.002091
-10.015	0.002119
-10.010	0.002160
-10.005	0.002147
-10.000	0.002141
-9.995	0.002161
-9.990	0.002099
-9.985	0.002126
-9.980	0.002134
-9.975	0.002115
-9.970	0.002108
-9.965	0.002127
-9.960	0.002092
-9.955	0.002099
-9.950	0.002092
-9.945	0.002093
-9.940	0.002113
-9.935	0.002113
-9.930	0.002106
-9.925	0.002113
-9.920	0.002119
-9.915	0.002099
-9.910	0.002093
-9.905	0.002121
-9.900	0.002099
-9.895	0.002065
-9.890	0.002085
-9.885	0.002092
-9.880	0.002099
-9.875	0.002106
-9.870	0.002113
-9.865	0.002100
-9.860	0.002106
-9.855	0.002092
-9.850	0.002099
-9.845	0.002053
-9.840	0.002053
-9.835	0.002066
-9.830	0.002044
-9.825	0.002044
-9.820	0.002051
-9.815	0.002051
-9.810	0.002065
-9.805	0.002065
-9.800	0.002045
-9.795	0.002058
-9.790	0.002044
-9.785	0.002051
-9.780	0.002030
-9.775	0.002045
-9.770	0.002038
-9.765	0.002030
-9.760	0.002043
-9.755	0.002023
-9.750	0.002050
-9.745	0.002064
-9.740	0.002037
-9.735	0.002044
-9.730	0.002037
-9.725	0.002044
-9.720	0.002016
-9.715	0.002045
-9.710	0.002045
-9.705	0.002025
-9.700	0.002039
-9.695	0.002024
-9.690	0.002031
-9.685	0.002011
-9.680	0.002025
-9.675	0.002018
-9.670	0.002010
-9.665	0.002024
-9.660	0.002003
-9.655	0.002030
-9.650	0.002044
-9.645	0.002017
-9.640	0.002024
-9.635	0.002017
-9.630	0.002024
-9.625	0.001996
-9.620	0.002017
-9.615	0.001991
-9.610	0.001977
-9.605	0.001976
-9.600	0.001982
-9.595	0.001982
-9.590	0.002010
-9.585	0.001982
-9.580	0.001976
-9.575	0.001976
-9.570	0.001997
-9.565	0.001982
-9.560	0.001996
-9.555	0.001961
-9.550	0.001956
-9.545	0.001928
-9.540	0.001908
-9.535	0.001913
-9.530	0.001886
-9.525	0.001913
-9.520	0.001817
-9.515	0.001783
-9.510	0.001659
-9.505	0.001378
-9.500	0.000986
-9.495	0.000321
-9.490	-0.000613
-9.485	-0.001932
-9.480	-0.003583
-9.475	-0.005786
-9.470	-0.008333
-9.465	-0.011261
-9.460	-0.014501
-9.455	-0.018047
-9.450	-0.021815
-9.445	-0.026000
-9.440	-0.030336
-9.435	-0.034710
-9.430	-0.038963
-9.425	-0.043090
-9.420	-0.046873
-9.415	-0.050421
-9.410	-0.052976
-9.405	-0.053593
-9.400	-0.051924
-9.395	-0.048530
-9.390	-0.044411
-9.385	-0.040406
-9.380	-0.036985
-9.375	-0.034135
-9.370	-0.031882
-9.365	-0.030130
-9.360	-0.028659
-9.355	-0.027439
-9.350	-0.026360
-9.345	-0.025430
-9.340	-0.024634
-9.335	-0.023849
-9.330	-0.023143
-9.325	-0.022541
-9.320	-0.021935
-9.315	-0.021391
-9.310	-0.020920
-9.305	-0.020425
-9.300	-0.020006
-9.295	-0.019556
-9.290	-0.019174
-9.285	-0.018795
-9.280	-0.018426
-9.275	-0.018074
-9.270	-0.017696
-9.265	-0.017419
-9.260	-0.017106
-9.255	-0.016815
-9.250	-0.016536
-9.245	-0.016242
-9.240	-0.015958
-9.235	-0.015660
-9.230	-0.015431
-9.225	-0.015177
-9.220	-0.014964
-9.215	-0.014687
-9.210	-0.014480
-9.205	-0.014281
-9.200	-0.014072
-9.195	-0.013871
-9.190	-0.013679
-9.185	-0.013492
-9.180	-0.013306
-9.175	-0.013168
-9.170	-0.012997
-9.165	-0.012832
-9.160	-0.012659
-9.155	-0.012519
-9.150	-0.012363
-9.145	-0.012270
-9.140	-0.012117
-9.135	-0.012023
-9.130	-0.011860
-9.125	-0.011724
-9.120	-0.011600
-9.115	-0.011448
-9.110	-0.011273
-9.105	-0.011173
-9.100	-0.010852
-9.095	-0.010682
-9.090	-0.010808
-9.085	-0.010841
-9.080	-0.010743
-9.075	-0.010606
-9.070	-0.010456
-9.065	-0.010277
-9.060	-0.010063
-9.055	-0.010007
-9.050	-0.010057
-9.045	-0.010011
-9.040	-0.009928
-9.035	-0.009872
-9.030	-0.009829
-9.025	-0.009737
-9.020	-0.009606
-9.015	-0.009540
-9.010	-0.009436
-9.005	-0.009384
-9.000	-0.009265
-8.995	-0.009210
-8.990	-0.009162
-8.985	-0.009117
-8.980	-0.009019
-8.975	-0.008929
-8.970	-0.008847
-8.965	-0.008806
-8.960	-0.008730
-8.955	-0.008683
-8.950	-0.008608
-8.945	-0.008547
-8.940	-0.008470
-8.935	-0.008394
-8.930	-0.008279
-8.925	-0.007630
-8.920	-0.006985
-8.915	-0.007579
-8.910	-0.008064
-8.905	-0.008066
-8.900	-0.008017
-8.895	-0.008003
-8.890	-0.007967
-8.885	-0.007892
-8.880	-0.007839
-8.875	-0.007784
-8.870	-0.007748
-8.865	-0.007686
-8.860	-0.007658
-8.855	-0.007601
-8.850	-0.007533
-8.845	-0.007479
-8.840	-0.007458
-8.835	-0.007423
-8.830	-0.007354
-8.825	-0.007340
-8.820	-0.007265
-8.815	-0.007232
-8.810	-0.007219
-8.805	-0.007197
-8.800	-0.007128
-8.795	-0.007087
-8.790	-0.007087
-8.785	-0.006997
-8.780	-0.006976
-8.775	-0.006915
-8.770	-0.006853
-8.765	-0.006847
-8.760	-0.006812
-8.755	-0.006770
-8.750	-0.006724
-8.745	-0.006703
-8.740	-0.006681
-8.735	-0.006658
-8.730	-0.006610
-8.725	-0.006582
-8.720	-0.006520
-8.715	-0.006487
-8.710	-0.006467
-8.705	-0.006432
-8.700	-0.006377
-8.695	-0.006369
-8.690	-0.006327
-8.685	-0.006281
-8.680	-0.006247
-8.675	-0.006247
-8.670	-0.006204
-8.665	-0.006169
-8.660	-0.006115
-8.655	-0.006115
-8.650	-0.006067
-8.645	-0.006060
-8.640	-0.005984
-8.635	-0.005963
-8.630	-0.005943
-8.625	-0.005901
-8.620	-0.005881
-8.615	-0.005868
-8.610	-0.005820
-8.605	-0.005811
-8.600	-0.005785
-8.595	-0.005737
-8.590	-0.005690
-8.585	-0.005676
-8.580	-0.005663
-8.575	-0.005616
-8.570	-0.005624
-8.565	-0.005546
-8.560	-0.005526
-8.555	-0.005495
-8.550	-0.005499
-8.545	-0.005471
-8.540	-0.005493
-8.535	-0.005448
-8.530	-0.005400
-8.525	-0.005379
-8.520	-0.005372
-8.515	-0.005337
-8.510	-0.005330
-8.505	-0.005295
-8.500	-0.005274
-8.495	-0.005253
-8.490	-0.005233
-8.485	-0.005199
-8.480	-0.005206
-8.475	-0.005185
-8.470	-0.005177
-8.465	-0.005116
-8.460	-0.005123
-8.455	-0.005109
-8.450	-0.005069
-8.445	-0.005056
-8.440	-0.005035
-8.435	-0.005056
-8.430	-0.004974
-8.425	-0.004974
-8.420	-0.004988
-8.415	-0.004948
-8.410	-0.004927
-8.405	-0.004898
-8.400	-0.004892
-8.395	-0.004857
-8.390	-0.004829
-8.385	-0.004808
-8.380	-0.004766
-8.375	-0.004766
-8.370	-0.004759
-8.365	-0.004724
-8.360	-0.004731
-8.355	-0.004717
-8.350	-0.004690
-8.345	-0.004684
-8.340	-0.004683
-8.335	-0.004607
-8.330	-0.004600
-8.325	-0.004600
-8.320	-0.004580
-8.315	-0.004546
-8.310	-0.004553
-8.305	-0.004532
-8.300	-0.004498
-8.295	-0.004505
-8.290	-0.004443
-8.285	-0.004498
-8.280	-0.004451
-8.275	-0.004430
-8.270	-0.004395
-8.265	-0.004409
-8.260	-0.004396
-8.255	-0.004327
-8.250	-0.004334
-8.245	-0.004307
-8.240	-0.004293
-8.235	-0.004272
-8.230	-0.004292
-8.225	-0.004238
-8.220	-0.004211
-8.215	-0.004232
-8.210	-0.004198
-8.205	-0.004204
-8.200	-0.004183
-8.195	-0.004169
-8.190	-0.004169
-8.185	-0.004128
-8.180	-0.004094
-8.175	-0.004060
-8.170	-0.004067
-8.165	-0.004046
-8.160	-0.004026
-8.155	-0.004046
-8.150	-0.004033
-8.145	-0.004006
-8.140	-0.003985
-8.135	-0.004005
-8.130	-0.003950
-8.125	-0.003985
-8.120	-0.003957
-8.115	-0.003923
-8.110	-0.003909
-8.105	-0.003882
-8.100	-0.003889
-8.095	-0.003868
-8.090	-0.003861
-8.085	-0.003862
-8.080	-0.003855
-8.075	-0.003841
-8.070	-0.003800
-8.065	-0.003806
-8.060	-0.003800
-8.055	-0.003820
-8.050	-0.003759
-8.045	-0.003745
-8.040	-0.003725
-8.035	-0.003718
-8.030	-0.003711
-8.025	-0.003717
-8.020	-0.003691
-8.015	-0.003677
-8.010	-0.003684
-8.005	-0.003656
-8.000	-0.003649
-7.995	-0.003642
-7.990	-0.003629
-7.985	-0.003636
-7.980	-0.003616
-7.975	-0.003567
-7.970	-0.003561
-7.965	-0.003574
-7.960	-0.003547
-7.955	-0.003547
-7.950	-0.003540
-7.945	-0.003541
-7.940	-0.003547
-7.935	-0.003519
-7.930	-0.003478
-7.925	-0.003478
-7.920	-0.003505
-7.915	-0.003492
-7.910	-0.003471
-7.905	-0.003437
-7.900	-0.003430
-7.895	-0.003464
-7.890	-0.003423
-7.885	-0.003389
-7.880	-0.003438
-7.875	-0.003403
-7.870	-0.003409
-7.865	-0.003375
-7.860	-0.003341
-7.855	-0.003355
-7.850	-0.003362
-7.845	-0.003368
-7.840	-0.003320
-7.835	-0.003307
-7.830	-0.003293
-7.825	-0.003286
-7.820	-0.003286
-7.815	-0.003293
-7.810	-0.003273
-7.805	-0.003265
-7.800	-0.003293
-7.795	-0.003266
-7.790	-0.003279
-7.785	-0.003231
-7.780	-0.003252
-7.775	-0.003224
-7.770	-0.003211
-7.765	-0.003197
-7.760	-0.003177
-7.755	-0.003190
-7.750	-0.003191
-7.745	-0.003205
-7.740	-0.003163
-7.735	-0.003190
-7.730	-0.003149
-7.725	-0.003149
-7.720	-0.003122
-7.715	-0.003143
-7.710	-0.003115
-7.705	-0.003081
-7.700	-0.003108
-7.695	-0.003094
-7.690	-0.003087
-7.685	-0.003067
-7.680	-0.003081
-7.675	-0.003067
-7.670	-0.003074
-7.665	-0.003087
-7.660	-0.003074
-7.655	-0.003067
-7.650	-0.003047
-7.645	-0.003019
-7.640	-0.003026
-7.635	-0.003019
-7.630	-0.002999
-7.625	-0.002985
-7.620	-0.002972
-7.615	-0.002979
-7.610	-0.002937
-7.605	-0.002971
-7.600	-0.002958
-7.595	-0.002937
-7.590	-0.002917
-7.585	-0.002930
-7.580	-0.002924
-7.575	-0.002903
-7.570	-0.002889
-7.565	-0.002896
-7.560	-0.002875
-7.555	-0.002876
-7.550	-0.002862
-7.545	-0.002862
-7.540	-0.002848
-7.535	-0.002903
-7.530	-0.002869
-7.525	-0.002876
-7.520	-0.002869
-7.515	-0.002869
-7.510	-0.002828
-7.505	-0.002848
-7.500	-0.002835
-7.495	-0.002855
-7.490	-0.002821
-7.485	-0.002835
-7.480	-0.002815
-7.475	-0.002794
-7.470	-0.002766
-7.465	-0.002773
-7.460	-0.002725
-7.455	-0.002739
-7.450	-0.002739
-7.445	-0.002705
-7.440	-0.002712
-7.435	-0.002691
-7.430	-0.002684
-7.425	-0.002650
-7.420	-0.002616
-7.415	-0.002650
-7.410	-0.002643
-7.405	-0.002602
-7.400	-0.002629
-7.395	-0.002643
-7.390	-0.002568
-7.385	-0.002609
-7.380	-0.002595
-7.375	-0.002568
-7.370	-0.002554
-7.365	-0.002575
-7.360	-0.002568
-7.355	-0.002568
-7.350	-0.002534
-7.345	-0.002534
-7.340	-0.002554
-7.335	-0.002547
-7.330	-0.002520
-7.325	-0.002520
-7.320	-0.002527
-7.315	-0.002479
-7.310	-0.002479
-7.305	-0.002520
-7.300	-0.002500
-7.295	-0.002445
-7.290	-0.002479
-7.285	-0.002472
-7.280	-0.002452
-7.275	-0.002452
-7.270	-0.002458
-7.265	-0.002410
-7.260	-0.002445
-7.255	-0.002417
-7.250	-0.002445
-7.245	-0.002424
-7.240	-0.002438
-7.235	-0.002397
-7.230	-0.002424
-7.225	-0.002452
-7.220	-0.002384
-7.215	-0.002411
-7.210	-0.002411
-7.205	-0.002439
-7.200	-0.002446
-7.195	-0.002426
-7.190	-0.002426
-7.185	-0.002420
-7.180	-0.002420
-7.175	-0.002421
-7.170	-0.002400
-7.165	-0.002428
-7.160	-0.002401
-7.155	-0.002380
-7.150	-0.002373
-7.145	-0.002408
-7.140	-0.002387
-7.135	-0.002366
-7.130	-0.002352
-7.125	-0.002386
-7.120	-0.002351
-7.115	-0.002385
-7.110	-0.002357
-7.105	-0.002336
-7.100	-0.002350
-7.095	-0.002329
-7.090	-0.002316
-7.085	-0.002316
-7.080	-0.002316
-7.075	-0.002295
-7.070	-0.002281
-7.065	-0.002260
-7.060	-0.002260
-7.055	-0.002260
-7.050	-0.002260
-7.045	-0.002246
-7.040	-0.002226
-7.035	-0.002212
-7.030	-0.002219
-7.025	-0.002205
-7.020	-0.002185
-7.015	-0.002212
-7.010	-0.002233
-7.005	-0.002205
-7.000	-0.002233
-6.995	-0.002198
-6.990	-0.002191
-6.985	-0.002219
-6.980	-0.002185
-6.975	-0.002185
-6.970	-0.002185
-6.965	-0.002157
-6.960	-0.002171
-6.955	-0.002151
-6.950	-0.002158
-6.945	-0.002199
-6.940	-0.002171
-6.935	-0.002144
-6.930	-0.002151
-6.925	-0.002144
-6.920	-0.002123
-6.915	-0.002123
-6.910	-0.002116
-6.905	-0.002103
-6.900	-0.002110
-6.895	-0.002096
-6.890	-0.002117
-6.885	-0.002124
-6.880	-0.002117
-6.875	-0.002082
-6.870	-0.002117
-6.865	-0.002117
-6.860	-0.002130
-6.855	-0.002110
-6.850	-0.002110
-6.845	-0.002137
-6.840	-0.002110
-6.835	-0.002124
-6.830	-0.002096
-6.825	-0.002151
-6.820	-0.002103
-6.815	-0.002152
-6.810	-0.002131
-6.805	-0.002131
-6.800	-0.002165
-6.795	-0.002145
-6.790	-0.002151
-6.785	-0.002124
-6.780	-0.002152
-6.775	-0.002117
-6.770	-0.002124
-6.765	-0.002097
-6.760	-0.002083
-6.755	-0.002117
-6.750	-0.002083
-6.745	-0.002104
-6.740	-0.002090
-6.735	-0.002090
-6.730	-0.002090
-6.725	-0.002083
-6.720	-0.002056
-6.715	-0.002028
-6.710	-0.002035
-6.705	-0.002029
-6.700	-0.002008
-6.695	-0.002022
-6.690	-0.002008
-6.685	-0.002008
-6.680	-0.002049
-6.675	-0.002015
-6.670	-0.002049
-6.665	-0.002008
-6.660	-0.001988
-6.655	-0.002008
-6.650	-0.001974
-6.645	-0.001953
-6.640	-0.001967
-6.635	-0.001967
-6.630	-0.001954
-6.625	-0.001981
-6.620	-0.001912
-6.615	-0.001961
-6.610	-0.001954
-6.605	-0.001960
-6.600	-0.001940
-6.595	-0.001961
-6.590	-0.001919
-6.585	-0.001906
-6.580	-0.001933
-6.575	-0.001906
-6.570	-0.001899
-6.565	-0.001940
-6.560	-0.001899
-6.555	-0.001878
-6.550	-0.001920
-6.545	-0.001933
-6.540	-0.001927
-6.535	-0.001899
-6.530	-0.001906
-6.525	-0.001913
-6.520	-0.001844
-6.515	-0.001851
-6.510	-0.001892
-6.505	-0.001837
-6.500	-0.001851
-6.495	-0.001851
-6.490	-0.001844
-6.485	-0.001838
-6.480	-0.001858
-6.475	-0.001858
-6.470	-0.001858
-6.465	-0.001838
-6.460	-0.001824
-6.455	-0.001838
-6.450	-0.001817
-6.445	-0.001824
-6.440	-0.001824
-6.435	-0.001810
-6.430	-0.001817
-6.425	-0.001852
-6.420	-0.001817
-6.415	-0.001817
-6.410	-0.001810
-6.405	-0.001838
-6.400	-0.001824
-6.395	-0.001811
-6.390	-0.001776
-6.385	-0.001817
-6.380	-0.001790
-6.375	-0.001783
-6.370	-0.001783
-6.365	-0.001790
-6.360	-0.001776
-6.355	-0.001756
-6.350	-0.001790
-6.345	-0.001790
-6.340	-0.001742
-6.335	-0.001770
-6.330	-0.001770
-6.325	-0.001749
-6.320	-0.001756
-6.315	-0.001749
-6.310	-0.001742
-6.305	-0.001715
-6.300	-0.001756
-6.295	-0.001687
-6.290	-0.001722
-6.285	-0.001742
-6.280	-0.001736
-6.275	-0.001722
-6.270	-0.001743
-6.265	-0.001722
-6.260	-0.001715
-6.255	-0.001701
-6.250	-0.001715
-6.245	-0.001695
-6.240	-0.001715
-6.235	-0.001681
-6.230	-0.001702
-6.225	-0.001688
-6.220	-0.001674
-6.215	-0.001715
-6.210	-0.001695
-6.205	-0.001695
-6.200	-0.001695
-6.195	-0.001695
-6.190	-0.001654
-6.185	-0.001688
-6.180	-0.001702
-6.175	-0.001681
-6.170	-0.001668
-6.165	-0.001668
-6.160	-0.001668
-6.155	-0.001661
-6.150	-0.001702
-6.145	-0.001661
-6.140	-0.001668
-6.135	-0.001654
-6.130	-0.001668
-6.125	-0.001681
-6.120	-0.001668
-6.115	-0.001627
-6.110	-0.001620
-6.105	-0.001640
-6.100	-0.001647
-6.095	-0.001613
-6.090	-0.001634
-6.085	-0.001634
-6.080	-0.001606
-6.075	-0.001579
-6.070	-0.001599
-6.065	-0.001599
-6.060	-0.001579
-6.055	-0.001599
-6.050	-0.001586
-6.045	-0.001593
-6.040	-0.001579
-6.035	-0.001586
-6.030	-0.001565
-6.025	-0.001572
-6.020	-0.001538
-6.015	-0.001545
-6.010	-0.001551
-6.005	-0.001586
-6.000	-0.001524
-5.995	-0.001545
-5.990	-0.001531
-5.985	-0.001524
-5.980	-0.001538
-5.975	-0.001524
-5.970	-0.001490
-5.965	-0.001504
-5.960	-0.001511
-5.955	-0.001483
-5.950	-0.001490
-5.945	-0.001476
-5.940	-0.001476
-5.935	-0.001477
-5.930	-0.001470
-5.925	-0.001456
-5.920	-0.001442
-5.915	-0.001415
-5.910	-0.001401
-5.905	-0.001429
-5.900	-0.001401
-5.895	-0.001429
-5.890	-0.001381
-5.885	-0.001408
-5.880	-0.001374
-5.875	-0.001388
-5.870	-0.001367
-5.865	-0.001394
-5.860	-0.001374
-5.855	-0.001360
-5.850	-0.001360
-5.845	-0.001360
-5.840	-0.001360
-5.835	-0.001333
-5.830	-0.001360
-5.825	-0.001367
-5.820	-0.001394
-5.815	-0.001394
-5.810	-0.001387
-5.805	-0.001421
-5.800	-0.001421
-5.795	-0.001428
-5.790	-0.001428
-5.785	-0.001435
-5.780	-0.001483
-5.775	-0.001503
-5.770	-0.001621
-5.765	-0.001655
-5.760	-0.001710
-5.755	-0.001779
-5.750	-0.001883
-5.745	-0.001979
-5.740	-0.002055
-5.735	-0.002131
-5.730	-0.002234
-5.725	-0.002331
-5.720	-0.002441
-5.715	-0.002483
-5.710	-0.002538
-5.705	-0.002627
-5.700	-0.002667
-5.695	-0.002653
-5.690	-0.002687
-5.685	-0.002584
-5.680	-0.002549
-5.675	-0.002453
-5.670	-0.002343
-5.665	-0.002199
-5.660	-0.002075
-5.655	-0.001924
-5.650	-0.001766
-5.645	-0.001650
-5.640	-0.001526
-5.635	-0.001416
-5.630	-0.001341
-5.625	-0.001272
-5.620	-0.001217
-5.615	-0.001155
-5.610	-0.001155
-5.605	-0.001176
-5.600	-0.001128
-5.595	-0.001149
-5.590	-0.001128
-5.585	-0.001149
-5.580	-0.001156
-5.575	-0.001162
-5.570	-0.001142
-5.565	-0.001149
-5.560	-0.001149
-5.555	-0.001183
-5.550	-0.001169
-5.545	-0.001169
-5.540	-0.001197
-5.535	-0.001204
-5.530	-0.001190
-5.525	-0.001170
-5.520	-0.001190
-5.515	-0.001176
-5.510	-0.001190
-5.505	-0.001204
-5.500	-0.001218
-5.495	-0.001204
-5.490	-0.001197
-5.485	-0.001217
-5.480	-0.001204
-5.475	-0.001197
-5.470	-0.001231
-5.465	-0.001225
-5.460	-0.001238
-5.455	-0.001211
-5.450	-0.001135
-5.445	-0.001018
-5.440	-0.000633
-5.435	-0.000104
-5.430	0.000825
-5.425	0.001927
-5.420	0.003705
-5.415	0.006060
-5.410	0.008916
-5.405	0.012368
-5.400	0.015973
-5.395	0.020223
-5.390	0.025121
-5.385	0.030035
-5.380	0.035372
-5.375	0.041573
-5.370	0.047599
-5.365	0.052820
-5.360	0.057767
-5.355	0.063410
-5.350	0.068729
-5.345	0.071759
-5.340	0.071649
-5.335	0.069182
-5.330	0.065470
-5.325	0.061453
-5.320	0.057584
-5.315	0.054145
-5.310	0.051240
-5.305	0.048709
-5.300	0.046610
-5.295	0.044753
-5.290	0.043109
-5.285	0.041638
-5.280	0.040291
-5.275	0.039061
-5.270	0.037933
-5.265	0.036867
-5.260	0.035923
-5.255	0.035104
-5.250	0.034364
-5.245	0.033671
-5.240	0.032975
-5.235	0.032349
-5.230	0.031727
-5.225	0.031159
-5.220	0.030641
-5.215	0.030084
-5.210	0.029476
-5.205	0.028911
-5.200	0.028394
-5.195	0.027899
-5.190	0.027452
-5.185	0.027040
-5.180	0.026552
-5.175	0.026106
-5.170	0.025676
-5.165	0.025299
-5.160	0.024977
-5.155	0.024655
-5.150	0.024388
-5.145	0.024078
-5.140	0.023713
-5.135	0.023411
-5.130	0.023121
-5.125	0.022804
-5.120	0.022612
-5.115	0.022433
-5.110	0.022227
-5.105	0.022028
-5.100	0.021838
-5.095	0.021659
-5.090	0.021526
-5.085	0.021313
-5.080	0.021124
-5.075	0.020895
-5.070	0.020631
-5.065	0.020466
-5.060	0.020351
-5.055	0.020175
-5.050	0.020005
-5.045	0.019799
-5.040	0.019614
-5.035	0.019360
-5.030	0.019150
-5.025	0.018976
-5.020	0.018810
-5.015	0.018666
-5.010	0.018491
-5.005	0.018384
-5.000	0.018265
-4.995	0.018156
-4.990	0.018053
-4.985	0.017931
-4.980	0.017754
-4.975	0.017592
-4.970	0.017387
-4.965	0.017248
-4.960	0.017097
-4.955	0.016962
-4.950	0.016826
-4.945	0.016712
-4.940	0.016543
-4.935	0.016384
-4.930	0.016261
-4.925	0.016140
-4.920	0.016042
-4.915	0.015891
-4.910	0.015775
-4.905	0.015669
-4.900	0.015549
-4.895	0.015492
-4.890	0.015406
-4.885	0.015395
-4.880	0.015377
-4.875	0.015371
-4.870	0.015290
-4.865	0.015226
-4.860	0.015136
-4.855	0.015095
-4.850	0.015081
-4.845	0.014977
-4.840	0.014936
-4.835	0.014892
-4.830	0.014839
-4.825	0.014765
-4.820	0.014699
-4.815	0.014604
-4.810	0.014547
-4.805	0.014415
-4.800	0.014290
-4.795	0.014227
-4.790	0.014170
-4.785	0.014108
-4.780	0.014116
-4.775	0.014061
-4.770	0.014007
-4.765	0.013897
-4.760	0.013798
-4.755	0.013665
-4.750	0.013498
-4.745	0.013390
-4.740	0.013305
-4.735	0.013152
-4.730	0.013066
-4.725	0.013037
-4.720	0.013066
-4.715	0.013035
-4.710	0.013118
-4.705	0.013050
-4.700	0.013016
-4.695	0.012944
-4.690	0.012873
-4.685	0.012729
-4.680	0.012610
-4.675	0.012469
-4.670	0.012319
-4.665	0.012235
-4.660	0.012132
-4.655	0.012001
-4.650	0.011947
-4.645	0.011892
-4.640	0.011826
-4.635	0.011776
-4.630	0.011699
-4.625	0.011521
-4.620	0.011338
-4.615	0.011233
-4.610	0.011203
-4.605	0.011194
-4.600	0.011196
-4.595	0.011249
-4.590	0.011346
-4.585	0.011388
-4.580	0.011402
-4.575	0.011367
-4.570	0.011367
-4.565	0.011373
-4.560	0.011375
-4.555	0.011358
-4.550	0.011266
-4.545	0.011201
-4.540	0.011135
-4.535	0.011079
-4.530	0.011086
-4.525	0.011021
-4.520	0.010975
-4.515	0.010887
-4.510	0.010813
-4.505	0.010752
-4.500	0.010718
-4.495	0.010669
-4.490	0.010644
-4.485	0.010632
-4.480	0.010632
-4.475	0.010573
-4.470	0.010510
-4.465	0.010462
-4.460	0.010421
-4.455	0.010373
-4.450	0.010305
-4.445	0.010278
-4.440	0.010252
-4.435	0.010190
-4.430	0.010191
-4.425	0.010088
-4.420	0.010066
-4.415	0.010060
-4.410	0.010064
-4.405	0.010029
-4.400	0.009976
-4.395	0.009866
-4.390	0.009854
-4.385	0.009815
-4.380	0.009770
-4.375	0.009695
-4.370	0.009689
-4.365	0.009659
-4.360	0.009658
-4.355	0.009617
-4.350	0.009552
-4.345	0.009523
-4.340	0.009540
-4.335	0.009538
-4.330	0.009517
-4.325	0.009476
-4.320	0.009472
-4.315	0.009443
-4.310	0.009471
-4.305	0.009402
-4.300	0.009341
-4.295	0.009285
-4.290	0.009220
-4.285	0.009124
-4.280	0.009050
-4.275	0.009032
-4.270	0.009013
-4.265	0.008970
-4.260	0.009018
-4.255	0.009037
-4.250	0.009036
-4.245	0.009029
-4.240	0.009049
-4.235	0.009016
-4.230	0.009029
-4.225	0.009036
-4.220	0.008985
-4.215	0.008979
-4.210	0.008968
-4.205	0.008899
-4.200	0.008811
-4.195	0.008722
-4.190	0.008599
-4.185	0.008567
-4.180	0.008538
-4.175	0.008455
-4.170	0.008339
-4.165	0.008222
-4.160	0.008070
-4.155	0.007867
-4.150	0.007546
-4.145	0.007071
-4.140	0.006330
-4.135	0.005307
-4.130	0.003839
-4.125	0.001891
-4.120	-0.000573
-4.115	-0.003560
-4.110	-0.006961
-4.105	-0.011039
-4.100	-0.015519
-4.095	-0.020345
-4.090	-0.025695
-4.085	-0.031362
-4.080	-0.037170
-4.075	-0.043158
-4.070	-0.049098
-4.065	-0.054844
-4.060	-0.060237
-4.055	-0.064827
-4.050	-0.068010
-4.045	-0.069745
-4.040	-0.069711
-4.035	-0.067917
-4.030	-0.064720
-4.025	-0.060706
-4.020	-0.056544
-4.015	-0.052709
-4.010	-0.049373
-4.005	-0.046506
-4.000	-0.044111
-3.995	-0.042031
-3.990	-0.040225
-3.985	-0.038543
-3.980	-0.037113
-3.975	-0.035797
-3.970	-0.034601
-3.965	-0.033591
-3.960	-0.032619
-3.955	-0.031724
-3.950	-0.030879
-3.945	-0.030103
-3.940	-0.029437
-3.935	-0.028766
-3.930	-0.028192
-3.925	-0.027614
-3.920	-0.027065
-3.915	-0.026511
-3.910	-0.026026
-3.905	-0.025547
-3.900	-0.025122
-3.895	-0.024698
-3.890	-0.024206
-3.885	-0.023810
-3.880	-0.023427
-3.875	-0.023013
-3.870	-0.022604
-3.865	-0.022225
-3.860	-0.021883
-3.855	-0.021526
-3.850	-0.021145
-3.845	-0.020807
-3.840	-0.020505
-3.835	-0.020196
-3.830	-0.019853
-3.825	-0.019554
-3.820	-0.019255
-3.815	-0.018992
-3.810	-0.018710
-3.805	-0.018411
-3.800	-0.018168
-3.795	-0.017899
-3.790	-0.017684
-3.785	-0.017453
-3.780	-0.017221
-3.775	-0.016952
-3.770	-0.016712
-3.765	-0.016540
-3.760	-0.016324
-3.755	-0.016108
-3.750	-0.015923
-3.745	-0.015729
-3.740	-0.015561
-3.735	-0.015392
-3.730	-0.015206
-3.725	-0.015014
-3.720	-0.014897
-3.715	-0.014737
-3.710	-0.014575
-3.705	-0.014437
-3.700	-0.014319
-3.695	-0.014188
-3.690	-0.014088
-3.685	-0.013947
-3.680	-0.013829
-3.675	-0.013707
-3.670	-0.013598
-3.665	-0.013495
-3.660	-0.013407
-3.655	-0.013246
-3.650	-0.013098
-3.645	-0.012990
-3.640	-0.012848
-3.635	-0.012726
-3.630	-0.012649
-3.625	-0.012500
-3.620	-0.012394
-3.615	-0.012244
-3.610	-0.012083
-3.605	-0.011902
-3.600	-0.011720
-3.595	-0.011552
-3.590	-0.011345
-3.585	-0.011104
-3.580	-0.010832
-3.575	-0.010520
-3.570	-0.010186
-3.565	-0.009803
-3.560	-0.009426
-3.555	-0.008925
-3.550	-0.008479
-3.545	-0.007969
-3.540	-0.007371
-3.535	-0.006710
-3.530	-0.006067
-3.525	-0.005480
-3.520	-0.004861
-3.515	-0.004229
-3.510	-0.003583
-3.505	-0.002992
-3.500	-0.002374
-3.495	-0.001770
-3.490	-0.001235
-3.485	-0.000754
-3.480	-0.000370
-3.475	-0.000062
-3.470	0.000185
-3.465	0.000391
-3.460	0.000569
-3.455	0.000679
-3.450	0.000789
-3.445	0.000817
-3.440	0.000796
-3.435	0.000774
-3.430	0.000829
-3.425	0.000897
-3.420	0.001048
-3.415	0.001226
-3.410	0.001535
-3.405	0.001916
-3.400	0.002378
-3.395	0.002971
-3.390	0.003686
-3.385	0.004446
-3.380	0.005295
-3.375	0.006260
-3.370	0.007289
-3.365	0.008278
-3.360	0.009234
-3.355	0.010220
-3.350	0.011112
-3.345	0.011826
-3.340	0.012104
-3.335	0.012025
-3.330	0.011609
-3.325	0.011138
-3.320	0.010577
-3.315	0.010097
-3.310	0.009761
-3.305	0.009534
-3.300	0.009382
-3.295	0.009271
-3.290	0.009130
-3.285	0.009009
-3.280	0.008926
-3.275	0.008832
-3.270	0.008776
-3.265	0.008754
-3.260	0.008759
-3.255	0.008744
-3.250	0.008736
-3.245	0.008810
-3.240	0.008847
-3.235	0.008987
-3.230	0.009196
-3.225	0.009345
-3.220	0.009367
-3.215	0.009323
-3.210	0.009356
-3.205	0.009458
-3.200	0.009555
-3.195	0.009648
-3.190	0.009759
-3.185	0.009923
-3.180	0.010054
-3.175	0.010141
-3.170	0.010269
-3.165	0.010378
-3.160	0.010446
-3.155	0.010518
-3.150	0.010651
-3.145	0.010702
-3.140	0.010800
-3.135	0.010839
-3.130	0.010946
-3.125	0.010970
-3.120	0.010940
-3.115	0.011029
-3.110	0.011170
-3.105	0.011306
-3.100	0.011393
-3.095	0.011482
-3.090	0.011553
-3.085	0.011571
-3.080	0.011648
-3.075	0.011598
-3.070	0.011714
-3.065	0.011791
-3.060	0.011909
-3.055	0.011977
-3.050	0.012044
-3.045	0.012089
-3.040	0.012091
-3.035	0.012206
-3.030	0.012253
-3.025	0.012353
-3.020	0.012470
-3.015	0.012575
-3.010	0.012697
-3.005	0.012808
-3.000	0.012953
-2.995	0.013096
-2.990	0.013194
-2.985	0.013315
-2.980	0.013424
-2.975	0.013479
-2.970	0.013480
-2.965	0.013499
-2.960	0.013597
-2.955	0.013653
-2.950	0.013731
-2.945	0.013767
-2.940	0.013847
-2.935	0.013996
-2.930	0.014162
-2.925	0.014236
-2.920	0.014314
-2.915	0.014369
-2.910	0.014447
-2.905	0.014477
-2.900	0.014556
-2.895	0.014664
-2.890	0.014805
-2.885	0.014944
-2.880	0.015026
-2.875	0.015187
-2.870	0.015226
-2.865	0.015362
-2.860	0.015460
-2.855	0.015584
-2.850	0.015711
-2.845	0.015788
-2.840	0.015770
-2.835	0.015733
-2.830	0.015705
-2.825	0.015646
-2.820	0.015596
-2.815	0.015610
-2.810	0.015570
-2.805	0.015544
-2.800	0.015565
-2.795	0.015575
-2.790	0.015635
-2.785	0.015704
-2.780	0.015860
-2.775	0.015910
-2.770	0.016024
-2.765	0.016154
-2.760	0.016333
-2.755	0.016456
-2.750	0.016470
-2.745	0.016468
-2.740	0.016479
-2.735	0.016636
-2.730	0.016758
-2.725	0.016811
-2.720	0.016854
-2.715	0.016925
-2.710	0.016971
-2.705	0.017003
-2.700	0.017096
-2.695	0.017110
-2.690	0.017127
-2.685	0.017233
-2.680	0.017358
-2.675	0.017555
-2.670	0.017749
-2.665	0.017891
-2.660	0.018027
-2.655	0.018106
-2.650	0.018177
-2.645	0.018263
-2.640	0.018311
-2.635	0.018277
-2.630	0.018278
-2.625	0.018280
-2.620	0.018258
-2.615	0.018260
-2.610	0.018253
-2.605	0.018180
-2.600	0.018204
-2.595	0.018136
-2.590	0.018067
-2.585	0.018019
-2.580	0.017979
-2.575	0.018023
-2.570	0.018082
-2.565	0.018153
-2.560	0.018289
-2.555	0.018384
-2.550	0.018503
-2.545	0.018653
-2.540	0.018771
-2.535	0.018786
-2.530	0.018777
-2.525	0.018743
-2.520	0.018683
-2.515	0.018747
-2.510	0.018790
-2.505	0.018816
-2.500	0.018859
-2.495	0.018865
-2.490	0.018904
-2.485	0.018856
-2.480	0.018803
-2.475	0.018721
-2.470	0.018714
-2.465	0.018744
-2.460	0.018782
-2.455	0.018745
-2.450	0.018711
-2.445	0.018707
-2.440	0.018821
-2.435	0.018898
-2.430	0.019032
-2.425	0.019137
-2.420	0.019237
-2.415	0.019294
-2.410	0.019366
-2.405	0.019358
-2.400	0.019426
-2.395	0.019544
-2.390	0.019711
-2.385	0.019844
-2.380	0.019918
-2.375	0.020010
-2.370	0.020118
-2.365	0.020160
-2.360	0.020170
-2.355	0.020130
-2.350	0.020031
-2.345	0.019927
-2.340	0.019914
-2.335	0.019943
-2.330	0.019932
-2.325	0.019902
-2.320	0.019854
-2.315	0.019774
-2.310	0.019751
-2.305	0.019718
-2.300	0.019731
-2.295	0.019749
-2.290	0.019714
-2.285	0.019696
-2.280	0.019700
-2.275	0.019749
-2.270	0.019748
-2.265	0.019710
-2.260	0.019695
-2.255	0.019719
-2.250	0.019781
-2.245	0.019769
-2.240	0.019789
-2.235	0.019856
-2.230	0.019873
-2.225	0.019904
-2.220	0.019927
-2.215	0.019866
-2.210	0.019844
-2.205	0.019787
-2.200	0.019820
-2.195	0.019757
-2.190	0.019713
-2.185	0.019744
-2.180	0.019716
-2.175	0.019671
-2.170	0.019590
-2.165	0.019573
-2.160	0.019521
-2.155	0.019578
-2.150	0.019551
-2.145	0.019606
-2.140	0.019669
-2.135	0.019677
-2.130	0.019741
-2.125	0.019824
-2.120	0.019921
-2.115	0.020029
-2.110	0.020128
-2.105	0.020277
-2.100	0.020371
-2.095	0.020403
-2.090	0.020510
-2.085	0.020604
-2.080	0.020634
-2.075	0.020554
-2.070	0.020507
-2.065	0.020383
-2.060	0.020285
-2.055	0.020169
-2.050	0.020146
-2.045	0.020073
-2.040	0.020021
-2.035	0.019978
-2.030	0.019921
-2.025	0.019868
-2.020	0.019877
-2.015	0.019928
-2.010	0.019977
-2.005	0.019959
-2.000	0.019983
-1.995	0.019979
-1.990	0.020021
-1.985	0.020006
-1.980	0.019982
-1.975	0.019927
-1.970	0.019858
-1.965	0.019843
-1.960	0.019839
-1.955	0.019827
-1.950	0.019840
-1.945	0.019862
-1.940	0.019919
-1.935	0.019998
-1.930	0.020037
-1.925	0.020065
-1.920	0.020038
-1.915	0.020100
-1.910	0.020021
-1.905	0.019932
-1.900	0.019816
-1.895	0.019674
-1.890	0.019513
-1.885	0.019439
-1.880	0.019374
-1.875	0.019292
-1.870	0.019350
-1.865	0.019334
-1.860	0.019268
-1.855	0.019248
-1.850	0.019262
-1.845	0.019264
-1.840	0.019233
-1.835	0.019147
-1.830	0.019101
-1.825	0.019053
-1.820	0.018991
-1.815	0.018963
-1.810	0.018990
-1.805	0.018991
-1.800	0.019004
-1.795	0.019007
-1.790	0.019008
-1.785	0.019019
-1.780	0.019021
-1.775	0.019027
-1.770	0.019084
-1.765	0.019142
-1.760	0.019184
-1.755	0.019224
-1.750	0.019242
-1.745	0.019230
-1.740	0.019129
-1.735	0.019044
-1.730	0.018931
-1.725	0.018803
-1.720	0.018639
-1.715	0.018594
-1.710	0.018524
-1.705	0.018488
-1.700	0.018526
-1.695	0.018541
-1.690	0.018536
-1.685	0.018588
-1.680	0.018629
-1.675	0.018596
-1.670	0.018613
-1.665	0.018605
-1.660	0.018557
-1.655	0.018555
-1.650	0.018446
-1.645	0.018399
-1.640	0.018313
-1.635	0.018275
-1.630	0.018170
-1.625	0.018121
-1.620	0.018027
-1.615	0.017993
-1.610	0.018007
-1.605	0.018000
-1.600	0.018029
-1.595	0.018006
-1.590	0.018060
-1.585	0.018103
-1.580	0.018173
-1.575	0.018222
-1.570	0.018284
-1.565	0.018298
-1.560	0.018280
-1.555	0.018313
-1.550	0.018227
-1.545	0.018101
-1.540	0.018011
-1.535	0.017880
-1.530	0.017755
-1.525	0.017624
-1.520	0.017517
-1.515	0.017447
-1.510	0.017440
-1.505	0.017422
-1.500	0.017389
-1.495	0.017291
-1.490	0.017211
-1.485	0.017131
-1.480	0.017017
-1.475	0.016903
-1.470	0.016825
-1.465	0.016686
-1.460	0.016599
-1.455	0.016529
-1.450	0.016440
-1.445	0.016281
-1.440	0.016210
-1.435	0.016078
-1.430	0.016009
-1.425	0.015938
-1.420	0.015900
-1.415	0.015816
-1.410	0.015748
-1.405	0.015663
-1.400	0.015614
-1.395	0.015561
-1.390	0.015542
-1.385	0.015535
-1.380	0.015624
-1.375	0.015635
-1.370	0.015715
-1.365	0.015809
-1.360	0.015867
-1.355	0.015953
-1.350	0.015956
-1.345	0.015944
-1.340	0.015965
-1.335	0.015994
-1.330	0.015969
-1.325	0.015925
-1.320	0.015872
-1.315	0.015818
-1.310	0.015712
-1.305	0.015599
-1.300	0.015484
-1.295	0.015408
-1.290	0.015319
-1.285	0.015275
-1.280	0.015224
-1.275	0.015185
-1.270	0.015156
-1.265	0.015156
-1.260	0.015149
-1.255	0.015124
-1.250	0.015078
-1.245	0.015011
-1.240	0.014996
-1.235	0.014904
-1.230	0.014843
-1.225	0.014814
-1.220	0.014757
-1.215	0.014722
-1.210	0.014673
-1.205	0.014643
-1.200	0.014531
-1.195	0.014491
-1.190	0.014393
-1.185	0.014325
-1.180	0.014290
-1.175	0.014234
-1.170	0.014143
-1.165	0.014073
-1.160	0.014022
-1.155	0.013951
-1.150	0.013883
-1.145	0.013813
-1.140	0.013769
-1.135	0.013714
-1.130	0.013640
-1.125	0.013602
-1.120	0.013584
-1.115	0.013581
-1.110	0.013569
-1.105	0.013563
-1.100	0.013603
-1.095	0.013583
-1.090	0.013595
-1.085	0.013575
-1.080	0.013605
-1.075	0.013567
-1.070	0.013584
-1.065	0.013543
-1.060	0.013477
-1.055	0.013465
-1.050	0.013405
-1.045	0.013345
-1.040	0.013302
-1.035	0.013245
-1.030	0.013154
-1.025	0.013087
-1.020	0.012992
-1.015	0.012934
-1.010	0.012896
-1.005	0.012812
-1.000	0.012792
-0.995	0.012723
-0.990	0.012616
-0.985	0.012594
-0.980	0.012502
-0.975	0.012439
-0.970	0.012397
-0.965	0.012295
-0.960	0.012252
-0.955	0.012185
-0.950	0.012068
-0.945	0.012007
-0.940	0.011979
-0.935	0.011931
-0.930	0.011865
-0.925	0.011789
-0.920	0.011759
-0.915	0.011690
-0.910	0.011643
-0.905	0.011565
-0.900	0.011496
-0.895	0.011407
-0.890	0.011316
-0.885	0.011204
-0.880	0.011125
-0.875	0.011029
-0.870	0.010926
-0.865	0.010859
-0.860	0.010790
-0.855	0.010674
-0.850	0.010566
-0.845	0.010455
-0.840	0.010382
-0.835	0.010279
-0.830	0.010177
-0.825	0.010099
-0.820	0.010024
-0.815	0.009897
-0.810	0.009781
-0.805	0.009711
-0.800	0.009656
-0.795	0.009592
-0.790	0.009524
-0.785	0.009483
-0.780	0.009433
-0.775	0.009386
-0.770	0.009371
-0.765	0.009294
-0.760	0.009264
-0.755	0.009288
-0.750	0.009222
-0.745	0.009212
-0.740	0.009200
-0.735	0.009172
-0.730	0.009201
-0.725	0.009214
-0.720	0.009201
-0.715	0.009202
-0.710	0.009175
-0.705	0.009195
-0.700	0.009129
-0.695	0.009109
-0.690	0.009086
-0.685	0.009043
-0.680	0.008977
-0.675	0.008892
-0.670	0.008829
-0.665	0.008738
-0.660	0.008690
-0.655	0.008579
-0.650	0.008503
-0.645	0.008447
-0.640	0.008316
-0.635	0.008175
-0.630	0.008085
-0.625	0.007963
-0.620	0.007890
-0.615	0.007793
-0.610	0.007737
-0.605	0.007593
-0.600	0.007532
-0.595	0.007470
-0.590	0.007422
-0.585	0.007333
-0.580	0.007287
-0.575	0.007216
-0.570	0.007154
-0.565	0.007097
-0.560	0.007065
-0.555	0.007025
-0.550	0.006956
-0.545	0.006938
-0.540	0.006897
-0.535	0.006860
-0.530	0.006811
-0.525	0.006784
-0.520	0.006736
-0.515	0.006701
-0.510	0.006689
-0.505	0.006646
-0.500	0.006596
-0.495	0.006534
-0.490	0.006502
-0.485	0.006482
-0.480	0.006439
-0.475	0.006348
-0.470	0.006294
-0.465	0.006204
-0.460	0.006136
-0.455	0.006048
-0.450	0.006000
-0.445	0.005923
-0.440	0.005853
-0.435	0.005804
-0.430	0.005736
-0.425	0.005670
-0.420	0.005513
-0.415	0.005422
-0.410	0.005325
-0.405	0.005248
-0.400	0.005228
-0.395	0.005124
-0.390	0.005082
-0.385	0.005035
-0.380	0.004940
-0.375	0.004858
-0.370	0.004781
-0.365	0.004741
-0.360	0.004666
-0.355	0.004599
-0.350	0.004523
-0.345	0.004474
-0.340	0.004398
-0.335	0.004302
-0.330	0.004261
-0.325	0.004220
-0.320	0.004165
-0.315	0.004130
-0.310	0.004088
-0.305	0.004046
-0.300	0.004019
-0.295	0.003972
-0.290	0.003886
-0.285	0.003804
-0.280	0.003741
-0.275	0.003657
-0.270	0.003610
-0.265	0.003528
-0.260	0.003412
-0.255	0.003344
-0.250	0.003228
-0.245	0.003111
-0.240	0.003054
-0.235	0.003059
-0.230	0.002962
-0.225	0.002948
-0.220	0.002915
-0.215	0.002818
-0.210	0.002728
-0.205	0.002618
-0.200	0.002522
-0.195	0.002434
-0.190	0.002283
-0.185	0.002208
-0.180	0.002125
-0.175	0.002069
-0.170	0.002088
-0.165	0.002135
-0.160	0.002163
-0.155	0.002142
-0.150	0.002161
-0.145	0.002269
-0.140	0.002400
-0.135	0.002559
-0.130	0.002671
-0.125	0.002836
-0.120	0.003075
-0.115	0.003169
-0.110	0.003094
-0.105	0.002998
-0.100	0.002744
-0.095	0.002532
-0.090	0.002101
-0.085	0.001552
-0.080	0.000926
-0.075	0.000246
-0.070	-0.000469
-0.065	-0.001238
-0.060	-0.002145
-0.055	-0.002943
-0.050	-0.003550
-0.045	-0.003991
-0.040	-0.004168
-0.035	-0.003904
-0.030	-0.003231
-0.025	-0.002193
-0.020	-0.000798
-0.015	0.000719
-0.010	0.002190
-0.005	0.003772
0.000	0.005162
0.005	0.006052
0.010	0.006376
0.015	0.006196
0.020	0.005460
0.025	0.004252
0.030	0.002843
0.035	0.001323
0.040	-0.000260
0.045	-0.001726
0.050	-0.003018
0.055	-0.003902
0.060	-0.004424
0.065	-0.004651
0.070	-0.004591
0.075	-0.004242
0.080	-0.003747
0.085	-0.003211
0.090	-0.002757
0.095	-0.002544
0.100	-0.002420
0.105	-0.002372
0.110	-0.002255
0.115	-0.002146
0.120	-0.002029
0.125	-0.001912
0.130	-0.001830
0.135	-0.001892
0.140	-0.001953
0.145	-0.001988
0.150	-0.001954
0.155	-0.001947
0.160	-0.002002
0.165	-0.002091
0.170	-0.002180
0.175	-0.002229
0.180	-0.002229
0.185	-0.002277
0.190	-0.002311
0.195	-0.002352
0.200	-0.002366
0.205	-0.002408
0.210	-0.002422
0.215	-0.002490
0.220	-0.002573
0.225	-0.002704
0.230	-0.002786
0.235	-0.002923
0.240	-0.003019
0.245	-0.003116
0.250	-0.003163
0.255	-0.003252
0.260	-0.003266
0.265	-0.003274
0.270	-0.003391
0.275	-0.003514
0.280	-0.003596
0.285	-0.003685
0.290	-0.003761
0.295	-0.003816
0.300	-0.003904
0.305	-0.004001
0.310	-0.004091
0.315	-0.004181
0.320	-0.004284
0.325	-0.004427
0.330	-0.004496
0.335	-0.004599
0.340	-0.004682
0.345	-0.004834
0.350	-0.004902
0.355	-0.005019
0.360	-0.005087
0.365	-0.005197
0.370	-0.005259
0.375	-0.005377
0.380	-0.005412
0.385	-0.005479
0.390	-0.005575
0.395	-0.005658
0.400	-0.005768
0.405	-0.005837
0.410	-0.005885
0.415	-0.005947
0.420	-0.006009
0.425	-0.006091
0.430	-0.006090
0.435	-0.006138
0.440	-0.006187
0.445	-0.006215
0.450	-0.006236
0.455	-0.006351
0.460	-0.006351
0.465	-0.006338
0.470	-0.006339
0.475	-0.006388
0.480	-0.006416
0.485	-0.006423
0.490	-0.006484
0.495	-0.006511
0.500	-0.006546
0.505	-0.006581
0.510	-0.006610
0.515	-0.006678
0.520	-0.006738
0.525	-0.006759
0.530	-0.006849
0.535	-0.006884
0.540	-0.006974
0.545	-0.007062
0.550	-0.007124
0.555	-0.007234
0.560	-0.007337
0.565	-0.007406
0.570	-0.007482
0.575	-0.007573
0.580	-0.007629
0.585	-0.007717
0.590	-0.007785
0.595	-0.007866
0.600	-0.007949
0.605	-0.007969
0.610	-0.008002
0.615	-0.008098
0.620	-0.008182
0.625	-0.008222
0.630	-0.008264
0.635	-0.008325
0.640	-0.008334
0.645	-0.008418
0.650	-0.008439
0.655	-0.008444
0.660	-0.008472
0.665	-0.008505
0.670	-0.008546
0.675	-0.008587
0.680	-0.008628
0.685	-0.008656
0.690	-0.008671
0.695	-0.008691
0.700	-0.008739
0.705	-0.008746
0.710	-0.008789
0.715	-0.008857
0.720	-0.008876
0.725	-0.008924
0.730	-0.008945
0.735	-0.009014
0.740	-0.009090
0.745	-0.009138
0.750	-0.009230
0.755	-0.009270
0.760	-0.009402
0.765	-0.009525
0.770	-0.009643
0.775	-0.009727
0.780	-0.009824
0.785	-0.009972
0.790	-0.010108
0.795	-0.010225
0.800	-0.010364
0.805	-0.010488
0.810	-0.010578
0.815	-0.010683
0.820	-0.010801
0.825	-0.010938
0.830	-0.011035
0.835	-0.011164
0.840	-0.011277
0.845	-0.011375
0.850	-0.011470
0.855	-0.011535
0.860	-0.011618
0.865	-0.011679
0.870	-0.011700
0.875	-0.011783
0.880	-0.011790
0.885	-0.011806
0.890	-0.011814
0.895	-0.011828
0.900	-0.011820
0.905	-0.011836
0.910	-0.011825
0.915	-0.011823
0.920	-0.011868
0.925	-0.011847
0.930	-0.011828
0.935	-0.011856
0.940	-0.011870
0.945	-0.011911
0.950	-0.011938
0.955	-0.011978
0.960	-0.011992
0.965	-0.012044
0.970	-0.012139
0.975	-0.012176
0.980	-0.012220
0.985	-0.012278
0.990	-0.012348
0.995	-0.012360
1.000	-0.012465
1.005	-0.012547
1.010	-0.012569
1.015	-0.012611
1.020	-0.012639
1.025	-0.012716
1.030	-0.012753
1.035	-0.012850
1.040	-0.012936
1.045	-0.013044
1.050	-0.013112
1.055	-0.013220
1.060	-0.013296
1.065	-0.013385
1.070	-0.013494
1.075	-0.013571
1.080	-0.013645
1.085	-0.013775
1.090	-0.013850
1.095	-0.013951
1.100	-0.014041
1.105	-0.014158
1.110	-0.014238
1.115	-0.014316
1.120	-0.014368
1.125	-0.014434
1.130	-0.014463
1.135	-0.014543
1.140	-0.014557
1.145	-0.014550
1.150	-0.014578
1.155	-0.014605
1.160	-0.014643
1.165	-0.014683
1.170	-0.014698
1.175	-0.014791
1.180	-0.014801
1.185	-0.014825
1.190	-0.014824
1.195	-0.014805
1.200	-0.014800
1.205	-0.014757
1.210	-0.014650
1.215	-0.014647
1.220	-0.014546
1.225	-0.014463
1.230	-0.014363
1.235	-0.014334
1.240	-0.014253
1.245	-0.014240
1.250	-0.014223
1.255	-0.014259
1.260	-0.014327
1.265	-0.014415
1.270	-0.014504
1.275	-0.014620
1.280	-0.014745
1.285	-0.014890
1.290	-0.015043
1.295	-0.015182
1.300	-0.015283
1.305	-0.015445
1.310	-0.015577
1.315	-0.015623
1.320	-0.015667
1.325	-0.015755
1.330	-0.015803
1.335	-0.015893
1.340	-0.015931
1.345	-0.015983
1.350	-0.016037
1.355	-0.016080
1.360	-0.016095
1.365	-0.016129
1.370	-0.016187
1.375	-0.016208
1.380	-0.016169
1.385	-0.016259
1.390	-0.016315
1.395	-0.016326
1.400	-0.016367
1.405	-0.016343
1.410	-0.016350
1.415	-0.016339
1.420	-0.016360
1.425	-0.016441
1.430	-0.016484
1.435	-0.016471
1.440	-0.016526
1.445	-0.016556
1.450	-0.016553
1.455	-0.016549
1.460	-0.016536
1.465	-0.016541
1.470	-0.016472
1.475	-0.016452
1.480	-0.016486
1.485	-0.016532
1.490	-0.016649
1.495	-0.016742
1.500	-0.016857
1.505	-0.016979
1.510	-0.017085
1.515	-0.017212
1.520	-0.017380
1.525	-0.017489
1.530	-0.017632
1.535	-0.017775
1.540	-0.017839
1.545	-0.017981
1.550	-0.018050
1.555	-0.018140
1.560	-0.018236
1.565	-0.018289
1.570	-0.018379
1.575	-0.018409
1.580	-0.018465
1.585	-0.018442
1.590	-0.018438
1.595	-0.018446
1.600	-0.018458
1.605	-0.018507
1.610	-0.018544
1.615	-0.018565
1.620	-0.018524
1.625	-0.018549
1.630	-0.018540
1.635	-0.018544
1.640	-0.018502
1.645	-0.018458
1.650	-0.018454
1.655	-0.018492
1.660	-0.018371
1.665	-0.018326
1.670	-0.018219
1.675	-0.018103
1.680	-0.018041
1.685	-0.017931
1.690	-0.017824
1.695	-0.017798
1.700	-0.017832
1.705	-0.017887
1.710	-0.018019
1.715	-0.018184
1.720	-0.018371
1.725	-0.018524
1.730	-0.018719
1.735	-0.018844
1.740	-0.018921
1.745	-0.018974
1.750	-0.019012
1.755	-0.019034
1.760	-0.019077
1.765	-0.019121
1.770	-0.019143
1.775	-0.019179
1.780	-0.019186
1.785	-0.019176
1.790	-0.019239
1.795	-0.019216
1.800	-0.019208
1.805	-0.019199
1.810	-0.019187
1.815	-0.019197
1.820	-0.019147
1.825	-0.019133
1.830	-0.019113
1.835	-0.019149
1.840	-0.019185
1.845	-0.019230
1.850	-0.019255
1.855	-0.019187
1.860	-0.019126
1.865	-0.019122
1.870	-0.019068
1.875	-0.019096
1.880	-0.019100
1.885	-0.019116
1.890	-0.019178
1.895	-0.019265
1.900	-0.019339
1.905	-0.019411
1.910	-0.019497
1.915	-0.019576
1.920	-0.019621
1.925	-0.019699
1.930	-0.019732
1.935	-0.019748
1.940	-0.019764
1.945	-0.019727
1.950	-0.019752
1.955	-0.019807
1.960	-0.019837
1.965	-0.019886
1.970	-0.019908
1.975	-0.019976
1.980	-0.020003
1.985	-0.019998
1.990	-0.020004
1.995	-0.020072
2.000	-0.020079
2.005	-0.020098
2.010	-0.020117
2.015	-0.020088
2.020	-0.019939
2.025	-0.019880
2.030	-0.019837
2.035	-0.019776
2.040	-0.019788
2.045	-0.019817
2.050	-0.019909
2.055	-0.019967
2.060	-0.020026
2.065	-0.020057
2.070	-0.020047
2.075	-0.020044
2.080	-0.020053
2.085	-0.019995
2.090	-0.019955
2.095	-0.019801
2.100	-0.019704
2.105	-0.019669
2.110	-0.019644
2.115	-0.019586
2.120	-0.019532
2.125	-0.019515
2.130	-0.019523
2.135	-0.019502
2.140	-0.019514
2.145	-0.019618
2.150	-0.019677
2.155	-0.019681
2.160	-0.019689
2.165	-0.019753
2.170	-0.019755
2.175	-0.019763
2.180	-0.019753
2.185	-0.019651
2.190	-0.019676
2.195	-0.019674
2.200	-0.019593
2.205	-0.019491
2.210	-0.019374
2.215	-0.019307
2.220	-0.019262
2.225	-0.019317
2.230	-0.019308
2.235	-0.019238
2.240	-0.019259
2.245	-0.019259
2.250	-0.019314
2.255	-0.019297
2.260	-0.019416
2.265	-0.019478
2.270	-0.019569
2.275	-0.019608
2.280	-0.019713
2.285	-0.019829
2.290	-0.019945
2.295	-0.020048
2.300	-0.020072
2.305	-0.020073
2.310	-0.020101
2.315	-0.020098
2.320	-0.020072
2.325	-0.020060
2.330	-0.020010
2.335	-0.019907
2.340	-0.019806
2.345	-0.019731
2.350	-0.019656
2.355	-0.019599
2.360	-0.019470
2.365	-0.019392
2.370	-0.019344
2.375	-0.019281
2.380	-0.019253
2.385	-0.019205
2.390	-0.019136
2.395	-0.019027
2.400	-0.018938
2.405	-0.018902
2.410	-0.018893
2.415	-0.018954
2.420	-0.019021
2.425	-0.018998
2.430	-0.019028
2.435	-0.019043
2.440	-0.019101
2.445	-0.019109
2.450	-0.019099
2.455	-0.019026
2.460	-0.018933
2.465	-0.018849
2.470	-0.018793
2.475	-0.018744
2.480	-0.018611
2.485	-0.018494
2.490	-0.018458
2.495	-0.018443
2.500	-0.018421
2.505	-0.018391
2.510	-0.018406
2.515	-0.018329
2.520	-0.018306
2.525	-0.018207
2.530	-0.018184
2.535	-0.018244
2.540	-0.018272
2.545	-0.018276
2.550	-0.018267
2.555	-0.018277
2.560	-0.018287
2.565	-0.018345
2.570	-0.018381
2.575	-0.018361
2.580	-0.018317
2.585	-0.018235
2.590	-0.018111
2.595	-0.017979
2.600	-0.018013
2.605	-0.018095
2.610	-0.018092
2.615	-0.018087
2.620	-0.018084
2.625	-0.018091
2.630	-0.018068
2.635	-0.017933
2.640	-0.017772
2.645	-0.017652
2.650	-0.017583
2.655	-0.017513
2.660	-0.017486
2.665	-0.017545
2.670	-0.017516
2.675	-0.017450
2.680	-0.017311
2.685	-0.017202
2.690	-0.017073
2.695	-0.016992
2.700	-0.016942
2.705	-0.016885
2.710	-0.016779
2.715	-0.016693
2.720	-0.016621
2.725	-0.016610
2.730	-0.016477
2.735	-0.016319
2.740	-0.016171
2.745	-0.016052
2.750	-0.015900
2.755	-0.015768
2.760	-0.015679
2.765	-0.015605
2.770	-0.015540
2.775	-0.015549
2.780	-0.015547
2.785	-0.015595
2.790	-0.015631
2.795	-0.015614
2.800	-0.015595
2.805	-0.015538
2.810	-0.015547
2.815	-0.015586
2.820	-0.015573
2.825	-0.015592
2.830	-0.015572
2.835	-0.015562
2.840	-0.015433
2.845	-0.015329
2.850	-0.015215
2.855	-0.015172
2.860	-0.015106
2.865	-0.015014
2.870	-0.014887
2.875	-0.014736
2.880	-0.014610
2.885	-0.014481
2.890	-0.014376
2.895	-0.014305
2.900	-0.014174
2.905	-0.014153
2.910	-0.014136
2.915	-0.014134
2.920	-0.014123
2.925	-0.014086
2.930	-0.013979
2.935	-0.013884
2.940	-0.013800
2.945	-0.013702
2.950	-0.013539
2.955	-0.013384
2.960	-0.013188
2.965	-0.013119
2.970	-0.012971
2.975	-0.012845
2.980	-0.012771
2.985	-0.012708
2.990	-0.012618
2.995	-0.012541
3.000	-0.012469
3.005	-0.012392
3.010	-0.012385
3.015	-0.012295
3.020	-0.012152
3.025	-0.012009
3.030	-0.011962
3.035	-0.012003
3.040	-0.011929
3.045	-0.011821
3.050	-0.011706
3.055	-0.011616
3.060	-0.011514
3.065	-0.011410
3.070	-0.011360
3.075	-0.011339
3.080	-0.011269
3.085	-0.011205
3.090	-0.011094
3.095	-0.010956
3.100	-0.010903
3.105	-0.010838
3.110	-0.010834
3.115	-0.010852
3.120	-0.010779
3.125	-0.010669
3.130	-0.010553
3.135	-0.010472
3.140	-0.010466
3.145	-0.010405
3.150	-0.010273
3.155	-0.010171
3.160	-0.010073
3.165	-0.009982
3.170	-0.009902
3.175	-0.009820
3.180	-0.009758
3.185	-0.009610
3.190	-0.009473
3.195	-0.009299
3.200	-0.009149
3.205	-0.009078
3.210	-0.008982
3.215	-0.008887
3.220	-0.008723
3.225	-0.008627
3.230	-0.008572
3.235	-0.008559
3.240	-0.008580
3.245	-0.008627
3.250	-0.008666
3.255	-0.008700
3.260	-0.008706
3.265	-0.008768
3.270	-0.008734
3.275	-0.008720
3.280	-0.008805
3.285	-0.008942
3.290	-0.009142
3.295	-0.009319
3.300	-0.009593
3.305	-0.009883
3.310	-0.010125
3.315	-0.010382
3.320	-0.010550
3.325	-0.010653
3.330	-0.010698
3.335	-0.010649
3.340	-0.010490
3.345	-0.010243
3.350	-0.009896
3.355	-0.009423
3.360	-0.008789
3.365	-0.008045
3.370	-0.007215
3.375	-0.006221
3.380	-0.004912
3.385	-0.003504
3.390	-0.002231
3.395	-0.001208
3.400	-0.000529
3.405	-0.000185
3.410	-0.000040
3.415	-0.000025
3.420	-0.000101
3.425	-0.000252
3.430	-0.000314
3.435	-0.000445
3.440	-0.000465
3.445	-0.000431
3.450	-0.000384
3.455	-0.000281
3.460	-0.000068
3.465	0.000220
3.470	0.000535
3.475	0.000899
3.480	0.001319
3.485	0.001792
3.490	0.002362
3.495	0.002923
3.500	0.003534
3.505	0.004145
3.510	0.004792
3.515	0.005429
3.520	0.006081
3.525	0.006733
3.530	0.007289
3.535	0.007872
3.540	0.008429
3.545	0.008951
3.550	0.009378
3.555	0.009831
3.560	0.010208
3.565	0.010511
3.570	0.010833
3.575	0.011111
3.580	0.011334
3.585	0.011503
3.590	0.011724
3.595	0.011869
3.600	0.011993
3.605	0.012123
3.610	0.012282
3.615	0.012453
3.620	0.012582
3.625	0.012686
3.630	0.012801
3.635	0.012939
3.640	0.013097
3.645	0.013175
3.650	0.013231
3.655	0.013397
3.660	0.013465
3.665	0.013602
3.670	0.013739
3.675	0.013855
3.680	0.013986
3.685	0.014094
3.690	0.014212
3.695	0.014341
3.700	0.014515
3.705	0.014705
3.710	0.014845
3.715	0.015033
3.720	0.015200
3.725	0.015364
3.730	0.015545
3.735	0.015731
3.740	0.015892
3.745	0.016088
3.750	0.016274
3.755	0.016480
3.760	0.016704
3.765	0.016914
3.770	0.017098
3.775	0.017338
3.780	0.017578
3.785	0.017800
3.790	0.018022
3.795	0.018290
3.800	0.018504
3.805	0.018768
3.810	0.019053
3.815	0.019378
3.820	0.019627
3.825	0.019964
3.830	0.020254
3.835	0.020534
3.840	0.020869
3.845	0.021197
3.850	0.021487
3.855	0.021848
3.860	0.022171
3.865	0.022552
3.870	0.022929
3.875	0.023310
3.880	0.023707
3.885	0.024131
3.890	0.024562
3.895	0.024977
3.900	0.025400
3.905	0.025814
3.910	0.026333
3.915	0.026857
3.920	0.027404
3.925	0.028005
3.930	0.028652
3.935	0.029306
3.940	0.030019
3.945	0.030781
3.950	0.031581
3.955	0.032440
3.960	0.033365
3.965	0.034406
3.970	0.035588
3.975	0.036829
3.980	0.038241
3.985	0.039923
3.990	0.041808
3.995	0.043886
4.000	0.046201
4.005	0.048656
4.010	0.051266
4.015	0.053979
4.020	0.056585
4.025	0.058951
4.030	0.061024
4.035	0.062621
4.040	0.063703
4.045	0.064215
4.050	0.063925
4.055	0.062707
4.060	0.060593
4.065	0.057510
4.070	0.053363
4.075	0.048040
4.080	0.041424
4.085	0.033848
4.090	0.025882
4.095	0.017962
4.100	0.010828
4.105	0.004842
4.110	0.000370
4.115	-0.002697
4.120	-0.004644
4.125	-0.005917
4.130	-0.006681
4.135	-0.007149
4.140	-0.007404
4.145	-0.007630
4.150	-0.007830
4.155	-0.008014
4.160	-0.008214
4.165	-0.008385
4.170	-0.008497
4.175	-0.008600
4.180	-0.008669
4.185	-0.008695
4.190	-0.008744
4.195	-0.008819
4.200	-0.008828
4.205	-0.008871
4.210	-0.008918
4.215	-0.008954
4.220	-0.008919
4.225	-0.008879
4.230	-0.008827
4.235	-0.008816
4.240	-0.008790
4.245	-0.008839
4.250	-0.008826
4.255	-0.008830
4.260	-0.008881
4.265	-0.008898
4.270	-0.008954
4.275	-0.009029
4.280	-0.009135
4.285	-0.009193
4.290	-0.009266
4.295	-0.009326
4.300	-0.009336
4.305	-0.009388
4.310	-0.009412
4.315	-0.009412
4.320	-0.009392
4.325	-0.009468
4.330	-0.009511
4.335	-0.009479
4.340	-0.009502
4.345	-0.009521
4.350	-0.009527
4.355	-0.009541
4.360	-0.009538
4.365	-0.009588
4.370	-0.009604
4.375	-0.009676
4.380	-0.009703
4.385	-0.009728
4.390	-0.009747
4.395	-0.009794
4.400	-0.009845
4.405	-0.009844
4.410	-0.009894
4.415	-0.009900
4.420	-0.009918
4.425	-0.009935
4.430	-0.009977
4.435	-0.010103
4.440	-0.010186
4.445	-0.010277
4.450	-0.010342
4.455	-0.010362
4.460	-0.010369
4.465	-0.010388
4.470	-0.010395
4.475	-0.010402
4.480	-0.010466
4.485	-0.010530
4.490	-0.010578
4.495	-0.010605
4.500	-0.010588
4.505	-0.010620
4.510	-0.010704
4.515	-0.010777
4.520	-0.010834
4.525	-0.010877
4.530	-0.010934
4.535	-0.010982
4.540	-0.011029
4.545	-0.011090
4.550	-0.011189
4.555	-0.011258
4.560	-0.011317
4.565	-0.011314
4.570	-0.011330
4.575	-0.011283
4.580	-0.011261
4.585	-0.011341
4.590	-0.011402
4.595	-0.011468
4.600	-0.011499
4.605	-0.011533
4.610	-0.011569
4.615	-0.011593
4.620	-0.011587
4.625	-0.011688
4.630	-0.011747
4.635	-0.011801
4.640	-0.011814
4.645	-0.011880
4.650	-0.011909
4.655	-0.011923
4.660	-0.012074
4.665	-0.012204
4.670	-0.012356
4.675	-0.012511
4.680	-0.012689
4.685	-0.012695
4.690	-0.012756
4.695	-0.012752
4.700	-0.012821
4.705	-0.012879
4.710	-0.012881
4.715	-0.012952
4.720	-0.012887
4.725	-0.012866
4.730	-0.012913
4.735	-0.012914
4.740	-0.013031
4.745	-0.013148
4.750	-0.013313
4.755	-0.013360
4.760	-0.013401
4.765	-0.013476
4.770	-0.013576
4.775	-0.013684
4.780	-0.013791
4.785	-0.013863
4.790	-0.013919
4.795	-0.014008
4.800	-0.014049
4.805	-0.014068
4.810	-0.014190
4.815	-0.014252
4.820	-0.014301
4.825	-0.014354
4.830	-0.014441
4.835	-0.014574
4.840	-0.014766
4.845	-0.014858
4.850	-0.014956
4.855	-0.014997
4.860	-0.015125
4.865	-0.015123
4.870	-0.015164
4.875	-0.015185
4.880	-0.015201
4.885	-0.015317
4.890	-0.015379
4.895	-0.015412
4.900	-0.015496
4.905	-0.015569
4.910	-0.015730
4.915	-0.015855
4.920	-0.015930
4.925	-0.016031
4.930	-0.016064
4.935	-0.016159
4.940	-0.016276
4.945	-0.016333
4.950	-0.016447
4.955	-0.016629
4.960	-0.016828
4.965	-0.016993
4.970	-0.017138
4.975	-0.017294
4.980	-0.017456
4.985	-0.017644
4.990	-0.017809
4.995	-0.017982
5.000	-0.018126
5.005	-0.018220
5.010	-0.018341
5.015	-0.018455
5.020	-0.018634
5.025	-0.018808
5.030	-0.018989
5.035	-0.019124
5.040	-0.019275
5.045	-0.019468
5.050	-0.019667
5.055	-0.019908
5.060	-0.020058
5.065	-0.020314
5.070	-0.020553
5.075	-0.020756
5.080	-0.020916
5.085	-0.021080
5.090	-0.021308
5.095	-0.021487
5.100	-0.021622
5.105	-0.021731
5.110	-0.021836
5.115	-0.022068
5.120	-0.022399
5.125	-0.022692
5.130	-0.022933
5.135	-0.023264
5.140	-0.023487
5.145	-0.023766
5.150	-0.024039
5.155	-0.024310
5.160	-0.024668
5.165	-0.025022
5.170	-0.025325
5.175	-0.025666
5.180	-0.026069
5.185	-0.026533
5.190	-0.026986
5.195	-0.027460
5.200	-0.027920
5.205	-0.028373
5.210	-0.028843
5.215	-0.029377
5.220	-0.029967
5.225	-0.030580
5.230	-0.031196
5.235	-0.031799
5.240	-0.032371
5.245	-0.032971
5.250	-0.033690
5.255	-0.034469
5.260	-0.035254
5.265	-0.036165
5.270	-0.037139
5.275	-0.038155
5.280	-0.039248
5.285	-0.040481
5.290	-0.041865
5.295	-0.043480
5.300	-0.045231
5.305	-0.047283
5.310	-0.049499
5.315	-0.052000
5.320	-0.054576
5.325	-0.057280
5.330	-0.059612
5.335	-0.061803
5.340	-0.063284
5.345	-0.064208
5.350	-0.064992
5.355	-0.064705
5.360	-0.063643
5.365	-0.062254
5.370	-0.059454
5.375	-0.055067
5.380	-0.050284
5.385	-0.045385
5.390	-0.039271
5.395	-0.031037
5.400	-0.021826
5.405	-0.013426
5.410	-0.007216
5.415	-0.003150
5.420	-0.000805
5.425	0.000390
5.430	0.000953
5.435	0.001160
5.440	0.001256
5.445	0.001311
5.450	0.001330
5.455	0.001385
5.460	0.001351
5.465	0.001358
5.470	0.001331
5.475	0.001331
5.480	0.001352
5.485	0.001331
5.490	0.001338
5.495	0.001310
5.500	0.001338
5.505	0.001318
5.510	0.001325
5.515	0.001297
5.520	0.001304
5.525	0.001297
5.530	0.001277
5.535	0.001303
5.540	0.001290
5.545	0.001317
5.550	0.001283
5.555	0.001310
5.560	0.001297
5.565	0.001290
5.570	0.001305
5.575	0.001291
5.580	0.001277
5.585	0.001283
5.590	0.001262
5.595	0.001276
5.600	0.001276
5.605	0.001290
5.610	0.001283
5.615	0.001311
5.620	0.001345
5.625	0.001386
5.630	0.001386
5.635	0.001482
5.640	0.001538
5.645	0.001593
5.650	0.001681
5.655	0.001798
5.660	0.001915
5.665	0.002065
5.670	0.002190
5.675	0.002328
5.680	0.002431
5.685	0.002514
5.690	0.002638
5.695	0.002715
5.700	0.002766
5.705	0.002796
5.710	0.002805
5.715	0.002764
5.720	0.002738
5.725	0.002664
5.730	0.002609
5.735	0.002471
5.740	0.002395
5.745	0.002264
5.750	0.002161
5.755	0.002030
5.760	0.001928
5.765	0.001846
5.770	0.001765
5.775	0.001698
5.780	0.001642
5.785	0.001620
5.790	0.001557
5.795	0.001541
5.800	0.001519
5.805	0.001505
5.810	0.001524
5.815	0.001496
5.820	0.001509
5.825	0.001481
5.830	0.001466
5.835	0.001480
5.840	0.001473
5.845	0.001485
5.850	0.001470
5.855	0.001455
5.860	0.001483
5.865	0.001483
5.870	0.001462
5.875	0.001504
5.880	0.001497
5.885	0.001524
5.890	0.001530
5.895	0.001523
5.900	0.001523
5.905	0.001524
5.910	0.001524
5.915	0.001564
5.920	0.001585
5.925	0.001584
5.930	0.001584
5.935	0.001626
5.940	0.001619
5.945	0.001591
5.950	0.001612
5.955	0.001619
5.960	0.001660
5.965	0.001633
5.970	0.001620
5.975	0.001655
5.980	0.001641
5.985	0.001647
5.990	0.001654
5.995	0.001682
6.000	0.001682
6.005	0.001703
6.010	0.001676
6.015	0.001704
6.020	0.001718
6.025	0.001705
6.030	0.001718
6.035	0.001726
6.040	0.001720
6.045	0.001727
6.050	0.001719
6.055	0.001713
6.060	0.001756
6.065	0.001714
6.070	0.001770
6.075	0.001750
6.080	0.001758
6.085	0.001752
6.090	0.001732
6.095	0.001746
6.100	0.001762
6.105	0.001756
6.110	0.001778
6.115	0.001769
6.120	0.001769
6.125	0.001784
6.130	0.001769
6.135	0.001783
6.140	0.001796
6.145	0.001817
6.150	0.001810
6.155	0.001823
6.160	0.001795
6.165	0.001800
6.170	0.001808
6.175	0.001828
6.180	0.001840
6.185	0.001839
6.190	0.001832
6.195	0.001824
6.200	0.001817
6.205	0.001830
6.210	0.001823
6.215	0.001850
6.220	0.001864
6.225	0.001815
6.230	0.001842
6.235	0.001843
6.240	0.001851
6.245	0.001850
6.250	0.001856
6.255	0.001855
6.260	0.001876
6.265	0.001854
6.270	0.001875
6.275	0.001868
6.280	0.001869
6.285	0.001869
6.290	0.001882
6.295	0.001882
6.300	0.001889
6.305	0.001842
6.310	0.001862
6.315	0.001895
6.320	0.001868
6.325	0.001881
6.330	0.001888
6.335	0.001908
6.340	0.001874
6.345	0.001915
6.350	0.001908
6.355	0.001915
6.360	0.001922
6.365	0.001908
6.370	0.001889
6.375	0.001944
6.380	0.001929
6.385	0.001915
6.390	0.001929
6.395	0.001915
6.400	0.001888
6.405	0.001943
6.410	0.001943
6.415	0.001944
6.420	0.001964
6.425	0.001957
6.430	0.001978
6.435	0.001944
6.440	0.001959
6.445	0.001964
6.450	0.001943
6.455	0.001970
6.460	0.001963
6.465	0.001991
6.470	0.001964
6.475	0.002032
6.480	0.002019
6.485	0.002019
6.490	0.001998
6.495	0.002005
6.500	0.001999
6.505	0.002040
6.510	0.001999
6.515	0.002012
6.520	0.002033
6.525	0.002025
6.530	0.002039
6.535	0.002039
6.540	0.002018
6.545	0.002046
6.550	0.002033
6.555	0.001991
6.560	0.002018
6.565	0.002032
6.570	0.002054
6.575	0.002069
6.580	0.002033
6.585	0.002032
6.590	0.002052
6.595	0.002024
6.600	0.002039
6.605	0.002053
6.610	0.002038
6.615	0.002065
6.620	0.002065
6.625	0.002050
6.630	0.002092
6.635	0.002045
6.640	0.002066
6.645	0.002078
6.650	0.002057
6.655	0.002069
6.660	0.002104
6.665	0.002076
6.670	0.002104
6.675	0.002111
6.680	0.002104
6.685	0.002117
6.690	0.002151
6.695	0.002102
6.700	0.002124
6.705	0.002125
6.710	0.002158
6.715	0.002163
6.720	0.002128
6.725	0.002168
6.730	0.002175
6.735	0.002168
6.740	0.002201
6.745	0.002215
6.750	0.002201
6.755	0.002221
6.760	0.002234
6.765	0.002214
6.770	0.002235
6.775	0.002256
6.780	0.002234
6.785	0.002261
6.790	0.002254
6.795	0.002234
6.800	0.002234
6.805	0.002248
6.810	0.002227
6.815	0.002233
6.820	0.002186
6.825	0.002192
6.830	0.002192
6.835	0.002234
6.840	0.002201
6.845	0.002207
6.850	0.002172
6.855	0.002199
6.860	0.002206
6.865	0.002192
6.870	0.002193
6.875	0.002207
6.880	0.002187
6.885	0.002200
6.890	0.002207
6.895	0.002213
6.900	0.002193
6.905	0.002194
6.910	0.002207
6.915	0.002198
6.920	0.002191
6.925	0.002225
6.930	0.002211
6.935	0.002252
6.940	0.002198
6.945	0.002225
6.950	0.002225
6.955	0.002238
6.960	0.002217
6.965	0.002251
6.970	0.002232
6.975	0.002225
6.980	0.002265
6.985	0.002238
6.990	0.002285
6.995	0.002279
7.000	0.002264
7.005	0.002278
7.010	0.002278
7.015	0.002279
7.020	0.002292
7.025	0.002313
7.030	0.002292
7.035	0.002273
7.040	0.002274
7.045	0.002313
7.050	0.002320
7.055	0.002299
7.060	0.002320
7.065	0.002306
7.070	0.002321
7.075	0.002341
7.080	0.002314
7.085	0.002354
7.090	0.002340
7.095	0.002340
7.100	0.002348
7.105	0.002315
7.110	0.002349
7.115	0.002362
7.120	0.002341
7.125	0.002348
7.130	0.002354
7.135	0.002389
7.140	0.002356
7.145	0.002390
7.150	0.002349
7.155	0.002363
7.160	0.002377
7.165	0.002426
7.170	0.002386
7.175	0.002427
7.180	0.002405
7.185	0.002405
7.190	0.002405
7.195	0.002446
7.200	0.002432
7.205	0.002481
7.210	0.002460
7.215	0.002494
7.220	0.002487
7.225	0.002501
7.230	0.002555
7.235	0.002529
7.240	0.002503
7.245	0.002550
7.250	0.002542
7.255	0.002556
7.260	0.002570
7.265	0.002597
7.270	0.002577
7.275	0.002577
7.280	0.002578
7.285	0.002571
7.290	0.002579
7.295	0.002572
7.300	0.002587
7.305	0.002561
7.310	0.002567
7.315	0.002553
7.320	0.002560
7.325	0.002567
7.330	0.002561
7.335	0.002567
7.340	0.002540
7.345	0.002581
7.350	0.002594
7.355	0.002573
7.360	0.002629
7.365	0.002622
7.370	0.002630
7.375	0.002624
7.380	0.002636
7.385	0.002664
7.390	0.002650
7.395	0.002664
7.400	0.002678
7.405	0.002671
7.410	0.002680
7.415	0.002701
7.420	0.002695
7.425	0.002688
7.430	0.002724
7.435	0.002712
7.440	0.002672
7.445	0.002700
7.450	0.002707
7.455	0.002701
7.460	0.002723
7.465	0.002724
7.470	0.002725
7.475	0.002774
7.480	0.002755
7.485	0.002743
7.490	0.002792
7.495	0.002772
7.500	0.002781
7.505	0.002811
7.510	0.002811
7.515	0.002846
7.520	0.002839
7.525	0.002860
7.530	0.002883
7.535	0.002891
7.540	0.002912
7.545	0.002934
7.550	0.002935
7.555	0.002950
7.560	0.002972
7.565	0.002988
7.570	0.002997
7.575	0.002983
7.580	0.002982
7.585	0.002988
7.590	0.002995
7.595	0.002980
7.600	0.002959
7.605	0.003006
7.610	0.003006
7.615	0.002978
7.620	0.002997
7.625	0.003003
7.630	0.002996
7.635	0.002989
7.640	0.003022
7.645	0.002998
7.650	0.003016
7.655	0.002994
7.660	0.003034
7.665	0.003046
7.670	0.003052
7.675	0.003044
7.680	0.003083
7.685	0.003074
7.690	0.003081
7.695	0.003058
7.700	0.003092
7.705	0.003085
7.710	0.003097
7.715	0.003122
7.720	0.003121
7.725	0.003107
7.730	0.003148
7.735	0.003133
7.740	0.003167
7.745	0.003167
7.750	0.003166
7.755	0.003152
7.760	0.003178
7.765	0.003158
7.770	0.003207
7.775	0.003213
7.780	0.003204
7.785	0.003223
7.790	0.003257
7.795	0.003237
7.800	0.003258
7.805	0.003257
7.810	0.003271
7.815	0.003271
7.820	0.003264
7.825	0.003284
7.830	0.003306
7.835	0.003307
7.840	0.003307
7.845	0.003320
7.850	0.003313
7.855	0.003341
7.860	0.003336
7.865	0.003358
7.870	0.003339
7.875	0.003333
7.880	0.003369
7.885	0.003355
7.890	0.003376
7.895	0.003376
7.900	0.003390
7.905	0.003368
7.910	0.003365
7.915	0.003380
7.920	0.003433
7.925	0.003446
7.930	0.003480
7.935	0.003480
7.940	0.003486
7.945	0.003534
7.950	0.003506
7.955	0.003533
7.960	0.003547
7.965	0.003569
7.970	0.003556
7.975	0.003549
7.980	0.003601
7.985	0.003587
7.990	0.003588
7.995	0.003614
8.000	0.003621
8.005	0.003669
8.010	0.003635
8.015	0.003628
8.020	0.003676
8.025	0.003655
8.030	0.003690
8.035	0.003678
8.040	0.003659
8.045	0.003747
8.050	0.003760
8.055	0.003705
8.060	0.003747
8.065	0.003768
8.070	0.003756
8.075	0.003750
8.080	0.003798
8.085	0.003811
8.090	0.003796
8.095	0.003843
8.100	0.003837
8.105	0.003893
8.110	0.003871
8.115	0.003890
8.120	0.003924
8.125	0.003924
8.130	0.003883
8.135	0.003937
8.140	0.003943
8.145	0.003964
8.150	0.004005
8.155	0.003998
8.160	0.003971
8.165	0.003999
8.170	0.004021
8.175	0.004055
8.180	0.004067
8.185	0.004094
8.190	0.004094
8.195	0.004102
8.200	0.004122
8.205	0.004171
8.210	0.004172
8.215	0.004185
8.220	0.004193
8.225	0.004234
8.230	0.004194
8.235	0.004216
8.240	0.004258
8.245	0.004277
8.250	0.004277
8.255	0.004297
8.260	0.004353
8.265	0.004353
8.270	0.004346
8.275	0.004401
8.280	0.004408
8.285	0.004402
8.290	0.004429
8.295	0.004435
8.300	0.004465
8.305	0.004465
8.310	0.004465
8.315	0.004485
8.320	0.004527
8.325	0.004540
8.330	0.004527
8.335	0.004575
8.340	0.004596
8.345	0.004616
8.350	0.004624
8.355	0.004623
8.360	0.004644
8.365	0.004672
8.370	0.004702
8.375	0.004701
8.380	0.004706
8.385	0.004761
8.390	0.004747
8.395	0.004802
8.400	0.004802
8.405	0.004824
8.410	0.004837
8.415	0.004872
8.420	0.004864
8.425	0.004863
8.430	0.004925
8.435	0.004914
8.440	0.004935
8.445	0.004960
8.450	0.004967
8.455	0.005001
8.460	0.004987
8.465	0.005034
8.470	0.005062
8.475	0.005109
8.480	0.005109
8.485	0.005101
8.490	0.005163
8.495	0.005142
8.500	0.005186
8.505	0.005201
8.510	0.005206
8.515	0.005239
8.520	0.005225
8.525	0.005307
8.530	0.005300
8.535	0.005347
8.540	0.005382
8.545	0.005409
8.550	0.005451
8.555	0.005464
8.560	0.005525
8.565	0.005512
8.570	0.005526
8.575	0.005567
8.580	0.005620
8.585	0.005606
8.590	0.005695
8.595	0.005668
8.600	0.005711
8.605	0.005745
8.610	0.005766
8.615	0.005808
8.620	0.005800
8.625	0.005834
8.630	0.005896
8.635	0.005897
8.640	0.005925
8.645	0.005958
8.650	0.006027
8.655	0.006042
8.660	0.006042
8.665	0.006069
8.670	0.006104
8.675	0.006125
8.680	0.006193
8.685	0.006226
8.690	0.006214
8.695	0.006261
8.700	0.006299
8.705	0.006348
8.710	0.006359
8.715	0.006434
8.720	0.006427
8.725	0.006468
8.730	0.006508
8.735	0.006563
8.740	0.006570
8.745	0.006604
8.750	0.006633
8.755	0.006639
8.760	0.006687
8.765	0.006696
8.770	0.006781
8.775	0.006793
8.780	0.006834
8.785	0.006850
8.790	0.006929
8.795	0.006909
8.800	0.007016
8.805	0.007048
8.810	0.007088
8.815	0.007106
8.820	0.007151
8.825	0.007195
8.830	0.007245
8.835	0.007252
8.840	0.007328
8.845	0.007380
8.850	0.007427
8.855	0.007447
8.860	0.007503
8.865	0.007531
8.870	0.007573
8.875	0.007621
8.880	0.007670
8.885	0.007713
8.890	0.007768
8.895	0.007831
8.900	0.007843
8.905	0.007913
8.910	0.007937
8.915	0.008024
8.920	0.008012
8.925	0.008073
8.930	0.008134
8.935	0.008188
8.940	0.008279
8.945	0.008319
8.950	0.008368
8.955	0.008423
8.960	0.008471
8.965	0.008563
8.970	0.008591
8.975	0.008631
8.980	0.008740
8.985	0.008774
8.990	0.008823
8.995	0.008931
9.000	0.008966
9.005	0.009028
9.010	0.009125
9.015	0.009194
9.020	0.009262
9.025	0.009317
9.030	0.009395
9.035	0.009432
9.040	0.009522
9.045	0.009584
9.050	0.009654
9.055	0.009772
9.060	0.009827
9.065	0.009935
9.070	0.009999
9.075	0.010119
9.080	0.010166
9.085	0.010239
9.090	0.010341
9.095	0.010430
9.100	0.010530
9.105	0.010617
9.110	0.010724
9.115	0.010803
9.120	0.010894
9.125	0.010995
9.130	0.011113
9.135	0.011242
9.140	0.011326
9.145	0.011462
9.150	0.011552
9.155	0.011656
9.160	0.011758
9.165	0.011904
9.170	0.011985
9.175	0.012139
9.180	0.012273
9.185	0.012388
9.190	0.012529
9.195	0.012659
9.200	0.012777
9.205	0.012922
9.210	0.013044
9.215	0.013230
9.220	0.013389
9.225	0.013532
9.230	0.013699
9.235	0.013841
9.240	0.014036
9.245	0.014209
9.250	0.014396
9.255	0.014617
9.260	0.014817
9.265	0.015051
9.270	0.015269
9.275	0.015511
9.280	0.015757
9.285	0.015996
9.290	0.016266
9.295	0.016494
9.300	0.016830
9.305	0.017114
9.310	0.017428
9.315	0.017763
9.320	0.018098
9.325	0.018441
9.330	0.018790
9.335	0.019209
9.340	0.019612
9.345	0.020021
9.350	0.020486
9.355	0.020947
9.360	0.021432
9.365	0.021957
9.370	0.022559
9.375	0.023158
9.380	0.023837
9.385	0.024618
9.390	0.025466
9.395	0.026493
9.400	0.027686
9.405	0.029159
9.410	0.030790
9.415	0.032816
9.420	0.035018
9.425	0.037331
9.430	0.039748
9.435	0.041892
9.440	0.043827
9.445	0.045564
9.450	0.046765
9.455	0.047577
9.460	0.048098
9.465	0.047742
9.470	0.046415
9.475	0.044413
9.480	0.041772
9.485	0.038273
9.490	0.033526
9.495	0.027315
9.500	0.020238
9.505	0.013474
9.510	0.007840
9.515	0.003732
9.520	0.001152
9.525	-0.000363
9.530	-0.001100
9.535	-0.001499
9.540	-0.001678
9.545	-0.001795
9.550	-0.001850
9.555	-0.001891
9.560	-0.001939
9.565	-0.001953
9.570	-0.001960
9.575	-0.001946
9.580	-0.001967
9.585	-0.001960
9.590	-0.001988
9.595	-0.001953
9.600	-0.001981
9.605	-0.002001
9.610	-0.001995
9.615	-0.001981
9.620	-0.002022
9.625	-0.002002
9.630	-0.002015
9.635	-0.002008
9.640	-0.002009
9.645	-0.002043
9.650	-0.002029
9.655	-0.002029
9.660	-0.002022
9.665	-0.002036
9.670	-0.002043
9.675	-0.002036
9.680	-0.002029
9.685	-0.002009
9.690	-0.002029
9.695	-0.002016
9.700	-0.002036
9.705	-0.002036
9.710	-0.002071
9.715	-0.002071
9.720	-0.002044
9.725	-0.002024
9.730	-0.002065
9.735	-0.002072
9.740	-0.002031
9.745	-0.002058
9.750	-0.002045
9.755	-0.002058
9.760	-0.002086
9.765	-0.002058
9.770	-0.002065
9.775	-0.002059
9.780	-0.002059
9.785	-0.002059
9.790	-0.002072
9.795	-0.002065
9.800	-0.002052
9.805	-0.002086
9.810	-0.002059
9.815	-0.002066
9.820	-0.002086
9.825	-0.002066
9.830	-0.002045
9.835	-0.002066
9.840	-0.002073
9.845	-0.002066
9.850	-0.002066
9.855	-0.002080
9.860	-0.002093
9.865	-0.002080
9.870	-0.002073
9.875	-0.002066
9.880	-0.002094
9.885	-0.002100
9.890	-0.002066
9.895	-0.002080
9.900	-0.002066
9.905	-0.002114
9.910	-0.002073
9.915	-0.002115
9.920	-0.002094
9.925	-0.002094
9.930	-0.002108
9.935	-0.002115
9.940	-0.002094
9.945	-0.002115
9.950	-0.002122
9.955	-0.002129
9.960	-0.002087
9.965	-0.002108
9.970	-0.002067
9.975	-0.002101
9.980	-0.002080
9.985	-0.002122
9.990	-0.002108
9.995	-0.002087
10.000	-0.002081
10.005	-0.002108
10.010	-0.002136
10.015	-0.002095
10.020	-0.002088
10.025	-0.002115
10.030	-0.002095
10.035	-0.002129
10.040	-0.002122
10.045	-0.002115
10.050	-0.002088
10.055	-0.002129
10.060	-0.002129
10.065	-0.002122
10.070	-0.002116
10.075	-0.002109
10.080	-0.002123
10.085	-0.002123
10.090	-0.002109
10.095	-0.002157
10.100	-0.002109
10.105	-0.002130
10.110	-0.002123
10.115	-0.002130
10.120	-0.002150
10.125	-0.002178
10.130	-0.002109
10.135	-0.002157
10.140	-0.002151
10.145	-0.002137
10.150	-0.002157
10.155	-0.002151
10.160	-0.002130
10.165	-0.002137
10.170	-0.002144
10.175	-0.002123
10.180	-0.002137
10.185	-0.002151
10.190	-0.002144
10.195	-0.002171
10.200	-0.002192
10.205	-0.002165
10.210	-0.002185
10.215	-0.002137
10.220	-0.002165
10.225	-0.002172
10.230	-0.002179
10.235	-0.002158
10.240	-0.002158
10.245	-0.002172
10.250	-0.002172
10.255	-0.002172
10.260	-0.002179
10.265	-0.002179
10.270	-0.002172
10.275	-0.002199
10.280	-0.002172
10.285	-0.002213
10.290	-0.002199
10.295	-0.002179
10.300	-0.002206
10.305	-0.002192
10.310	-0.002213
10.315	-0.002227
10.320	-0.002172
10.325	-0.002186
10.330	-0.002193
10.335	-0.002248
10.340	-0.002241
10.345	-0.002220
10.350	-0.002220
10.355	-0.002234
10.360	-0.002213
10.365	-0.002220
10.370	-0.002234
10.375	-0.002206
10.380	-0.002268
10.385	-0.002248
10.390	-0.002248
10.395	-0.002220
10.400	-0.002241
10.405	-0.002241
10.410	-0.002227
10.415	-0.002227
10.420	-0.002227
10.425	-0.002248
10.430	-0.002248
10.435	-0.002248
10.440	-0.002234
10.445	-0.002276
10.450	-0.002255
10.455	-0.002269
10.460	-0.002248
10.465	-0.002276
10.470	-0.002296
10.475	-0.002283
10.480	-0.002276
10.485	-0.002317
10.490	-0.002303
10.495	-0.002303
10.500	-0.002234
10.505	-0.002276
10.510	-0.002269
10.515	-0.002283
10.520	-0.002276
10.525	-0.002276
10.530	-0.002269
10.535	-0.002317
10.540	-0.002290
10.545	-0.002297
10.550	-0.002303
10.555	-0.002303
10.560	-0.002317
10.565	-0.002297
10.570	-0.002310
10.575	-0.002297
10.580	-0.002338
10.585	-0.002338
10.590	-0.002352
10.595	-0.002303
10.600	-0.002324
10.605	-0.002297
10.610	-0.002318
10.615	-0.002359
10.620	-0.002324
10.625	-0.002331
10.630	-0.002324
10.635	-0.002338
10.640	-0.002331
10.645	-0.002359
10.650	-0.002324
10.655	-0.002324
10.660	-0.002359
10.665	-0.002338
10.670	-0.002352
10.675	-0.002352
10.680	-0.002380
10.685	-0.002345
10.690	-0.002373
10.695	-0.002352
10.700	-0.002352
10.705	-0.002359
10.710	-0.002352
10.715	-0.002359
10.720	-0.002339
10.725	-0.002394
10.730	-0.002366
10.735	-0.002366
10.740	-0.002366
10.745	-0.002366
10.750	-0.002373
10.755	-0.002407
10.760	-0.002373
10.765	-0.002366
10.770	-0.002394
10.775	-0.002387
10.780	-0.002373
10.785	-0.002394
10.790	-0.002373
10.795	-0.002373
10.800	-0.002394
10.805	-0.002401
10.810	-0.002408
10.815	-0.002401
10.820	-0.002428
10.825	-0.002394
10.830	-0.002435
10.835	-0.002435
10.840	-0.002429
10.845	-0.002408
10.850	-0.002401
10.855	-0.002394
10.860	-0.002401
10.865	-0.002435
10.870	-0.002443
10.875	-0.002450
10.880	-0.002443
10.885	-0.002449
10.890	-0.002436
10.895	-0.002422
10.900	-0.002456
10.905	-0.002450
10.910	-0.002456
10.915	-0.002443
10.920	-0.002457
10.925	-0.002450
10.930	-0.002436
10.935	-0.002478
10.940	-0.002471
10.945	-0.002443
10.950	-0.002443
10.955	-0.002464
10.960	-0.002464
10.965	-0.002471
10.970	-0.002478
10.975	-0.002464
10.980	-0.002443
10.985	-0.002464
10.990	-0.002457
10.995	-0.002450
11.000	-0.002485
11.005	-0.002485
11.010	-0.002485
11.015	-0.002499
11.020	-0.002492
11.025	-0.002492
11.030	-0.002478
11.035	-0.002492
11.040	-0.002505
11.045	-0.002478
11.050	-0.002485
11.055	-0.002457
11.060	-0.002513
11.065	-0.002513
11.070	-0.002499
11.075	-0.002485
11.080	-0.002513
11.085	-0.002554
11.090	-0.002478
11.095	-0.002527
11.100	-0.002527
11.105	-0.002486
11.110	-0.002541
11.115	-0.002499
11.120	-0.002520
11.125	-0.002513
11.130	-0.002527
11.135	-0.002513
11.140	-0.002534
11.145	-0.002500
11.150	-0.002534
11.155	-0.002541
11.160	-0.002534
11.165	-0.002541
11.170	-0.002541
11.175	-0.002527
11.180	-0.002541
11.185	-0.002569
11.190	-0.002521
11.195	-0.002521
11.200	-0.002528
11.205	-0.002556
11.210	-0.002556
11.215	-0.002555
11.220	-0.002569
11.225	-0.002541
11.230	-0.002535
11.235	-0.002576
11.240	-0.002535
11.245	-0.002583
11.250	-0.002528
11.255	-0.002583
11.260	-0.002549
11.265	-0.002535
11.270	-0.002576
11.275	-0.002528
11.280	-0.002569
11.285	-0.002576
11.290	-0.002597
11.295	-0.002556
11.300	-0.002549
11.305	-0.002549
11.310	-0.002535
11.315	-0.002583
11.320	-0.002528
11.325	-0.002583
11.330	-0.002590
11.335	-0.002604
11.340	-0.002563
11.345	-0.002590
11.350	-0.002611
11.355	-0.002590
11.360	-0.002611
11.365	-0.002584
11.370	-0.002604
11.375	-0.002611
11.380	-0.002597
11.385	-0.002590
11.390	-0.002570
11.395	-0.002584
11.400	-0.002632
11.405	-0.002611
11.410	-0.002611
11.415	-0.002632
11.420	-0.002632
11.425	-0.002597
11.430	-0.002611
11.435	-0.002625
11.440	-0.002653
11.445	-0.002618
11.450	-0.002597
11.455	-0.002632
11.460	-0.002639
11.465	-0.002625
11.470	-0.002646
11.475	-0.002626
11.480	-0.002660
11.485	-0.002618
11.490	-0.002605
11.495	-0.002611
11.500	-0.002639
11.505	-0.002639
11.510	-0.002632
11.515	-0.002632
11.520	-0.002618
11.525	-0.002646
11.530	-0.002646
11.535	-0.002653
11.540	-0.002653
11.545	-0.002660
11.550	-0.002667
11.555	-0.002667
11.560	-0.002653
11.565	-0.002653
11.570	-0.002667
11.575	-0.002660
11.580	-0.002667
11.585	-0.002667
11.590	-0.002667
11.595	-0.002667
11.600	-0.002681
11.605	-0.002674
11.610	-0.002674
11.615	-0.002688
11.620	-0.002695
11.625	-0.002695
11.630	-0.002674
11.635	-0.002681
11.640	-0.002660
11.645	-0.002702
11.650	-0.002688
11.655	-0.002667
11.660	-0.002702
11.665	-0.002702
11.670	-0.002709
11.675	-0.002675
11.680	-0.002702
11.685	-0.002723
11.690	-0.002688
11.695	-0.002702
11.700	-0.002681
11.705	-0.002688
11.710	-0.002702
11.715	-0.002730
11.720	-0.002716
11.725	-0.002695
11.730	-0.002702
11.735	-0.002723
11.740	-0.002737
11.745	-0.002716
11.750	-0.002716
11.755	-0.002723
11.760	-0.002730
11.765	-0.002730
11.770	-0.002716
11.775	-0.002717
11.780	-0.002744
11.785	-0.002723
11.790	-0.002710
11.795	-0.002723
11.800	-0.002723
11.805	-0.002737
11.810	-0.002710
11.815	-0.002758
11.820	-0.002737
11.825	-0.002744
11.830	-0.002758
11.835	-0.002731
11.840	-0.002717
11.845	-0.002738
11.850	-0.002758
11.855	-0.002717
11.860	-0.002731
11.865	-0.002765
11.870	-0.002745
11.875	-0.002731
11.880	-0.002765
11.885	-0.002779
11.890	-0.002738
11.895	-0.002738
11.900	-0.002765
11.905	-0.002759
11.910	-0.002738
11.915	-0.002759
11.920	-0.002752
11.925	-0.002759
11.930	-0.002800
11.935	-0.002766
11.940	-0.002780
11.945	-0.002787
11.950	-0.002752
11.955	-0.002766
11.960	-0.002738
11.965	-0.002780
11.970	-0.002773
11.975	-0.002780
11.980	-0.002759
11.985	-0.002766
11.990	-0.002773
11.995	-0.002780
12.000	-0.002773
12.005	-0.002773
12.010	-0.002801
12.015	-0.002780
12.020	-0.002801
12.025	-0.002780
12.030	-0.002794
12.035	-0.002794
12.040	-0.002739
12.045	-0.002780
12.050	-0.002773
12.055	-0.002787
12.060	-0.002801
12.065	-0.002787
12.070	-0.002801
12.075	-0.002801
12.080	-0.002808
12.085	-0.002794
12.090	-0.002808
12.095	-0.002808
12.100	-0.002815
12.105	-0.002808
12.110	-0.002787
12.115	-0.002808
12.120	-0.002815
12.125	-0.002822
12.130	-0.002822
12.135	-0.002801
12.140	-0.002815
12.145	-0.002822
12.150	-0.002829
12.155	-0.002822
12.160	-0.002836
12.165	-0.002815
12.170	-0.002822
12.175	-0.002808
12.180	-0.002829
12.185	-0.002808
12.190	-0.002850
12.195	-0.002836
12.200	-0.002863
12.205	-0.002829
12.210	-0.002822
12.215	-0.002836
12.220	-0.002856
12.225	-0.002849
12.230	-0.002843
12.235	-0.002836
12.240	-0.002870
12.245	-0.002850
12.250	-0.002850
12.255	-0.002829
12.260	-0.002829
12.265	-0.002843
12.270	-0.002864
12.275	-0.002864
12.280	-0.002877
12.285	-0.002815
12.290	-0.002863
12.295	-0.002856
12.300	-0.002870
12.305	-0.002870
12.310	-0.002877
12.315	-0.002877
12.320	-0.002877
12.325	-0.002856
12.330	-0.002870
12.335	-0.002877
12.340	-0.002850
12.345	-0.002856
12.350	-0.002863
12.355	-0.002918
12.360	-0.002870
12.365	-0.002884
12.370	-0.002911
12.375	-0.002898
12.380	-0.002904
12.385	-0.002904
12.390	-0.002884
12.395	-0.002904
12.400	-0.002891
12.405	-0.002884
12.410	-0.002891
12.415	-0.002946
12.420	-0.002925
12.425	-0.002911
12.430	-0.002918
12.435	-0.002904
12.440	-0.002898
12.445	-0.002884
12.450	-0.002918
12.455	-0.002925
12.460	-0.002891
12.465	-0.002918
12.470	-0.002912
12.475	-0.002960
12.480	-0.002890
12.485	-0.002946
12.490	-0.002959
12.495	-0.002952
12.500	-0.002939
12.505	-0.002939
12.510	-0.002925
12.515	-0.002932
12.520	-0.002918
12.525	-0.002952
12.530	-0.002939
12.535	-0.002918
12.540	-0.002939
12.545	-0.002966
12.550	-0.002952
12.555	-0.002987
12.560	-0.002938
12.565	-0.002952
12.570	-0.002945
12.575	-0.002994
12.580	-0.002959
12.585	-0.002980
12.590	-0.002966
12.595	-0.002980
12.600	-0.002959
12.605	-0.002960
12.610	-0.003001
12.615	-0.002973
12.620	-0.003021
12.625	-0.003000
12.630	-0.002994
12.635	-0.002980
12.640	-0.003014
12.645	-0.003001
12.650	-0.003007
12.655	-0.002987
12.660	-0.003021
12.665	-0.003008
12.670	-0.003015
12.675	-0.003001
12.680	-0.002980
12.685	-0.003028
12.690	-0.003035
12.695	-0.002994
12.700	-0.003021
12.705	-0.003014
12.710	-0.003042
12.715	-0.003035
12.720	-0.003007
12.725	-0.003014
12.730	-0.003042
12.735	-0.003035
12.740	-0.003021
12.745	-0.003042
12.750	-0.003103
12.755	-0.003076
12.760	-0.003041
12.765	-0.003042
12.770	-0.003069
12.775	-0.003021
12.780	-0.003062
12.785	-0.003069
12.790	-0.003069
12.795	-0.003083
12.800	-0.003042
12.805	-0.003077
12.810	-0.003076
12.815	-0.003048
12.820	-0.003083
12.825	-0.003096
12.830	-0.003083
12.835	-0.003097
12.840	-0.003083
12.845	-0.003083
12.850	-0.003062
12.855	-0.003069
12.860	-0.003069
12.865	-0.003117
12.870	-0.003090
12.875	-0.003104
12.880	-0.003145
12.885	-0.003097
12.890	-0.003117
12.895	-0.003131
12.900	-0.003097
12.905	-0.003110
12.910	-0.003145
12.915	-0.003117
12.920	-0.003131
12.925	-0.003117
12.930	-0.003111
12.935	-0.003111
12.940	-0.003145
12.945	-0.003131
12.950	-0.003138
12.955	-0.003117
12.960	-0.003145
12.965	-0.003152
12.970	-0.003193
12.975	-0.003165
12.980	-0.003145
12.985	-0.003124
12.990	-0.003145
12.995	-0.003172
13.000	-0.003159
13.005	-0.003159
13.010	-0.003173
13.015	-0.003159
13.020	-0.003165
13.025	-0.003158
13.030	-0.003186
13.035	-0.003179
13.040	-0.003172
13.045	-0.003172
13.050	-0.003179
13.055	-0.003186
13.060	-0.003172
13.065	-0.003221
13.070	-0.003159
13.075	-0.003201
13.080	-0.003214
13.085	-0.003186
13.090	-0.003186
13.095	-0.003207
13.100	-0.003200
13.105	-0.003187
13.110	-0.003228
13.115	-0.003187
13.120	-0.003200
13.125	-0.003193
13.130	-0.003207
13.135	-0.003228
13.140	-0.003180
13.145	-0.003207
13.150	-0.003207
13.155	-0.003221
13.160	-0.003235
13.165	-0.003228
13.170	-0.003221
13.175	-0.003221
13.180	-0.003228
13.185	-0.003256
13.190	-0.003262
13.195	-0.003249
13.200	-0.003249
13.205	-0.003256
13.210	-0.003249
13.215	-0.003242
13.220	-0.003263
13.225	-0.003256
13.230	-0.003243
13.235	-0.003236
13.240	-0.003250
13.245	-0.003236
13.250	-0.003243
13.255	-0.003249
13.260	-0.003284
13.265	-0.003264
13.270	-0.003264
13.275	-0.003271
13.280	-0.003284
13.285	-0.003277
13.290	-0.003264
13.295	-0.003284
13.300	-0.003284
13.305	-0.003278
13.310	-0.003285
13.315	-0.003278
13.320	-0.003292
13.325	-0.003306
13.330	-0.003292
13.335	-0.003299
13.340	-0.003272
13.345	-0.003299
13.350	-0.003292
13.355	-0.003313
13.360	-0.003313
13.365	-0.003299
13.370	-0.003320
13.375	-0.003300
13.380	-0.003306
13.385	-0.003327
13.390	-0.003341
13.395	-0.003306
13.400	-0.003327
13.405	-0.003355
13.410	-0.003321
13.415	-0.003313
13.420	-0.003320
13.425	-0.003306
13.430	-0.003327
13.435	-0.003348
13.440	-0.003341
13.445	-0.003321
13.450	-0.003348
13.455	-0.003348
13.460	-0.003369
13.465	-0.003362
13.470	-0.003376
13.475	-0.003349
13.480	-0.003348
13.485	-0.003376
13.490	-0.003376
13.495	-0.003390
13.500	-0.003369
13.505	-0.003397
13.510	-0.003362
13.515	-0.003376
13.520	-0.003410
13.525	-0.003349
13.530	-0.003390
13.535	-0.003390
13.540	-0.003356
13.545	-0.003390
13.550	-0.003417
13.555	-0.003383
13.560	-0.003390
13.565	-0.003390
13.570	-0.003397
13.575	-0.003404
13.580	-0.003438
13.585	-0.003397
13.590	-0.003411
13.595	-0.003418
13.600	-0.003411
13.605	-0.003411
13.610	-0.003397
13.615	-0.003432
13.620	-0.003425
13.625	-0.003431
13.630	-0.003452
13.635	-0.003459
13.640	-0.003452
13.645	-0.003418
13.650	-0.003445
13.655	-0.003425
13.660	-0.003438
13.665	-0.003452
13.670	-0.003446
13.675	-0.003459
13.680	-0.003452
13.685	-0.003479
13.690	-0.003445
13.695	-0.003466
13.700	-0.003479
13.705	-0.003466
13.710	-0.003493
13.715	-0.003452
13.720	-0.003472
13.725	-0.003493
13.730	-0.003493
13.735	-0.003487
13.740	-0.003473
13.745	-0.003493
13.750	-0.003500
13.755	-0.003493
13.760	-0.003486
13.765	-0.003493
13.770	-0.003479
13.775	-0.003493
13.780	-0.003521
13.785	-0.003486
13.790	-0.003520
13.795	-0.003527
13.800	-0.003500
13.805	-0.003521
13.810	-0.003520
13.815	-0.003520
13.820	-0.003534
13.825	-0.003534
13.830	-0.003541
13.835	-0.003555
13.840	-0.003527
13.845	-0.003520
13.850	-0.003555
13.855	-0.003520
13.860	-0.003548
13.865	-0.003548
13.870	-0.003569
13.875	-0.003541
13.880	-0.003548
13.885	-0.003589
13.890	-0.003541
13.895	-0.003568
13.900	-0.003548
13.905	-0.003541
13.910	-0.003548
13.915	-0.003582
13.920	-0.003554
13.925	-0.003561
13.930	-0.003575
13.935	-0.003596
13.940	-0.003583
13.945	-0.003609
13.950	-0.003582
13.955	-0.003589
13.960	-0.003575
13.965	-0.003582
13.970	-0.003582
13.975	-0.003548
13.980	-0.003596
13.985	-0.003617
13.990	-0.003589
13.995	-0.003582
14.000	-0.003603
14.005	-0.003611
14.010	-0.003624
14.015	-0.003624
14.020	-0.003589
14.025	-0.003617
14.030	-0.003603
14.035	-0.003596
14.040	-0.003610
14.045	-0.003624
14.050	-0.003617
14.055	-0.003637
14.060	-0.003610
14.065	-0.003617
14.070	-0.003645
14.075	-0.003638
14.080	-0.003617
14.085	-0.003637
14.090	-0.003631
14.095	-0.003631
14.100	-0.003651
14.105	-0.003637
14.110	-0.003631
14.115	-0.003658
14.120	-0.003672
14.125	-0.003645
14.130	-0.003672
14.135	-0.003632
14.140	-0.003659
14.145	-0.003686
14.150	-0.003679
14.155	-0.003624
14.160	-0.003693
14.165	-0.003686
14.170	-0.003700
14.175	-0.003659
14.180	-0.003665
14.185	-0.003707
14.190	-0.003665
14.195	-0.003693
14.200	-0.003721
14.205	-0.003687
14.210	-0.003707
14.215	-0.003686
14.220	-0.003707
14.225	-0.003707
14.230	-0.003693
14.235	-0.003700
14.240	-0.003707
14.245	-0.003714
14.250	-0.003720
14.255	-0.003741
14.260	-0.003734
14.265	-0.003714
14.270	-0.003735
14.275	-0.003728
14.280	-0.003741
14.285	-0.003707
14.290	-0.003735
14.295	-0.003721
14.300	-0.003749
14.305	-0.003728
14.310	-0.003721
14.315	-0.003728
14.320	-0.003762
14.325	-0.003762
14.330	-0.003742
14.335	-0.003777
14.340	-0.003784
14.345	-0.003762
14.350	-0.003769
14.355	-0.003762
14.360	-0.003776
14.365	-0.003769
14.370	-0.003783
14.375	-0.003763
14.380	-0.003769
14.385	-0.003790
14.390	-0.003797
14.395	-0.003777
14.400	-0.003812
14.405	-0.003784
14.410	-0.003852
14.415	-0.003811
14.420	-0.003797
14.425	-0.003818
14.430	-0.003818
14.435	-0.003805
14.440	-0.003832
14.445	-0.003811
14.450	-0.003832
14.455	-0.003825
14.460	-0.003811
14.465	-0.003818
14.470	-0.003819
14.475	-0.003826
14.480	-0.003846
14.485	-0.003859
14.490	-0.003825
14.495	-0.003846
14.500	-0.003805
14.505	-0.003860
14.510	-0.003860
14.515	-0.003866
14.520	-0.003860
14.525	-0.003846
14.530	-0.003832
14.535	-0.003854
14.540	-0.003867
14.545	-0.003853
14.550	-0.003915
14.555	-0.003860
14.560	-0.003874
14.565	-0.003901
14.570	-0.003909
14.575	-0.003853
14.580	-0.003874
14.585	-0.003901
14.590	-0.003874
14.595	-0.003894
14.600	-0.003888
14.605	-0.003930
14.610	-0.003874
14.615	-0.003895
14.620	-0.003915
14.625	-0.003888
14.630	-0.003909
14.635	-0.003922
14.640	-0.003936
14.645	-0.003909
14.650	-0.003930
14.655	-0.003950
14.660	-0.003923
14.665	-0.003923
14.670	-0.003924
14.675	-0.003958
14.680	-0.003944
14.685	-0.003951
14.690	-0.003944
14.695	-0.003944
14.700	-0.003965
14.705	-0.003931
14.710	-0.003972
14.715	-0.003951
14.720	-0.003978
14.725	-0.003972
14.730	-0.003958
14.735	-0.003945
14.740	-0.003987
14.745	-0.003986
14.750	-0.003986
14.755	-0.003986
14.760	-0.003993
14.765	-0.003979
14.770	-0.004000
14.775	-0.003966
14.780	-0.004007
14.785	-0.003994
14.790	-0.003987
14.795	-0.003994
14.800	-0.004015
14.805	-0.004009
14.810	-0.004035
14.815	-0.004015
14.820	-0.004008
14.825	-0.004036
14.830	-0.004002
14.835	-0.004022
14.840	-0.004002
14.845	-0.004057
14.850	-0.004043
14.855	-0.004057
14.860	-0.004043
14.865	-0.004044
14.870	-0.004051
14.875	-0.004037
14.880	-0.004043
14.885	-0.004050
14.890	-0.004071
14.895	-0.004064
14.900	-0.004044
14.905	-0.004023
14.910	-0.004023
14.915	-0.004044
14.920	-0.004078
14.925	-0.004071
14.930	-0.004065
14.935	-0.004051
14.940	-0.004072
14.945	-0.004058
14.950	-0.004064
14.955	-0.004064
14.960	-0.004099
14.965	-0.004078
14.970	-0.004085
14.975	-0.004064
14.980	-0.004057
14.985	-0.004092
14.990	-0.004091
14.995	-0.004071
15.000	-0.004113
15.005	-0.004072
15.010	-0.004085
15.015	-0.004105
15.020	-0.004084
15.025	-0.004091
15.030	-0.004098
15.035	-0.004098
15.040	-0.004126
15.045	-0.004092
15.050	-0.004119
15.055	-0.004125
15.060	-0.004118
15.065	-0.004140
15.070	-0.004140
15.075	-0.004154
15.080	-0.004119
15.085	-0.004160
15.090	-0.004153
15.095	-0.004146
15.100	-0.004112
15.105	-0.004133
15.110	-0.004147
15.115	-0.004153
15.120	-0.004132
15.125	-0.004132
15.130	-0.004140
15.135	-0.004161
15.140	-0.004147
15.145	-0.004160
15.150	-0.004188
15.155	-0.004209
15.160	-0.004160
15.165	-0.004167
15.170	-0.004196
15.175	-0.004202
15.180	-0.004188
15.185	-0.004174
15.190	-0.004216
15.195	-0.004203
15.200	-0.004203
15.205	-0.004204
15.210	-0.004224
15.215	-0.004251
15.220	-0.004196
15.225	-0.004217
15.230	-0.004224
15.235	-0.004210
15.240	-0.004244
15.245	-0.004203
15.250	-0.004217
15.255	-0.004230
15.260	-0.004244
15.265	-0.004259
15.270	-0.004266
15.275	-0.004266
15.280	-0.004238
15.285	-0.004259
15.290	-0.004259
15.295	-0.004259
15.300	-0.004259
15.305	-0.004266
15.310	-0.004280
15.315	-0.004260
15.320	-0.004287
15.325	-0.004273
15.330	-0.004281
15.335	-0.004295
15.340	-0.004282
15.345	-0.004288
15.350	-0.004274
15.355	-0.004288
15.360	-0.004309
15.365	-0.004295
15.370	-0.004288
15.375	-0.004316
15.380	-0.004288
15.385	-0.004309
15.390	-0.004316
15.395	-0.004336
15.400	-0.004323
15.405	-0.004317
15.410	-0.004330
15.415	-0.004330
15.420	-0.004316
15.425	-0.004337
15.430	-0.004344
15.435	-0.004337
15.440	-0.004371
15.445	-0.004365
15.450	-0.004323
15.455	-0.004344
15.460	-0.004386
15.465	-0.004359
15.470	-0.004373
15.475	-0.004352
15.480	-0.004358
15.485	-0.004365
15.490	-0.004379
15.495	-0.004372
15.500	-0.004358
15.505	-0.004372
15.510	-0.004365
15.515	-0.004386
15.520	-0.004365
15.525	-0.004406
15.530	-0.004413
15.535	-0.004394
15.540	-0.004400
15.545	-0.004413
15.550	-0.004406
15.555	-0.004406
15.560	-0.004420
15.565	-0.004420
15.570	-0.004448
15.575	-0.004434
15.580	-0.004427
15.585	-0.004454
15.590	-0.004406
15.595	-0.004427
15.600	-0.004441
15.605	-0.004476
15.610	-0.004455
15.615	-0.004448
15.620	-0.004448
15.625	-0.004469
15.630	-0.004482
15.635	-0.004455
15.640	-0.004455
15.645	-0.004455
15.650	-0.004441
15.655	-0.004475
15.660	-0.004488
15.665	-0.004468
15.670	-0.004469
15.675	-0.004503
15.680	-0.004454
15.685	-0.004482
15.690	-0.004495
15.695	-0.004481
15.700	-0.004502
15.705	-0.004502
15.710	-0.004508
15.715	-0.004516
15.720	-0.004508
15.725	-0.004495
15.730	-0.004530
15.735	-0.004531
15.740	-0.004517
15.745	-0.004516
15.750	-0.004537
15.755	-0.004537
15.760	-0.004523
15.765	-0.004495
15.770	-0.004523
15.775	-0.004537
15.780	-0.004516
15.785	-0.004523
15.790	-0.004550
15.795	-0.004564
15.800	-0.004551
15.805	-0.004558
15.810	-0.004570
15.815	-0.004571
15.820	-0.004577
15.825	-0.004591
15.830	-0.004570
15.835	-0.004591
15.840	-0.004571
15.845	-0.004585
15.850	-0.004584
15.855	-0.004578
15.860	-0.004605
15.865	-0.004572
15.870	-0.004599
15.875	-0.004591
15.880	-0.004591
15.885	-0.004612
15.890	-0.004646
15.895	-0.004598
15.900	-0.004584
15.905	-0.004619
15.910	-0.004605
15.915	-0.004605
15.920	-0.004639
15.925	-0.004632
15.930	-0.004640
15.935	-0.004627
15.940	-0.004655
15.945	-0.004626
15.950	-0.004667
15.955	-0.004681
15.960	-0.004660
15.965	-0.004646
15.970	-0.004667
15.975	-0.004681
15.980	-0.004667
15.985	-0.004674
15.990	-0.004640
15.995	-0.004681
16.000	-0.004689
16.005	-0.004703
16.010	-0.004688
16.015	-0.004674
16.020	-0.004709
16.025	-0.004709
16.030	-0.004709
16.035	-0.004709
16.040	-0.004729
16.045	-0.004695
16.050	-0.004702
16.055	-0.004757
16.060	-0.004730
16.065	-0.004758
16.070	-0.004751
16.075	-0.004737
16.080	-0.004737
16.085	-0.004723
16.090	-0.004716
16.095	-0.004758
16.100	-0.004737
16.105	-0.004730
16.110	-0.004771
16.115	-0.004737
16.120	-0.004744
16.125	-0.004772
16.130	-0.004786
16.135	-0.004766
16.140	-0.004773
16.145	-0.004765
16.150	-0.004820
16.155	-0.004772
16.160	-0.004793
16.165	-0.004772
16.170	-0.004820
16.175	-0.004820
16.180	-0.004813
16.185	-0.004793
16.190	-0.004786
16.195	-0.004848
16.200	-0.004828
16.205	-0.004821
16.210	-0.004862
16.215	-0.004855
16.220	-0.004854
16.225	-0.004848
16.230	-0.004820
16.235	-0.004841
16.240	-0.004841
16.245	-0.004834
16.250	-0.004841
16.255	-0.004876
16.260	-0.004834
16.265	-0.004891
16.270	-0.004884
16.275	-0.004890
16.280	-0.004890
16.285	-0.004911
16.290	-0.004883
16.295	-0.004904
16.300	-0.004904
16.305	-0.004904
16.310	-0.004911
16.315	-0.004912
16.320	-0.004897
16.325	-0.004904
16.330	-0.004919
16.335	-0.004912
16.340	-0.004919
16.345	-0.004939
16.350	-0.004932
16.355	-0.004925
16.360	-0.004960
16.365	-0.004932
16.370	-0.004953
16.375	-0.004987
16.380	-0.004960
16.385	-0.004967
16.390	-0.004974
16.395	-0.004988
16.400	-0.004968
16.405	-0.004989
16.410	-0.004968
16.415	-0.004974
16.420	-0.004988
16.425	-0.005002
16.430	-0.004988
16.435	-0.004995
16.440	-0.005009
16.445	-0.005002
16.450	-0.005002
16.455	-0.005002
16.460	-0.005002
16.465	-0.005003
16.470	-0.005024
16.475	-0.005037
16.480	-0.005016
16.485	-0.005030
16.490	-0.005023
16.495	-0.005036
16.500	-0.005022
16.505	-0.005023
16.510	-0.005050
16.515	-0.005043
16.520	-0.005050
16.525	-0.005071
16.530	-0.005036
16.535	-0.005045
16.540	-0.005092
16.545	-0.005057
16.550	-0.005077
16.555	-0.005078
16.560	-0.005071
16.565	-0.005091
16.570	-0.005084
16.575	-0.005084
16.580	-0.005112
16.585	-0.005112
16.590	-0.005084
16.595	-0.005126
16.600	-0.005099
16.605	-0.005106
16.610	-0.005146
16.615	-0.005139
16.620	-0.005139
16.625	-0.005132
16.630	-0.005139
16.635	-0.005119
16.640	-0.005146
16.645	-0.005126
16.650	-0.005133
16.655	-0.005181
16.660	-0.005147
16.665	-0.005169
16.670	-0.005170
16.675	-0.005169
16.680	-0.005175
16.685	-0.005176
16.690	-0.005182
16.695	-0.005190
16.700	-0.005162
16.705	-0.005190
16.710	-0.005156
16.715	-0.005224
16.720	-0.005204
16.725	-0.005252
16.730	-0.005239
16.735	-0.005226
16.740	-0.005212
16.745	-0.005218
16.750	-0.005239
16.755	-0.005232
16.760	-0.005239
16.765	-0.005226
16.770	-0.005254
16.775	-0.005248
16.780	-0.005248
16.785	-0.005269
16.790	-0.005269
16.795	-0.005256
16.800	-0.005284
16.805	-0.005298
16.810	-0.005304
16.815	-0.005284
16.820	-0.005292
16.825	-0.005292
16.830	-0.005312
16.835	-0.005313
16.840	-0.005320
16.845	-0.005313
16.850	-0.005313
16.855	-0.005314
16.860	-0.005307
16.865	-0.005343
16.870	-0.005337
16.875	-0.005357
16.880	-0.005350
16.885	-0.005371
16.890	-0.005371
16.895	-0.005393
16.900	-0.005358
16.905	-0.005359
16.910	-0.005380
16.915	-0.005358
16.920	-0.005393
16.925	-0.005400
16.930	-0.005353
16.935	-0.005381
16.940	-0.005415
16.945	-0.005442
16.950	-0.005401
16.955	-0.005422
16.960	-0.005436
16.965	-0.005422
16.970	-0.005414
16.975	-0.005407
16.980	-0.005420
16.985	-0.005426
16.990	-0.005433
16.995	-0.005441
17.000	-0.005407
17.005	-0.005449
17.010	-0.005441
17.015	-0.005475
17.020	-0.005454
17.025	-0.005509
17.030	-0.005481
17.035	-0.005461
17.040	-0.005475
17.045	-0.005474
17.050	-0.005494
17.055	-0.005508
17.060	-0.005501
17.065	-0.005481
17.070	-0.005522
17.075	-0.005528
17.080	-0.005555
17.085	-0.005556
17.090	-0.005515
17.095	-0.005543
17.100	-0.005563
17.105	-0.005576
17.110	-0.005535
17.115	-0.005562
17.120	-0.005569
17.125	-0.005562
17.130	-0.005563
17.135	-0.005570
17.140	-0.005555
17.145	-0.005562
17.150	-0.005596
17.155	-0.005589
17.160	-0.005583
17.165	-0.005589
17.170	-0.005583
17.175	-0.005583
17.180	-0.005631
17.185	-0.005589
17.190	-0.005630
17.195	-0.005610
17.200	-0.005597
17.205	-0.005639
17.210	-0.005651
17.215	-0.005630
17.220	-0.005644
17.225	-0.005679
17.230	-0.005645
17.235	-0.005659
17.240	-0.005659
17.245	-0.005639
17.250	-0.005652
17.255	-0.005693
17.260	-0.005686
17.265	-0.005694
17.270	-0.005688
17.275	-0.005680
17.280	-0.005693
17.285	-0.005741
17.290	-0.005707
17.295	-0.005694
17.300	-0.005714
17.305	-0.005721
17.310	-0.005707
17.315	-0.005742
17.320	-0.005742
17.325	-0.005728
17.330	-0.005730
17.335	-0.005724
17.340	-0.005758
17.345	-0.005736
17.350	-0.005743
17.355	-0.005777
17.360	-0.005805
17.365	-0.005778
17.370	-0.005785
17.375	-0.005778
17.380	-0.005785
17.385	-0.005778
17.390	-0.005791
17.395	-0.005813
17.400	-0.005793
17.405	-0.005814
17.410	-0.005798
17.415	-0.005825
17.420	-0.005819
17.425	-0.005853
17.430	-0.005826
17.435	-0.005819
17.440	-0.005846
17.445	-0.005832
17.450	-0.005880
17.455	-0.005846
17.460	-0.005853
17.465	-0.005867
17.470	-0.005820
17.475	-0.005895
17.480	-0.005874
17.485	-0.005873
17.490	-0.005860
17.495	-0.005915
17.500	-0.005887
17.505	-0.005914
17.510	-0.005915
17.515	-0.005915
17.520	-0.005887
17.525	-0.005921
17.530	-0.005950
17.535	-0.005922
17.540	-0.005970
17.545	-0.005936
17.550	-0.005963
17.555	-0.005991
17.560	-0.005977
17.565	-0.005984
17.570	-0.005977
17.575	-0.005985
17.580	-0.005971
17.585	-0.006012
17.590	-0.006018
17.595	-0.006034
17.600	-0.006000
17.605	-0.006027
17.610	-0.006047
17.615	-0.006047
17.620	-0.006032
17.625	-0.006039
17.630	-0.006033
17.635	-0.006040
17.640	-0.006047
17.645	-0.006088
17.650	-0.006080
17.655	-0.006067
17.660	-0.006074
17.665	-0.006041
17.670	-0.006075
17.675	-0.006115
17.680	-0.006100
17.685	-0.006107
17.690	-0.006114
17.695	-0.006107
17.700	-0.006128
17.705	-0.006107
17.710	-0.006155
17.715	-0.006107
17.720	-0.006141
17.725	-0.006127
17.730	-0.006142
17.735	-0.006149
17.740	-0.006168
17.745	-0.006189
17.750	-0.006182
17.755	-0.006196
17.760	-0.006175
17.765	-0.006188
17.770	-0.006201
17.775	-0.006202
17.780	-0.006201
17.785	-0.006221
17.790	-0.006235
17.795	-0.006215
17.800	-0.006202
17.805	-0.006250
17.810	-0.006247
17.815	-0.006254
17.820	-0.006267
17.825	-0.006247
17.830	-0.006247
17.835	-0.006274
17.840	-0.006273
17.845	-0.006273
17.850	-0.006280
17.855	-0.006273
17.860	-0.006315
17.865	-0.006289
17.870	-0.006316
17.875	-0.006341
17.880	-0.006314
17.885	-0.006348
17.890	-0.006347
17.895	-0.006347
17.900	-0.006334
17.905	-0.006320
17.910	-0.006347
17.915	-0.006360
17.920	-0.006352
17.925	-0.006380
17.930	-0.006396
17.935	-0.006396
17.940	-0.006423
17.945	-0.006421
17.950	-0.006401
17.955	-0.006415
17.960	-0.006436
17.965	-0.006416
17.970	-0.006444
17.975	-0.006437
17.980	-0.006451
17.985	-0.006458
17.990	-0.006465
17.995	-0.006466
18.000	-0.006487
18.005	-0.006501
18.010	-0.006500
18.015	-0.006465
18.020	-0.006486
18.025	-0.006500
18.030	-0.006500
18.035	-0.006501
18.040	-0.006501
18.045	-0.006502
18.050	-0.006522
18.055	-0.006528
18.060	-0.006515
18.065	-0.006537
18.070	-0.006544
18.075	-0.006551
18.080	-0.006557
18.085	-0.006584
18.090	-0.006598
18.095	-0.006592
18.100	-0.006577
18.105	-0.006599
18.110	-0.006585
18.115	-0.006605
18.120	-0.006626
18.125	-0.006633
18.130	-0.006675
18.135	-0.006635
18.140	-0.006627
18.145	-0.006646
18.150	-0.006660
18.155	-0.006654
18.160	-0.006667
18.165	-0.006634
18.170	-0.006668
18.175	-0.006688
18.180	-0.006702
18.185	-0.006674
18.190	-0.006688
18.195	-0.006710
18.200	-0.006704
18.205	-0.006726
18.210	-0.006717
18.215	-0.006731
18.220	-0.006765
18.225	-0.006772
18.230	-0.006765
18.235	-0.006758
18.240	-0.006773
18.245	-0.006767
18.250	-0.006767
18.255	-0.006786
18.260	-0.006794
18.265	-0.006830
18.270	-0.006810
18.275	-0.006802
18.280	-0.006864
18.285	-0.006823
18.290	-0.006843
18.295	-0.006843
18.300	-0.006877
18.305	-0.006815
18.310	-0.006891
18.315	-0.006864
18.320	-0.006856
18.325	-0.006891
18.330	-0.006886
18.335	-0.006900
18.340	-0.006920
18.345	-0.006911
18.350	-0.006911
18.355	-0.006925
18.360	-0.006960
18.365	-0.006919
18.370	-0.006960
18.375	-0.006954
18.380	-0.006981
18.385	-0.006981
18.390	-0.006973
18.395	-0.006990
18.400	-0.007017
18.405	-0.007011
18.410	-0.007016
18.415	-0.007003
18.420	-0.007051
18.425	-0.007051
18.430	-0.007038
18.435	-0.007039
18.440	-0.007066
18.445	-0.007039
18.450	-0.007073
18.455	-0.007066
18.460	-0.007067
18.465	-0.007076
18.470	-0.007076
18.475	-0.007108
18.480	-0.007122
18.485	-0.007095
18.490	-0.007151
18.495	-0.007145
18.500	-0.007118
18.505	-0.007145
18.510	-0.007174
18.515	-0.007173
18.520	-0.007187
18.525	-0.007175
18.530	-0.007177
18.535	-0.007185
18.540	-0.007211
18.545	-0.007218
18.550	-0.007231
18.555	-0.007210
18.560	-0.007218
18.565	-0.007233
18.570	-0.007233
18.575	-0.007268
18.580	-0.007274
18.585	-0.007274
18.590	-0.007281
18.595	-0.007268
18.600	-0.007304
18.605	-0.007310
18.610	-0.007308
18.615	-0.007309
18.620	-0.007336
18.625	-0.007336
18.630	-0.007329
18.635	-0.007371
18.640	-0.007329
18.645	-0.007371
18.650	-0.007386
18.655	-0.007366
18.660	-0.007367
18.665	-0.007389
18.670	-0.007437
18.675	-0.007427
18.680	-0.007421
18.685	-0.007457
18.690	-0.007430
18.695	-0.007464
18.700	-0.007451
18.705	-0.007457
18.710	-0.007464
18.715	-0.007506
18.720	-0.007478
18.725	-0.007513
18.730	-0.007507
18.735	-0.007542
18.740	-0.007533
18.745	-0.007513
18.750	-0.007526
18.755	-0.007561
18.760	-0.007575
18.765	-0.007616
18.770	-0.007567
18.775	-0.007603
18.780	-0.007610
18.785	-0.007602
18.790	-0.007596
18.795	-0.007631
18.800	-0.007626
18.805	-0.007653
18.810	-0.007659
18.815	-0.007660
18.820	-0.007681
18.825	-0.007661
18.830	-0.007709
18.835	-0.007696
18.840	-0.007675
18.845	-0.007717
18.850	-0.007715
18.855	-0.007735
18.860	-0.007743
18.865	-0.007767
18.870	-0.007769
18.875	-0.007789
18.880	-0.007790
18.885	-0.007811
18.890	-0.007776
18.895	-0.007839
18.900	-0.007806
18.905	-0.007849
18.910	-0.007877
18.915	-0.007864
18.920	-0.007871
18.925	-0.007872
18.930	-0.007888
18.935	-0.007888
18.940	-0.007898
18.945	-0.007911
18.950	-0.007896
18.955	-0.007878
18.960	-0.007891
18.965	-0.007933
18.970	-0.007947
18.975	-0.007934
18.980	-0.007940
18.985	-0.007939
18.990	-0.007957
18.995	-0.007972
19.000	-0.007970
19.005	-0.007997
19.010	-0.008042
19.015	-0.008033
19.020	-0.008019
19.025	-0.008055
19.030	-0.008069
19.035	-0.008062
19.040	-0.008055
19.045	-0.008069
19.050	-0.008096
19.055	-0.008124
19.060	-0.008127
19.065	-0.008126
19.070	-0.008153
19.075	-0.008144
19.080	-0.008192
19.085	-0.008171
19.090	-0.008204
19.095	-0.008183
19.100	-0.008204
19.105	-0.008204
19.110	-0.008225
19.115	-0.008245
19.120	-0.008272
19.125	-0.008246
19.130	-0.008289
19.135	-0.008298
19.140	-0.008296
19.145	-0.008309
19.150	-0.008316
19.155	-0.008344
19.160	-0.008350
19.165	-0.008392
19.170	-0.008336
19.175	-0.008377
19.180	-0.008364
19.185	-0.008414
19.190	-0.008401
19.195	-0.008417
19.200	-0.008411
19.205	-0.008467
19.210	-0.008459
19.215	-0.008489
19.220	-0.008546
19.225	-0.008513
19.230	-0.008527
19.235	-0.008563
19.240	-0.008522
19.245	-0.008585
19.250	-0.008566
19.255	-0.008594
19.260	-0.008583
19.265	-0.008627
19.270	-0.008626
19.275	-0.008672
19.280	-0.008651
19.285	-0.008651
19.290	-0.008671
19.295	-0.008656
19.300	-0.008663
19.305	-0.008670
19.310	-0.008677
19.315	-0.008684
19.320	-0.008725
19.325	-0.008725
19.330	-0.008733
19.335	-0.008773
19.340	-0.008777
19.345	-0.008770
19.350	-0.008748
19.355	-0.008776
19.360	-0.008830
19.365	-0.008816
19.370	-0.008834
19.375	-0.008826
19.380	-0.008886
19.385	-0.008886
19.390	-0.008871
19.395	-0.008902
19.400	-0.008930
19.405	-0.008936
19.410	-0.008933
19.415	-0.008948
19.420	-0.008961
19.425	-0.008969
19.430	-0.008962
19.435	-0.009004
19.440	-0.008989
19.445	-0.009016
19.450	-0.009037
19.455	-0.009050
19.460	-0.009059
19.465	-0.009095
19.470	-0.009087
19.475	-0.009086
19.480	-0.009121
19.485	-0.009163
19.490	-0.009142
19.495	-0.009156
19.500	-0.009198
19.505	-0.009184
19.510	-0.009191
19.515	-0.009219
19.520	-0.009213
19.525	-0.009229
19.530	-0.009238
19.535	-0.009275
19.540	-0.009267
19.545	-0.009316
19.550	-0.009323
19.555	-0.009335
19.560	-0.009356
19.565	-0.009357
19.570	-0.009391
19.575	-0.009365
19.580	-0.009386
19.585	-0.009394
19.590	-0.009451
19.595	-0.009475
19.600	-0.009469
19.605	-0.009462
19.610	-0.009472
19.615	-0.009515
19.620	-0.009514
19.625	-0.009502
19.630	-0.009544
19.635	-0.009580
19.640	-0.009564
19.645	-0.009598
19.650	-0.009598
19.655	-0.009610
19.660	-0.009618
19.665	-0.009615
19.670	-0.009652
19.675	-0.009678
19.680	-0.009692
19.685	-0.009695
19.690	-0.009717
19.695	-0.009730
19.700	-0.009752
19.705	-0.009760
19.710	-0.009790
19.715	-0.009811
19.720	-0.009831
19.725	-0.009813
19.730	-0.009844
19.735	-0.009831
19.740	-0.009897
19.745	-0.009910
19.750	-0.009910
19.755	-0.009931
19.760	-0.009966
19.765	-0.009982
19.770	-0.010005
19.775	-0.010031
19.780	-0.010029
19.785	-0.010050
19.790	-0.010099
19.795	-0.010083
19.800	-0.010163
19.805	-0.010121
19.810	-0.010153
19.815	-0.010161
19.820	-0.010202
19.825	-0.010196
19.830	-0.010232
19.835	-0.010242
19.840	-0.010290
19.845	-0.010289
19.850	-0.010324
19.855	-0.010296
19.860	-0.010369
19.865	-0.010359
19.870	-0.010384
19.875	-0.010451
19.880	-0.010434
19.885	-0.010432
19.890	-0.010464
19.895	-0.010491
19.900	-0.010461
19.905	-0.010509
19.910	-0.010528
19.915	-0.010540
19.920	-0.010586
19.925	-0.010634
19.930	-0.010620
19.935	-0.010618
19.940	-0.010682
19.945	-0.010709
19.950	-0.010708
19.955	-0.010737
19.960	-0.010765
19.965	-0.010771
19.970	-0.010784
19.975	-0.010804
19.980	-0.010858
19.985	-0.010865
19.990	-0.010898
19.995	-0.010895
20.000	-0.010937
20.005	-0.010962
20.010	-0.010967
20.015	-0.011022
20.020	-0.010995
20.025	-0.011037
20.030	-0.011051
20.035	-0.011107
20.040	-0.011114
20.045	-0.011129
20.050	-0.011177
20.055	-0.011184
20.060	-0.011229
20.065	-0.011225
20.070	-0.011257
20.075	-0.011290
20.080	-0.011346
20.085	-0.011356
20.090	-0.011383
20.095	-0.011370
20.100	-0.011413
20.105	-0.011434
20.110	-0.011460
20.115	-0.011523
20.120	-0.011523
20.125	-0.011553
20.130	-0.011556
20.135	-0.011593
20.140	-0.011610
20.145	-0.011631
20.150	-0.011653
20.155	-0.011672
20.160	-0.011716
20.165	-0.011745
20.170	-0.011746
20.175	-0.011823
20.180	-0.011816
20.185	-0.011859
20.190	-0.011896
20.195	-0.011893
20.200	-0.011946
20.205	-0.011982
20.210	-0.012008
20.215	-0.012036
20.220	-0.012029
20.225	-0.012089
20.230	-0.012100
20.235	-0.012140
20.240	-0.012176
20.245	-0.012157
20.250	-0.012211
20.255	-0.012229
20.260	-0.012269
20.265	-0.012318
20.270	-0.012349
20.275	-0.012331
20.280	-0.012393
20.285	-0.012419
20.290	-0.012427
20.295	-0.012484
20.300	-0.012523
20.305	-0.012531
20.310	-0.012563
20.315	-0.012606
20.320	-0.012636
20.325	-0.012667
20.330	-0.012698
20.335	-0.012749
20.340	-0.012747
20.345	-0.012804
20.350	-0.012845
20.355	-0.012874
20.360	-0.012911
20.365	-0.012933
20.370	-0.012960
20.375	-0.013043
20.380	-0.013084
20.385	-0.013073
20.390	-0.013140
20.395	-0.013188
20.400	-0.013193
20.405	-0.013200
20.410	-0.013235
20.415	-0.013282
20.420	-0.013341
20.425	-0.013383
20.430	-0.013411
20.435	-0.013445
20.440	-0.013507
20.445	-0.013532
20.450	-0.013565
20.455	-0.013605
20.460	-0.013659
20.465	-0.013684
20.470	-0.013751
20.475	-0.013838
20.480	-0.013867
20.485	-0.013912
20.490	-0.013968
20.495	-0.014012
20.500	-0.014064
20.505	-0.014141
20.510	-0.014189
20.515	-0.014188
20.520	-0.014220
20.525	-0.014241
20.530	-0.014269
20.535	-0.014307
20.540	-0.014340
20.545	-0.014421
20.550	-0.014454
20.555	-0.014524
20.560	-0.014568
20.565	-0.014589
20.570	-0.014618
20.575	-0.014675
20.580	-0.014699
20.585	-0.014715
20.590	-0.014813
20.595	-0.014843
20.600	-0.014886
20.605	-0.014921
20.610	-0.014979
20.615	-0.015016
20.620	-0.015085
20.625	-0.015194
20.630	-0.015265
20.635	-0.015296
20.640	-0.015327
20.645	-0.015444
20.650	-0.015484
20.655	-0.015569
20.660	-0.015574
20.665	-0.015645
20.670	-0.015710
20.675	-0.015782
20.680	-0.015849
20.685	-0.015874
20.690	-0.015973
20.695	-0.016031
20.700	-0.016113
20.705	-0.016135
20.710	-0.016213
20.715	-0.016278
20.720	-0.016365
20.725	-0.016417
20.730	-0.016496
20.735	-0.016526
20.740	-0.016598
20.745	-0.016672
20.750	-0.016687
20.755	-0.016775
20.760	-0.016873
20.765	-0.016953
20.770	-0.017042
20.775	-0.017162
20.780	-0.017258
20.785	-0.017359
20.790	-0.017442
20.795	-0.017521
20.800	-0.017599
20.805	-0.017735
20.810	-0.017789
20.815	-0.017871
20.820	-0.017996
20.825	-0.018040
20.830	-0.018150
20.835	-0.018236
20.840	-0.018347
20.845	-0.018436
20.850	-0.018536
20.855	-0.018622
20.860	-0.018735
20.865	-0.018833
20.870	-0.018891
20.875	-0.019040
20.880	-0.019152
20.885	-0.019282
20.890	-0.019401
20.895	-0.019526
20.900	-0.019611
20.905	-0.019673
20.910	-0.019782
20.915	-0.019848
20.920	-0.019916
20.925	-0.020043
20.930	-0.020111
20.935	-0.020259
20.940	-0.020383
20.945	-0.020526
20.950	-0.020639
20.955	-0.020765
20.960	-0.020868
20.965	-0.021000
20.970	-0.021135
20.975	-0.021276
20.980	-0.021382
20.985	-0.021534
20.990	-0.021657
20.995	-0.021775
21.000	-0.021944
21.005	-0.022154
21.010	-0.022273
21.015	-0.022430
21.020	-0.022599
21.025	-0.022797
21.030	-0.022997
21.035	-0.023151
21.040	-0.023373
21.045	-0.023548
21.050	-0.023814
21.055	-0.024023
21.060	-0.024188
21.065	-0.024394
21.070	-0.024621
21.075	-0.024874
21.080	-0.025122
21.085	-0.025317
21.090	-0.025527
21.095	-0.025813
21.100	-0.026067
21.105	-0.026377
21.110	-0.026663
21.115	-0.026971
21.120	-0.027195
21.125	-0.027540
21.130	-0.027949
21.135	-0.028293
21.140	-0.028733
21.145	-0.029069
21.150	-0.029112
21.155	-0.029357
21.160	-0.029725
21.165	-0.029937
21.170	-0.030502
21.175	-0.031129
21.180	-0.031563
21.185	-0.032079
21.190	-0.032689
21.195	-0.033180
21.200	-0.033781
21.205	-0.034420
21.210	-0.034876
21.215	-0.035409
21.220	-0.036285
21.225	-0.037313
21.230	-0.038037
21.235	-0.039117
21.240	-0.039583
21.245	-0.039918
21.250	-0.041861
21.255	-0.042871
21.260	-0.043215
21.265	-0.044224
21.270	-0.045447
21.275	-0.046661
21.280	-0.047553
21.285	-0.047922
21.290	-0.047946
21.295	-0.047801
21.300	-0.047272
21.305	-0.046217
21.310	-0.044456
21.315	-0.042130
21.320	-0.039253
21.325	-0.035787
21.330	-0.031871
21.335	-0.028011
21.340	-0.024070
21.345	-0.019806
21.350	-0.015188
21.355	-0.010686
21.360	-0.006953
21.365	-0.004170
21.370	-0.002382
21.375	-0.001285
21.380	-0.000722
21.385	-0.000418
21.390	-0.000276
21.395	-0.000222
21.400	-0.000141
21.405	-0.000121
21.410	-0.000121
21.415	-0.000081
21.420	-0.000108
21.425	-0.000074
21.430	-0.000054
21.435	-0.000074
21.440	-0.000054
21.445	-0.000034
21.450	-0.000067
21.455	-0.000088
21.460	-0.000026
21.465	-0.000060
21.470	-0.000033
21.475	-0.000027
21.480	-0.000061
21.485	-0.000047
21.490	-0.000027
21.495	-0.000054
21.500	-0.000020
21.505	-0.000020
21.510	-0.000027
21.515	-0.000020
21.520	-0.000041
21.525	-0.000054
21.530	-0.000013
21.535	-0.000027
21.540	-0.000027
21.545	-0.000021
21.550	-0.000014
21.555	-0.000021
21.560	-0.000021
21.565	-0.000000
21.570	-0.000028
21.575	-0.000007
21.580	-0.000001
21.585	-0.000014
21.590	-0.000034
21.595	-0.000020
21.600	-0.000014
21.605	-0.000021
21.610	-0.000021
21.615	-0.000001
21.620	-0.000014
21.625	-0.000041
21.630	-0.000028
21.635	-0.000028
21.640	-0.000028
21.645	-0.000021
21.650	-0.000008
21.655	-0.000015
21.660	-0.000021
21.665	-0.000007
21.670	-0.000021
21.675	-0.000028
21.680	-0.000001
21.685	-0.000022
21.690	-0.000001
21.695	-0.000022
21.700	0.000026
21.705	-0.000022
21.710	-0.000008
21.715	-0.000042
21.720	-0.000002
21.725	-0.000021
21.730	-0.000014
21.735	-0.000014
21.740	-0.000029
21.745	-0.000022
21.750	-0.000008
21.755	-0.000001
21.760	0.000012
21.765	-0.000022
21.770	-0.000008
21.775	-0.000008
21.780	-0.000008
21.785	-0.000015
21.790	-0.000009
21.795	-0.000035
21.800	-0.000021
21.805	-0.000015
21.810	0.000005
21.815	0.000005
21.820	-0.000009
21.825	-0.000002
21.830	-0.000009
21.835	-0.000029
21.840	0.000018
21.845	0.000025
21.850	0.000004
21.855	-0.000002
21.860	-0.000008
21.865	0.000019
21.870	-0.000036
21.875	-0.000009
21.880	-0.000009
21.885	-0.000023
21.890	-0.000002
21.895	-0.000002
21.900	0.000004
21.905	-0.000002
21.910	-0.000002
21.915	-0.000030
21.920	0.000004
21.925	-0.000022
21.930	-0.000022
21.935	0.000012
21.940	-0.000037
21.945	-0.000010
21.950	0.000011
21.955	-0.000016
21.960	-0.000010
21.965	0.000011
21.970	0.000011
21.975	0.000031
21.980	0.000010
21.985	-0.000037
21.990	-0.000010
21.995	0.000018
22.000	0.000011
22.005	-0.000030
22.010	-0.000010
22.015	-0.000010
22.020	0.000004
22.025	-0.000010
22.030	-0.000023
22.035	0.000011
22.040	-0.000003
22.045	0.000003
22.050	-0.000037
22.055	0.000003
22.060	0.000011
22.065	-0.000009
22.070	-0.000024
22.075	-0.000024
22.080	-0.000024
22.085	0.000003
22.090	-0.000010
22.095	-0.000010
22.100	0.000017
22.105	-0.000004
22.110	-0.000010
22.115	0.000023
22.120	-0.000017
22.125	-0.000010
22.130	0.000018
22.135	-0.000017
22.140	-0.000011
22.145	-0.000003
22.150	-0.000004
22.155	-0.000024
22.160	0.000010
22.165	0.000010
22.170	-0.000017
22.175	-0.000004
22.180	0.000023
22.185	-0.000017
22.190	-0.000004
22.195	-0.000003
22.200	-0.000017
22.205	-0.000004
22.210	-0.000011
22.215	0.000023
22.220	0.000003
22.225	0.000003
22.230	0.000016
22.235	0.000010
22.240	0.000002
22.245	-0.000011
22.250	-0.000004
22.255	0.000009
22.260	0.000010
22.265	-0.000003
22.270	-0.000004
22.275	-0.000011
22.280	-0.000032
22.285	-0.000011
22.290	0.000009
22.295	0.000016
22.300	-0.000004
22.305	0.000002
22.310	0.000029
22.315	-0.000018
22.320	-0.000012
22.325	-0.000004
22.330	0.000016
22.335	0.000010
22.340	-0.000018
22.345	-0.000012
22.350	0.000009
22.355	0.000002
22.360	0.000015
22.365	0.000009
22.370	-0.000025
22.375	-0.000005
22.380	-0.000005
22.385	-0.000012
22.390	-0.000005
22.395	-0.000004
22.400	0.000023
22.405	-0.000005
22.410	-0.000005
22.415	0.000009
22.420	-0.000019
22.425	-0.000005
22.430	-0.000046
22.435	0.000002
22.440	0.000022
22.445	-0.000005
22.450	-0.000012
22.455	0.000001
22.460	0.000009
22.465	0.000002
22.470	-0.000012
22.475	0.000001
22.480	-0.000019
22.485	0.000001
22.490	-0.000006
22.495	-0.000006
22.500	0.000015
22.505	0.000001
22.510	0.000008
22.515	-0.000012
22.520	0.000008
22.525	-0.000005
22.530	0.000002
22.535	0.000001
22.540	-0.000013
22.545	-0.000026
22.550	0.000021
22.555	0.000021
22.560	0.000021
22.565	0.000001
22.570	-0.000019
22.575	-0.000020
22.580	0.000000
22.585	0.000007
22.590	-0.000026
22.595	-0.000019
22.600	-0.000033
22.605	-0.000027
22.610	-0.000013
22.615	-0.000020
22.620	0.000014
22.625	0.000021
22.630	0.000014
22.635	-0.000007
22.640	-0.000006
22.645	0.000000
22.650	0.000007
22.655	0.000001
22.660	0.000001
22.665	-0.000012
22.670	-0.000013
22.675	-0.000020
22.680	-0.000034
22.685	-0.000006
22.690	0.000000
22.695	-0.000027
22.700	-0.000020
22.705	0.000000
22.710	0.000007
22.715	-0.000013
22.720	-0.000014
22.725	-0.000027
22.730	-0.000006
22.735	-0.000020
22.740	0.000014
22.745	-0.000000
22.750	-0.000000
22.755	-0.000007
22.760	-0.000014
22.765	0.000020
22.770	-0.000007
22.775	-0.000000
22.780	-0.000007
22.785	0.000013
22.790	-0.000007
22.795	0.000007
22.800	0.000007
22.805	0.000013
22.810	-0.000007
22.815	0.000020
22.820	0.000006
22.825	-0.000007
22.830	-0.000000
22.835	-0.000000
22.840	-0.000000
22.845	-0.000000
22.850	-0.000001
22.855	0.000006
22.860	-0.000000
22.865	-0.000034
22.870	-0.000035
22.875	0.000006
22.880	-0.000028
22.885	-0.000014
22.890	0.000026
22.895	0.000013
22.900	-0.000008
22.905	-0.000021
22.910	-0.000021
22.915	0.000006
22.920	0.000013
22.925	-0.000021
22.930	-0.000007
22.935	-0.000014
22.940	-0.000008
22.945	-0.000001
22.950	-0.000028
22.955	-0.000008
22.960	-0.000008
22.965	-0.000001
22.970	-0.000001
22.975	0.000013
22.980	0.000039
22.985	-0.000008
22.990	0.000019
22.995	-0.000001
23.000	0.000013
23.005	-0.000015
23.010	-0.000015
23.015	0.000005
23.020	0.000019
23.025	-0.000015
23.030	-0.000002
23.035	-0.000015
23.040	0.000012
23.045	-0.000022
23.050	0.000019
23.055	-0.000001
23.060	-0.000008
23.065	0.000006
23.070	0.000005
23.075	0.000026
23.080	-0.000008
23.085	0.000005
23.090	-0.000008
23.095	0.000005
23.100	0.000019
23.105	-0.000022
23.110	-0.000009
23.115	0.000005
23.120	-0.000009
23.125	-0.000008
23.130	-0.000028
23.135	-0.000029
23.140	-0.000009
23.145	-0.000022
23.150	0.000025
23.155	0.000005
23.160	-0.000009
23.165	-0.000002
23.170	0.000018
23.175	-0.000009
23.180	0.000025
23.185	0.000032
23.190	0.000005
23.195	-0.000008
23.200	0.000019
23.205	-0.000016
23.210	0.000005
23.215	-0.000002
23.220	0.000005
23.225	0.000005
23.230	-0.000016
23.235	-0.000009
23.240	0.000004
23.245	-0.000009
23.250	-0.000016
23.255	0.000005
23.260	0.000032
23.265	-0.000002
23.270	-0.000009
23.275	0.000011
23.280	-0.000030
23.285	0.000011
23.290	-0.000037
23.295	0.000018
23.300	-0.000003
23.305	-0.000003
23.310	0.000018
23.315	-0.000023
23.320	-0.000009
23.325	0.000005
23.330	-0.000015
23.335	-0.000002
23.340	-0.000030
23.345	-0.000010
23.350	0.000004
23.355	-0.000009
23.360	0.000011
23.365	-0.000016
23.370	0.000004
23.375	-0.000010
23.380	0.000017
23.385	0.000010
23.390	-0.000017
23.395	0.000011
23.400	-0.000003
23.405	0.000031
23.410	-0.000017
23.415	-0.000024
23.420	-0.000010
23.425	-0.000003
23.430	-0.000010
23.435	-0.000010
23.440	-0.000017
23.445	-0.000017
23.450	0.000010
23.455	0.000004
23.460	0.000011
23.465	-0.000023
23.470	-0.000017
23.475	0.000003
23.480	-0.000003
23.485	0.000010
23.490	-0.000031
23.495	-0.000010
23.500	-0.000017
23.505	0.000003
23.510	0.000003
23.515	-0.000004
23.520	-0.000004
23.525	0.000004
23.530	-0.000017
23.535	-0.000017
23.540	-0.000004
23.545	-0.000004
23.550	-0.000024
23.555	-0.000004
23.560	0.000003
23.565	-0.000011
23.570	0.000003
23.575	0.000010
23.580	0.000023
23.585	-0.000011
23.590	-0.000017
23.595	-0.000003
23.600	-0.000037
23.605	-0.000004
23.610	0.000016
23.615	-0.000038
23.620	-0.000011
23.625	-0.000004
23.630	0.000009
23.635	-0.000004
23.640	0.000030
23.645	-0.000011
23.650	-0.000005
23.655	-0.000011
23.660	-0.000004
23.665	0.000016
23.670	-0.000018
23.675	0.000022
23.680	-0.000018
23.685	-0.000011
23.690	-0.000025
23.695	0.000016
23.700	0.000009
23.705	0.000009
23.710	-0.000011
23.715	-0.000011
23.720	0.000009
23.725	-0.000024
23.730	0.000003
23.735	0.000029
23.740	-0.000032
23.745	-0.000025
23.750	0.000016
23.755	-0.000005
23.760	0.000009
23.765	0.000002
23.770	0.000002
23.775	0.000016
23.780	0.000030
23.785	0.000002
23.790	-0.000011
23.795	-0.000003
23.800	-0.000004
23.805	0.000003
23.810	0.000009
23.815	-0.000032
23.820	-0.000012
23.825	0.000015
23.830	-0.000005
23.835	-0.000005
23.840	0.000015
23.845	-0.000019
23.850	0.000001
23.855	-0.000032
23.860	-0.000011
23.865	-0.000032
23.870	-0.000019
23.875	0.000015
23.880	-0.000032
23.885	-0.000012
23.890	-0.000012
23.895	-0.000019
23.900	0.000022
23.905	0.000015
23.910	0.000015
23.915	-0.000012
23.920	0.000015
23.925	-0.000025
23.930	0.000015
23.935	0.000008
23.940	-0.000019
23.945	-0.000026
23.950	0.000001
23.955	-0.000013
23.960	0.000014
23.965	0.000001
23.970	0.000001
23.975	-0.000006
23.980	-0.000040
23.985	0.000021
23.990	0.000015
23.995	-0.000005
24.000	0.000008
24.005	0.000028
24.010	-0.000013
24.015	0.000008
24.020	0.000014
24.025	0.000001
24.030	0.000007
24.035	0.000021
24.040	0.000001
24.045	-0.000013
24.050	-0.000020
24.055	0.000000
24.060	0.000001
24.065	-0.000006
24.070	0.000021
24.075	-0.000013
24.080	0.000007
24.085	-0.000041
24.090	0.000000
24.095	0.000014
24.100	-0.000013
24.105	0.000048
24.110	0.000000
24.115	-0.000007
24.120	0.000027
24.125	-0.000013
24.130	-0.000006
24.135	0.000027
24.140	0.000000
24.145	-0.000007
24.150	-0.000027
24.155	0.000007
24.160	-0.000020
24.165	-0.000006
24.170	0.000000
24.175	0.000007
24.180	-0.000027
24.185	-0.000007
24.190	0.000007
24.195	0.000001
24.200	-0.000006
24.205	-0.000013
24.210	-0.000000
24.215	-0.000014
24.220	-0.000007
24.225	-0.000034
24.230	-0.000014
24.235	-0.000007
24.240	-0.000007
24.245	0.000006
24.250	-0.000027
24.255	0.000000
24.260	-0.000047
24.265	-0.000027
24.270	-0.000014
24.275	0.000013
24.280	-0.000021
24.285	-0.000014
24.290	0.000013
24.295	0.000007
24.300	-0.000021
24.305	0.000007
24.310	0.000006
24.315	-0.000014
24.320	-0.000021
24.325	-0.000020
24.330	-0.000014
24.335	0.000006
24.340	0.000026
24.345	0.000006
24.350	-0.000015
24.355	-0.000008
24.360	-0.000008
24.365	0.000006
24.370	-0.000028
24.375	-0.000021
24.380	0.000019
24.385	0.000013
24.390	0.000020
24.395	-0.000014
24.400	-0.000001
24.405	-0.000015
24.410	0.000006
24.415	-0.000022
24.420	-0.000028
24.425	0.000006
24.430	-0.000008
24.435	-0.000008
24.440	-0.000028
24.445	0.000005
24.450	-0.000009
24.455	-0.000008
24.460	-0.000001
24.465	0.000020
24.470	-0.000015
24.475	-0.000015
24.480	-0.000022
24.485	-0.000022
24.490	-0.000008
24.495	-0.000015
24.500	-0.000036
24.505	0.000005
24.510	-0.000008
24.515	-0.000036
24.520	-0.000029
24.525	-0.000008
24.530	-0.000021
24.535	-0.000001
24.540	-0.000029
24.545	-0.000009
24.550	-0.000036
24.555	-0.000002
24.560	-0.000036
24.565	-0.000009
24.570	-0.000015
24.575	0.000012
24.580	-0.000016
24.585	0.000005
24.590	-0.000022
24.595	-0.000028
24.600	0.000005
24.605	-0.000002
24.610	-0.000002
24.615	-0.000043
24.620	-0.000023
24.625	-0.000002
24.630	-0.000016
24.635	-0.000009
24.640	-0.000009
24.645	-0.000009
24.650	-0.000016
24.655	-0.000022
24.660	-0.000008
24.665	-0.000022
24.670	-0.000030
24.675	-0.000002
24.680	-0.000036
24.685	-0.000023
24.690	-0.000016
24.695	-0.000003
24.700	-0.000023
24.705	0.000025
24.710	-0.000009
24.715	0.000010
24.720	-0.000016
24.725	-0.000036
24.730	-0.000050
24.735	-0.000057
24.740	-0.000023
24.745	-0.000017
24.750	0.000011
24.755	0.000004
24.760	-0.000017
24.765	-0.000023
24.770	0.000004
24.775	-0.000024
24.780	0.000017
24.785	0.000017
24.790	-0.000002
24.795	-0.000016
24.800	-0.000043
24.805	0.000004
24.810	-0.000044
24.815	-0.000003
24.820	-0.000003
24.825	0.000010
24.830	-0.000017
24.835	-0.000037
24.840	0.000003
24.845	-0.000010
24.850	-0.000004
24.855	-0.000017
24.860	-0.000010
24.865	-0.000003
24.870	-0.000010
24.875	0.000003
24.880	-0.000024
24.885	-0.000004
24.890	-0.000038
24.895	-0.000010
24.900	-0.000024
24.905	-0.000017
24.910	-0.000038
24.915	-0.000004
24.920	-0.000031
24.925	-0.000024
24.930	-0.000016
24.935	-0.000004
24.940	-0.000010
24.945	-0.000010
24.950	-0.000017
24.955	-0.000017
24.960	0.000010
24.965	-0.000011
24.970	0.000003
24.975	-0.000004
24.980	0.000002
24.985	-0.000045
24.990	-0.000011
24.995	-0.000024
25.000	0.000003
25.005	-0.000025
25.010	0.000002
25.015	-0.000011
25.020	0.000002
25.025	-0.000031
25.030	-0.000004
25.035	0.000003
25.040	-0.000018
25.045	-0.000018
25.050	-0.000018
25.055	-0.000004
25.060	0.000016
25.065	0.000003
25.070	-0.000004
25.075	0.000009
25.080	-0.000011
25.085	-0.000011
25.090	-0.000005
25.095	0.000016
25.100	-0.000005
25.105	0.000009
25.110	0.000002
25.115	0.000016
25.120	-0.000018
25.125	-0.000011
25.130	-0.000038
25.135	-0.000005
25.140	0.000009
25.145	0.000002
25.150	-0.000039
25.155	-0.000032
25.160	0.000002
25.165	0.000009
25.170	-0.000012
25.175	-0.000039
25.180	-0.000012
25.185	-0.000019
25.190	-0.000045
25.195	-0.000025
25.200	0.000002
25.205	-0.000012
25.210	0.000029
25.215	-0.000012
25.220	-0.000005
25.225	0.000002
25.230	0.000008
25.235	0.000002
25.240	0.000001
25.245	-0.000026
25.250	-0.000026
25.255	-0.000012
25.260	-0.000005
25.265	-0.000046
25.270	-0.000046
25.275	-0.000019
25.280	-0.000013
25.285	-0.000026
25.290	0.000001
25.295	-0.000012
25.300	-0.000012
25.305	0.000008
25.310	0.000001
25.315	-0.000006
25.320	-0.000012
25.325	-0.000012
25.330	-0.000025
25.335	-0.000006
25.340	-0.000006
25.345	0.000001
25.350	-0.000026
25.355	-0.000019
25.360	-0.000019
25.365	-0.000013
25.370	-0.000006
25.375	-0.000033
25.380	0.000007
25.385	0.000007
25.390	-0.000005
25.395	0.000008
25.400	-0.000019
25.405	-0.000020
25.410	0.000028
25.415	-0.000033
25.420	-0.000013
25.425	0.000000
25.430	-0.000013
25.435	-0.000054
25.440	-0.000020
25.445	-0.000006
25.450	-0.000033
25.455	-0.000013
25.460	-0.000019
25.465	-0.000006
25.470	0.000007
25.475	-0.000013
25.480	-0.000006
25.485	0.000028
25.490	0.000007
25.495	-0.000006
25.500	0.000000
25.505	-0.000006
25.510	0.000014
25.515	-0.000027
25.520	-0.000027
25.525	0.000001
25.530	0.000001
25.535	-0.000013
25.540	-0.000020
25.545	-0.000007
25.550	-0.000041
25.555	-0.000034
25.560	0.000007
25.565	0.000013
25.570	-0.000007
25.575	-0.000007
25.580	-0.000021
25.585	0.000007
25.590	0.000007
25.595	-0.000026
25.600	-0.000034
25.605	-0.000000
25.610	-0.000021
25.615	-0.000000
25.620	0.000007
25.625	0.000007
25.630	-0.000014
25.635	-0.000014
25.640	0.000013
25.645	-0.000001
25.650	0.000006
25.655	-0.000014
25.660	0.000007
25.665	-0.000014
25.670	-0.000035
25.675	-0.000028
25.680	-0.000001
25.685	-0.000001
25.690	0.000013
25.695	-0.000001
25.700	-0.000035
25.705	-0.000021
25.710	-0.000014
25.715	-0.000001
25.720	-0.000000
25.725	0.000000
25.730	-0.000014
25.735	-0.000014
25.740	0.000019
25.745	-0.000001
25.750	-0.000015
25.755	-0.000001
25.760	-0.000001
25.765	-0.000001
25.770	-0.000001
25.775	0.000033
25.780	0.000005
25.785	0.000019
25.790	-0.000014
25.795	0.000006
25.800	-0.000008
25.805	0.000012
25.810	-0.000035
25.815	-0.000001
25.820	-0.000008
25.825	-0.000008
25.830	-0.000001
25.835	-0.000008
25.840	0.000012
25.845	-0.000008
25.850	0.000005
25.855	0.000013
25.860	-0.000008
25.865	-0.000001
25.870	-0.000002
25.875	-0.000002
25.880	-0.000015
25.885	0.000005
25.890	-0.000002
25.895	-0.000022
25.900	-0.000002
25.905	-0.000015
25.910	-0.000002
25.915	-0.000009
25.920	0.000018
25.925	-0.000001
25.930	0.000005
25.935	0.000018
25.940	-0.000009
25.945	-0.000022
25.950	-0.000009
25.955	0.000005
25.960	-0.000002
25.965	-0.000009
25.970	0.000011
25.975	0.000032
25.980	0.000005
25.985	0.000025
25.990	0.000005
25.995	0.000039
26.000	0.000012
26.005	0.000011
26.010	-0.000023
26.015	-0.000009
26.020	-0.000002
26.025	0.000025
26.030	-0.000002
26.035	-0.000002
26.040	0.000025
26.045	0.000018
26.050	-0.000030
26.055	-0.000023
26.060	0.000005
26.065	-0.000002
26.070	-0.000016
26.075	-0.000003
26.080	-0.000043
26.085	0.000018
26.090	0.000031
26.095	0.000024
26.100	0.000031
26.105	0.000011
26.110	0.000011
26.115	0.000004
26.120	0.000004
26.125	0.000018
26.130	-0.000016
26.135	-0.000009
26.140	-0.000003
26.145	-0.000023
26.150	0.000004
26.155	0.000004
26.160	-0.000023
26.165	-0.000010
26.170	0.000004
26.175	0.000011
26.180	0.000017
26.185	-0.000037
26.190	-0.000023
26.195	-0.000009
26.200	0.000003
26.205	0.000004
26.210	-0.000010
26.215	-0.000024
26.220	0.000010
26.225	0.000003
26.230	0.000024
26.235	0.000003
26.240	0.000010
26.245	-0.000017
26.250	0.000010
26.255	0.000004
26.260	0.000018
26.265	0.000004
26.270	-0.000010
26.275	0.000003
26.280	-0.000017
26.285	-0.000004
26.290	0.000017
26.295	-0.000003
26.300	0.000051
26.305	0.000003
26.310	0.000017
26.315	0.000017
26.320	-0.000010
26.325	0.000004
26.330	-0.000024
26.335	-0.000024
26.340	0.000009
26.345	-0.000024
26.350	0.000004
26.355	0.000018
26.360	0.000004
26.365	-0.000010
26.370	0.000003
26.375	-0.000017
26.380	-0.000004
26.385	0.000017
26.390	-0.000003
26.395	0.000051
26.400	0.000003
26.405	0.000017
26.410	0.000017
26.415	-0.000010
26.420	0.000004
26.425	-0.000024
26.430	-0.000024
26.435	0.000009
26.440	-0.000024
