PK2650 Deflection Data
Z Position (mm)	100.000	W Position (deg)	216.00
Preform ID	Diameter (mm)	Time Stamp	Start Time	Operator	Serial Number
Test 1	25	03-Nov-22 18:05:01	03-Nov-22 18:06:13	[no user]	266007708
Radius (mm)	Deflection
-26.215	-0.000015
-26.210	0.000012
-26.205	0.000005
-26.200	-0.000008
-26.195	-0.000015
-26.190	0.000019
-26.185	-0.000022
-26.180	0.000039
-26.175	-0.000002
-26.170	0.000026
-26.165	0.000039
-26.160	0.000025
-26.155	0.000018
-26.150	0.000018
-26.145	-0.000002
-26.140	-0.000002
-26.135	-0.000016
-26.130	0.000032
-26.125	-0.000002
-26.120	0.000012
-26.115	0.000012
-26.110	-0.000002
-26.105	0.000011
-26.100	0.000039
-26.095	0.000018
-26.090	0.000012
-26.085	0.000018
-26.080	0.000011
-26.075	-0.000002
-26.070	0.000004
-26.065	-0.000003
-26.060	0.000011
-26.055	-0.000016
-26.050	0.000025
-26.045	-0.000002
-26.040	0.000025
-26.035	0.000011
-26.030	0.000024
-26.025	-0.000003
-26.020	0.000018
-26.015	0.000017
-26.010	0.000017
-26.005	0.000017
-26.000	0.000011
-25.995	0.000024
-25.990	0.000004
-25.985	0.000004
-25.980	0.000004
-25.975	0.000038
-25.970	0.000031
-25.965	0.000038
-25.960	0.000017
-25.955	0.000024
-25.950	0.000031
-25.945	-0.000010
-25.940	0.000004
-25.935	-0.000010
-25.930	0.000017
-25.925	0.000017
-25.920	0.000024
-25.915	0.000011
-25.910	0.000031
-25.905	0.000010
-25.900	0.000017
-25.895	0.000024
-25.890	0.000010
-25.885	0.000003
-25.880	0.000023
-25.875	0.000003
-25.870	0.000010
-25.865	-0.000011
-25.860	0.000003
-25.855	0.000010
-25.850	0.000031
-25.845	0.000017
-25.840	0.000017
-25.835	-0.000004
-25.830	0.000010
-25.825	0.000037
-25.820	0.000030
-25.815	0.000016
-25.810	0.000003
-25.805	0.000010
-25.800	0.000037
-25.795	0.000003
-25.790	-0.000010
-25.785	0.000044
-25.780	0.000044
-25.775	0.000030
-25.770	-0.000004
-25.765	0.000043
-25.760	0.000043
-25.755	0.000043
-25.750	0.000016
-25.745	0.000030
-25.740	-0.000011
-25.735	0.000016
-25.730	-0.000004
-25.725	0.000009
-25.720	0.000030
-25.715	0.000009
-25.710	-0.000011
-25.705	0.000002
-25.700	0.000064
-25.695	0.000023
-25.690	0.000030
-25.685	0.000036
-25.680	0.000016
-25.675	0.000009
-25.670	0.000016
-25.665	0.000029
-25.660	-0.000005
-25.655	-0.000004
-25.650	-0.000018
-25.645	0.000002
-25.640	0.000022
-25.635	0.000022
-25.630	0.000016
-25.625	0.000043
-25.620	0.000036
-25.615	0.000022
-25.610	0.000029
-25.605	0.000008
-25.600	0.000029
-25.595	0.000049
-25.590	0.000009
-25.585	0.000043
-25.580	0.000043
-25.575	0.000042
-25.570	0.000042
-25.565	0.000036
-25.560	0.000022
-25.555	0.000022
-25.550	0.000022
-25.545	0.000008
-25.540	0.000029
-25.535	0.000008
-25.530	0.000035
-25.525	0.000015
-25.520	-0.000018
-25.515	0.000015
-25.510	0.000022
-25.505	0.000022
-25.500	0.000015
-25.495	0.000035
-25.490	0.000028
-25.485	0.000049
-25.480	0.000022
-25.475	0.000035
-25.470	0.000001
-25.465	0.000021
-25.460	-0.000019
-25.455	0.000029
-25.450	0.000029
-25.445	0.000021
-25.440	0.000042
-25.435	0.000042
-25.430	0.000069
-25.425	0.000028
-25.420	0.000021
-25.415	-0.000006
-25.410	0.000042
-25.405	0.000021
-25.400	0.000035
-25.395	0.000008
-25.390	0.000015
-25.385	-0.000005
-25.380	0.000021
-25.375	0.000008
-25.370	0.000035
-25.365	0.000055
-25.360	0.000014
-25.355	0.000021
-25.350	0.000035
-25.345	0.000001
-25.340	0.000021
-25.335	0.000014
-25.330	0.000028
-25.325	0.000014
-25.320	0.000001
-25.315	0.000007
-25.310	0.000055
-25.305	0.000048
-25.300	0.000028
-25.295	0.000014
-25.290	0.000034
-25.285	0.000007
-25.280	0.000048
-25.275	0.000034
-25.270	-0.000006
-25.265	-0.000007
-25.260	-0.000006
-25.255	0.000042
-25.250	0.000014
-25.245	0.000034
-25.240	0.000020
-25.235	0.000034
-25.230	0.000014
-25.225	0.000014
-25.220	0.000034
-25.215	0.000041
-25.210	-0.000007
-25.205	0.000020
-25.200	-0.000000
-25.195	0.000020
-25.190	0.000014
-25.185	0.000014
-25.180	-0.000000
-25.175	0.000034
-25.170	0.000061
-25.165	0.000027
-25.160	0.000041
-25.155	0.000020
-25.150	0.000027
-25.145	0.000041
-25.140	0.000041
-25.135	0.000020
-25.130	0.000047
-25.125	0.000048
-25.120	0.000007
-25.115	0.000020
-25.110	0.000027
-25.105	0.000020
-25.100	0.000034
-25.095	0.000047
-25.090	0.000054
-25.085	0.000033
-25.080	0.000027
-25.075	-0.000007
-25.070	0.000033
-25.065	0.000006
-25.060	0.000013
-25.055	0.000048
-25.050	0.000041
-25.045	0.000027
-25.040	0.000033
-25.035	0.000026
-25.030	0.000054
-25.025	0.000020
-25.020	0.000040
-25.015	0.000006
-25.010	0.000033
-25.005	0.000026
-25.000	0.000026
-24.995	0.000019
-24.990	0.000041
-24.985	0.000040
-24.980	0.000006
-24.975	0.000047
-24.970	0.000047
-24.965	0.000060
-24.960	0.000006
-24.955	0.000006
-24.950	0.000019
-24.945	0.000006
-24.940	0.000019
-24.935	0.000046
-24.930	0.000012
-24.925	0.000020
-24.920	0.000040
-24.915	0.000040
-24.910	0.000040
-24.905	0.000053
-24.900	0.000047
-24.895	0.000040
-24.890	0.000067
-24.885	0.000047
-24.880	0.000026
-24.875	0.000006
-24.870	0.000019
-24.865	0.000012
-24.860	0.000026
-24.855	0.000027
-24.850	0.000040
-24.845	0.000053
-24.840	0.000019
-24.835	0.000046
-24.830	0.000060
-24.825	0.000040
-24.820	0.000046
-24.815	0.000039
-24.810	0.000039
-24.805	0.000039
-24.800	0.000019
-24.795	0.000046
-24.790	0.000053
-24.785	0.000006
-24.780	0.000053
-24.775	0.000046
-24.770	0.000053
-24.765	0.000012
-24.760	0.000046
-24.755	0.000046
-24.750	0.000026
-24.745	0.000019
-24.740	0.000026
-24.735	0.000025
-24.730	-0.000015
-24.725	0.000060
-24.720	0.000040
-24.715	0.000019
-24.710	0.000026
-24.705	0.000032
-24.700	0.000039
-24.695	0.000060
-24.690	0.000039
-24.685	0.000032
-24.680	0.000032
-24.675	0.000039
-24.670	0.000025
-24.665	0.000018
-24.660	0.000005
-24.655	0.000033
-24.650	0.000032
-24.645	0.000052
-24.640	0.000019
-24.635	0.000025
-24.630	0.000060
-24.625	0.000005
-24.620	0.000066
-24.615	0.000005
-24.610	0.000046
-24.605	0.000032
-24.600	0.000032
-24.595	0.000012
-24.590	0.000046
-24.585	0.000053
-24.580	0.000025
-24.575	0.000039
-24.570	0.000052
-24.565	0.000045
-24.560	0.000018
-24.555	0.000039
-24.550	0.000052
-24.545	0.000038
-24.540	0.000066
-24.535	0.000045
-24.530	0.000025
-24.525	0.000018
-24.520	0.000046
-24.515	0.000045
-24.510	0.000045
-24.505	0.000059
-24.500	0.000045
-24.495	0.000073
-24.490	0.000038
-24.485	0.000032
-24.480	0.000032
-24.475	0.000004
-24.470	0.000045
-24.465	0.000025
-24.460	0.000039
-24.455	0.000039
-24.450	0.000059
-24.445	0.000059
-24.440	0.000018
-24.435	0.000079
-24.430	0.000052
-24.425	0.000045
-24.420	0.000065
-24.415	0.000045
-24.410	0.000065
-24.405	0.000065
-24.400	0.000031
-24.395	0.000024
-24.390	0.000025
-24.385	0.000025
-24.380	0.000038
-24.375	0.000038
-24.370	0.000058
-24.365	0.000051
-24.360	0.000052
-24.355	0.000038
-24.350	0.000051
-24.345	0.000051
-24.340	0.000058
-24.335	0.000010
-24.330	0.000024
-24.325	0.000038
-24.320	0.000052
-24.315	0.000065
-24.310	0.000044
-24.305	0.000024
-24.300	0.000058
-24.295	0.000078
-24.290	0.000024
-24.285	0.000085
-24.280	0.000044
-24.275	0.000064
-24.270	0.000051
-24.265	0.000058
-24.260	0.000038
-24.255	0.000031
-24.250	0.000071
-24.245	0.000051
-24.240	0.000058
-24.235	0.000044
-24.230	0.000078
-24.225	0.000058
-24.220	0.000065
-24.215	0.000058
-24.210	0.000085
-24.205	0.000044
-24.200	0.000037
-24.195	0.000030
-24.190	0.000017
-24.185	0.000065
-24.180	0.000058
-24.175	0.000037
-24.170	0.000098
-24.165	0.000037
-24.160	0.000057
-24.155	0.000037
-24.150	0.000057
-24.145	0.000036
-24.140	0.000043
-24.135	0.000030
-24.130	0.000064
-24.125	0.000044
-24.120	0.000037
-24.115	0.000050
-24.110	0.000057
-24.105	0.000050
-24.100	0.000064
-24.095	0.000030
-24.090	0.000044
-24.085	0.000064
-24.080	0.000043
-24.075	0.000050
-24.070	0.000037
-24.065	0.000036
-24.060	0.000023
-24.055	0.000051
-24.050	0.000064
-24.045	0.000043
-24.040	0.000050
-24.035	0.000057
-24.030	0.000057
-24.025	0.000070
-24.020	0.000009
-24.015	0.000056
-24.010	0.000043
-24.005	0.000056
-24.000	0.000029
-23.995	0.000056
-23.990	0.000043
-23.985	0.000043
-23.980	0.000036
-23.975	0.000015
-23.970	0.000043
-23.965	0.000056
-23.960	0.000056
-23.955	0.000043
-23.950	0.000050
-23.945	0.000043
-23.940	0.000056
-23.935	0.000063
-23.930	0.000022
-23.925	0.000050
-23.920	0.000043
-23.915	0.000029
-23.910	0.000049
-23.905	0.000049
-23.900	0.000049
-23.895	0.000056
-23.890	0.000049
-23.885	0.000049
-23.880	0.000001
-23.875	0.000035
-23.870	0.000028
-23.865	0.000035
-23.860	0.000049
-23.855	0.000056
-23.850	0.000042
-23.845	0.000055
-23.840	0.000035
-23.835	0.000035
-23.830	0.000049
-23.825	0.000049
-23.820	0.000049
-23.815	0.000042
-23.810	0.000042
-23.805	0.000035
-23.800	0.000001
-23.795	0.000048
-23.790	0.000042
-23.785	0.000029
-23.780	0.000083
-23.775	0.000041
-23.770	0.000062
-23.765	0.000089
-23.760	0.000055
-23.755	0.000075
-23.750	0.000041
-23.745	0.000034
-23.740	0.000014
-23.735	0.000034
-23.730	0.000034
-23.725	0.000028
-23.720	0.000021
-23.715	0.000041
-23.710	0.000034
-23.705	0.000061
-23.700	0.000062
-23.695	0.000062
-23.690	0.000014
-23.685	0.000028
-23.680	0.000055
-23.675	0.000034
-23.670	0.000021
-23.665	0.000007
-23.660	0.000048
-23.655	0.000048
-23.650	0.000041
-23.645	0.000041
-23.640	0.000048
-23.635	0.000048
-23.630	0.000054
-23.625	0.000048
-23.620	0.000034
-23.615	0.000020
-23.610	0.000027
-23.605	0.000020
-23.600	0.000040
-23.595	0.000034
-23.590	0.000034
-23.585	0.000054
-23.580	0.000061
-23.575	0.000034
-23.570	0.000034
-23.565	-0.000007
-23.560	0.000034
-23.555	0.000054
-23.550	0.000013
-23.545	0.000013
-23.540	0.000020
-23.535	0.000033
-23.530	0.000006
-23.525	0.000013
-23.520	0.000020
-23.515	0.000013
-23.510	0.000026
-23.505	0.000013
-23.500	0.000033
-23.495	0.000006
-23.490	-0.000028
-23.485	-0.000015
-23.480	-0.000022
-23.475	-0.000015
-23.470	-0.000001
-23.465	-0.000008
-23.460	-0.000008
-23.455	-0.000021
-23.450	0.000026
-23.445	-0.000001
-23.440	0.000067
-23.435	0.000006
-23.430	0.000033
-23.425	0.000012
-23.420	0.000005
-23.415	0.000019
-23.410	0.000012
-23.405	-0.000022
-23.400	-0.000008
-23.395	-0.000008
-23.390	-0.000028
-23.385	0.000006
-23.380	0.000019
-23.375	0.000032
-23.370	0.000012
-23.365	0.000066
-23.360	0.000039
-23.355	0.000025
-23.350	0.000011
-23.345	0.000011
-23.340	0.000018
-23.335	-0.000023
-23.330	0.000039
-23.325	-0.000015
-23.320	0.000012
-23.315	0.000011
-23.310	0.000011
-23.305	0.000032
-23.300	0.000039
-23.295	0.000025
-23.290	0.000018
-23.285	0.000032
-23.280	-0.000016
-23.275	0.000004
-23.270	-0.000016
-23.265	-0.000003
-23.260	0.000005
-23.255	0.000005
-23.250	0.000018
-23.245	0.000031
-23.240	0.000004
-23.235	0.000018
-23.230	0.000045
-23.225	0.000031
-23.220	0.000024
-23.215	0.000045
-23.210	0.000004
-23.205	0.000031
-23.200	-0.000010
-23.195	0.000011
-23.190	0.000005
-23.185	0.000031
-23.180	0.000031
-23.175	-0.000003
-23.170	0.000024
-23.165	0.000031
-23.160	0.000031
-23.155	0.000038
-23.150	-0.000003
-23.145	0.000031
-23.140	0.000017
-23.135	-0.000017
-23.130	-0.000003
-23.125	0.000038
-23.120	0.000031
-23.115	0.000010
-23.110	-0.000003
-23.105	0.000031
-23.100	0.000031
-23.095	0.000010
-23.090	0.000030
-23.085	0.000024
-23.080	0.000030
-23.075	0.000023
-23.070	0.000023
-23.065	-0.000024
-23.060	-0.000003
-23.055	-0.000003
-23.050	0.000003
-23.045	-0.000010
-23.040	0.000017
-23.035	0.000003
-23.030	0.000024
-23.025	0.000024
-23.020	0.000010
-23.015	0.000017
-23.010	0.000023
-23.005	-0.000004
-23.000	0.000030
-22.995	0.000017
-22.990	0.000003
-22.985	0.000010
-22.980	0.000010
-22.975	0.000010
-22.970	0.000037
-22.965	0.000016
-22.960	0.000030
-22.955	0.000009
-22.950	0.000016
-22.945	-0.000032
-22.940	0.000023
-22.935	0.000002
-22.930	0.000002
-22.925	0.000003
-22.920	0.000023
-22.915	-0.000004
-22.910	0.000016
-22.905	0.000023
-22.900	0.000016
-22.895	0.000023
-22.890	0.000037
-22.885	0.000036
-22.880	0.000016
-22.875	0.000002
-22.870	0.000009
-22.865	0.000009
-22.860	0.000016
-22.855	-0.000018
-22.850	0.000016
-22.845	0.000023
-22.840	0.000002
-22.835	0.000002
-22.830	0.000023
-22.825	0.000009
-22.820	0.000002
-22.815	-0.000025
-22.810	-0.000005
-22.805	0.000015
-22.800	0.000009
-22.795	-0.000005
-22.790	0.000009
-22.785	-0.000012
-22.780	0.000015
-22.775	0.000029
-22.770	-0.000005
-22.765	0.000036
-22.760	0.000009
-22.755	0.000029
-22.750	0.000029
-22.745	0.000015
-22.740	-0.000005
-22.735	-0.000005
-22.730	0.000008
-22.725	0.000009
-22.720	0.000002
-22.715	0.000015
-22.710	0.000035
-22.705	-0.000005
-22.700	0.000015
-22.695	0.000015
-22.690	0.000022
-22.685	0.000001
-22.680	0.000022
-22.675	0.000001
-22.670	-0.000013
-22.665	-0.000026
-22.660	-0.000026
-22.655	-0.000019
-22.650	0.000029
-22.645	0.000001
-22.640	0.000015
-22.635	0.000042
-22.630	0.000008
-22.625	0.000015
-22.620	0.000035
-22.615	-0.000026
-22.610	-0.000006
-22.605	0.000001
-22.600	0.000021
-22.595	-0.000013
-22.590	0.000035
-22.585	-0.000026
-22.580	0.000008
-22.575	0.000001
-22.570	0.000035
-22.565	0.000021
-22.560	-0.000006
-22.555	0.000001
-22.550	0.000035
-22.545	0.000000
-22.540	-0.000006
-22.535	-0.000013
-22.530	-0.000006
-22.525	0.000021
-22.520	0.000014
-22.515	0.000021
-22.510	0.000027
-22.505	0.000021
-22.500	0.000021
-22.495	-0.000013
-22.490	0.000001
-22.485	0.000014
-22.480	0.000007
-22.475	0.000014
-22.470	0.000007
-22.465	-0.000027
-22.460	-0.000006
-22.455	0.000001
-22.450	-0.000013
-22.445	-0.000027
-22.440	-0.000014
-22.435	0.000014
-22.430	0.000020
-22.425	-0.000014
-22.420	-0.000007
-22.415	-0.000021
-22.410	-0.000048
-22.405	-0.000021
-22.400	-0.000000
-22.395	-0.000020
-22.390	-0.000013
-22.385	-0.000027
-22.380	0.000013
-22.375	0.000013
-22.370	-0.000014
-22.365	-0.000000
-22.360	-0.000007
-22.355	-0.000000
-22.350	-0.000000
-22.345	-0.000007
-22.340	-0.000007
-22.335	-0.000035
-22.330	-0.000000
-22.325	0.000007
-22.320	-0.000021
-22.315	0.000013
-22.310	-0.000001
-22.305	-0.000008
-22.300	-0.000001
-22.295	-0.000007
-22.290	0.000013
-22.285	-0.000008
-22.280	-0.000014
-22.275	-0.000042
-22.270	-0.000035
-22.265	-0.000042
-22.260	-0.000000
-22.255	-0.000014
-22.250	0.000006
-22.245	-0.000028
-22.240	0.000013
-22.235	-0.000001
-22.230	0.000013
-22.225	-0.000008
-22.220	-0.000008
-22.215	-0.000021
-22.210	0.000006
-22.205	-0.000021
-22.200	-0.000021
-22.195	-0.000014
-22.190	-0.000028
-22.185	0.000020
-22.180	-0.000035
-22.175	0.000013
-22.170	-0.000028
-22.165	-0.000001
-22.160	-0.000021
-22.155	0.000019
-22.150	-0.000001
-22.145	-0.000008
-22.140	-0.000022
-22.135	-0.000035
-22.130	-0.000008
-22.125	0.000019
-22.120	0.000006
-22.115	0.000012
-22.110	-0.000029
-22.105	-0.000008
-22.100	0.000005
-22.095	-0.000001
-22.090	-0.000022
-22.085	-0.000029
-22.080	-0.000015
-22.075	-0.000022
-22.070	-0.000015
-22.065	-0.000056
-22.060	-0.000035
-22.055	-0.000022
-22.050	0.000019
-22.045	0.000005
-22.040	-0.000002
-22.035	0.000005
-22.030	-0.000022
-22.025	-0.000009
-22.020	-0.000015
-22.015	-0.000036
-22.010	-0.000022
-22.005	-0.000050
-22.000	-0.000036
-21.995	-0.000022
-21.990	-0.000042
-21.985	-0.000002
-21.980	-0.000050
-21.975	-0.000002
-21.970	-0.000002
-21.965	0.000005
-21.960	-0.000009
-21.955	-0.000009
-21.950	-0.000016
-21.945	-0.000043
-21.940	-0.000023
-21.935	-0.000029
-21.930	-0.000023
-21.925	-0.000036
-21.920	-0.000022
-21.915	-0.000036
-21.910	0.000005
-21.905	0.000004
-21.900	-0.000002
-21.895	-0.000002
-21.890	-0.000009
-21.885	-0.000003
-21.880	-0.000050
-21.875	-0.000043
-21.870	-0.000023
-21.865	-0.000043
-21.860	-0.000029
-21.855	-0.000023
-21.850	-0.000002
-21.845	-0.000003
-21.840	-0.000016
-21.835	-0.000016
-21.830	-0.000036
-21.825	-0.000023
-21.820	-0.000050
-21.815	-0.000037
-21.810	-0.000023
-21.805	-0.000023
-21.800	-0.000016
-21.795	-0.000050
-21.790	-0.000009
-21.785	-0.000043
-21.780	-0.000023
-21.775	-0.000037
-21.770	0.000024
-21.765	-0.000037
-21.760	0.000004
-21.755	-0.000023
-21.750	0.000004
-21.745	-0.000057
-21.740	-0.000044
-21.735	-0.000051
-21.730	-0.000057
-21.725	-0.000016
-21.720	-0.000043
-21.715	-0.000030
-21.710	-0.000010
-21.705	-0.000010
-21.700	0.000004
-21.695	-0.000010
-21.690	-0.000030
-21.685	-0.000024
-21.680	-0.000017
-21.675	0.000010
-21.670	-0.000010
-21.665	-0.000037
-21.660	-0.000003
-21.655	-0.000064
-21.650	-0.000010
-21.645	-0.000024
-21.640	0.000003
-21.635	-0.000017
-21.630	-0.000004
-21.625	-0.000024
-21.620	-0.000017
-21.615	-0.000024
-21.610	-0.000031
-21.605	-0.000038
-21.600	-0.000031
-21.595	-0.000071
-21.590	-0.000037
-21.585	-0.000024
-21.580	0.000010
-21.575	0.000023
-21.570	0.000003
-21.565	-0.000010
-21.560	0.000003
-21.555	0.000017
-21.550	-0.000065
-21.545	-0.000011
-21.540	-0.000011
-21.535	-0.000018
-21.530	-0.000045
-21.525	-0.000017
-21.520	-0.000004
-21.515	0.000003
-21.510	-0.000004
-21.505	0.000016
-21.500	-0.000011
-21.495	0.000009
-21.490	0.000016
-21.485	0.000016
-21.480	0.000030
-21.475	0.000003
-21.470	0.000003
-21.465	-0.000004
-21.460	0.000017
-21.455	0.000085
-21.450	0.000078
-21.445	0.000173
-21.440	0.000276
-21.435	0.000447
-21.430	0.000701
-21.425	0.001010
-21.420	0.001486
-21.415	0.002108
-21.410	0.002963
-21.405	0.004070
-21.400	0.005351
-21.395	0.006924
-21.390	0.008787
-21.385	0.010901
-21.380	0.013425
-21.375	0.016295
-21.370	0.019388
-21.365	0.022704
-21.360	0.026246
-21.355	0.029874
-21.350	0.033510
-21.345	0.037126
-21.340	0.040797
-21.335	0.044440
-21.330	0.047903
-21.325	0.050543
-21.320	0.050373
-21.315	0.049413
-21.310	0.048563
-21.305	0.046697
-21.300	0.045128
-21.295	0.044281
-21.290	0.043413
-21.285	0.042492
-21.280	0.041989
-21.275	0.041380
-21.270	0.039882
-21.265	0.038704
-21.260	0.037880
-21.255	0.036878
-21.250	0.036288
-21.245	0.035740
-21.240	0.034848
-21.235	0.034319
-21.230	0.033990
-21.225	0.033348
-21.220	0.032746
-21.215	0.032253
-21.210	0.031835
-21.205	0.031430
-21.200	0.031122
-21.195	0.030856
-21.190	0.030632
-21.185	0.030485
-21.180	0.029791
-21.175	0.028973
-21.170	0.028583
-21.165	0.028407
-21.160	0.028108
-21.155	0.027545
-21.150	0.027218
-21.145	0.027153
-21.140	0.027289
-21.135	0.027516
-21.130	0.027055
-21.125	0.026124
-21.120	0.025773
-21.115	0.025633
-21.110	0.025457
-21.105	0.025223
-21.100	0.025053
-21.095	0.024910
-21.090	0.024604
-21.085	0.024296
-21.080	0.024038
-21.075	0.023888
-21.070	0.023650
-21.065	0.023406
-21.060	0.023151
-21.055	0.022953
-21.050	0.022794
-21.045	0.022719
-21.040	0.022565
-21.035	0.022431
-21.030	0.022264
-21.025	0.022104
-21.020	0.021991
-21.015	0.021824
-21.010	0.021730
-21.005	0.021663
-21.000	0.021639
-20.995	0.021542
-20.990	0.021263
-20.985	0.021078
-20.980	0.020922
-20.975	0.020826
-20.970	0.020659
-20.965	0.020537
-20.960	0.020391
-20.955	0.020239
-20.950	0.020148
-20.945	0.020007
-20.940	0.019925
-20.935	0.019778
-20.930	0.019690
-20.925	0.019532
-20.920	0.019433
-20.915	0.019314
-20.910	0.019201
-20.905	0.019127
-20.900	0.019025
-20.895	0.018914
-20.890	0.018817
-20.885	0.018696
-20.880	0.018629
-20.875	0.018532
-20.870	0.018505
-20.865	0.018378
-20.860	0.018323
-20.855	0.018257
-20.850	0.018124
-20.845	0.017997
-20.840	0.017901
-20.835	0.017786
-20.830	0.017697
-20.825	0.017607
-20.820	0.017520
-20.815	0.017414
-20.810	0.017340
-20.805	0.017212
-20.800	0.017179
-20.795	0.017114
-20.790	0.017056
-20.785	0.016987
-20.780	0.016942
-20.775	0.016901
-20.770	0.016833
-20.765	0.016777
-20.760	0.016683
-20.755	0.016522
-20.750	0.016468
-20.745	0.016399
-20.740	0.016328
-20.735	0.016238
-20.730	0.016167
-20.725	0.016131
-20.720	0.016091
-20.715	0.016012
-20.710	0.015933
-20.705	0.015891
-20.700	0.015811
-20.695	0.015755
-20.690	0.015683
-20.685	0.015628
-20.680	0.015595
-20.675	0.015472
-20.670	0.015451
-20.665	0.015405
-20.660	0.015347
-20.655	0.015328
-20.650	0.015250
-20.645	0.015193
-20.640	0.015149
-20.635	0.015103
-20.630	0.015051
-20.625	0.014995
-20.620	0.014968
-20.615	0.014876
-20.610	0.014861
-20.605	0.014785
-20.600	0.014730
-20.595	0.014684
-20.590	0.014643
-20.585	0.014597
-20.580	0.014572
-20.575	0.014515
-20.570	0.014468
-20.565	0.014426
-20.560	0.014310
-20.555	0.014327
-20.550	0.014241
-20.545	0.014183
-20.540	0.014160
-20.535	0.014116
-20.530	0.014085
-20.525	0.014059
-20.520	0.014002
-20.515	0.013980
-20.510	0.013899
-20.505	0.013889
-20.500	0.013818
-20.495	0.013809
-20.490	0.013768
-20.485	0.013760
-20.480	0.013707
-20.475	0.013667
-20.470	0.013650
-20.465	0.013574
-20.460	0.013585
-20.455	0.013504
-20.450	0.013447
-20.445	0.013418
-20.440	0.013431
-20.435	0.013338
-20.430	0.013318
-20.425	0.013278
-20.420	0.013222
-20.415	0.013181
-20.410	0.013137
-20.405	0.013117
-20.400	0.013056
-20.395	0.013044
-20.390	0.013005
-20.385	0.012965
-20.380	0.012943
-20.375	0.012901
-20.370	0.012878
-20.365	0.012862
-20.360	0.012802
-20.355	0.012774
-20.350	0.012754
-20.345	0.012688
-20.340	0.012652
-20.335	0.012638
-20.330	0.012578
-20.325	0.012528
-20.320	0.012536
-20.315	0.012492
-20.310	0.012469
-20.305	0.012428
-20.300	0.012378
-20.295	0.012353
-20.290	0.012301
-20.285	0.012290
-20.280	0.012276
-20.275	0.012219
-20.270	0.012171
-20.265	0.012144
-20.260	0.012119
-20.255	0.012137
-20.250	0.012134
-20.245	0.012034
-20.240	0.012086
-20.235	0.012018
-20.230	0.012022
-20.225	0.011950
-20.220	0.011950
-20.215	0.011938
-20.210	0.011897
-20.205	0.011864
-20.200	0.011807
-20.195	0.011820
-20.190	0.011778
-20.185	0.011760
-20.180	0.011747
-20.175	0.011739
-20.170	0.011689
-20.165	0.011697
-20.160	0.011632
-20.155	0.011603
-20.150	0.011580
-20.145	0.011530
-20.140	0.011490
-20.135	0.011499
-20.130	0.011459
-20.125	0.011450
-20.120	0.011409
-20.115	0.011374
-20.110	0.011371
-20.105	0.011342
-20.100	0.011306
-20.095	0.011296
-20.090	0.011272
-20.085	0.011262
-20.080	0.011198
-20.075	0.011168
-20.070	0.011126
-20.065	0.011093
-20.060	0.011098
-20.055	0.011075
-20.050	0.011060
-20.045	0.011023
-20.040	0.011023
-20.035	0.011014
-20.030	0.011008
-20.025	0.010958
-20.020	0.010952
-20.015	0.010929
-20.010	0.010861
-20.005	0.010826
-20.000	0.010826
-19.995	0.010837
-19.990	0.010822
-19.985	0.010775
-19.980	0.010786
-19.975	0.010745
-19.970	0.010725
-19.965	0.010677
-19.960	0.010699
-19.955	0.010666
-19.950	0.010652
-19.945	0.010590
-19.940	0.010590
-19.935	0.010569
-19.930	0.010536
-19.925	0.010541
-19.920	0.010497
-19.915	0.010489
-19.910	0.010514
-19.905	0.010456
-19.900	0.010458
-19.895	0.010439
-19.890	0.010418
-19.885	0.010405
-19.880	0.010371
-19.875	0.010380
-19.870	0.010341
-19.865	0.010315
-19.860	0.010264
-19.855	0.010285
-19.850	0.010257
-19.845	0.010238
-19.840	0.010215
-19.835	0.010210
-19.830	0.010196
-19.825	0.010200
-19.820	0.010157
-19.815	0.010117
-19.810	0.010098
-19.805	0.010053
-19.800	0.010045
-19.795	0.010012
-19.790	0.010005
-19.785	0.009974
-19.780	0.009957
-19.775	0.009945
-19.770	0.009951
-19.765	0.009915
-19.760	0.009868
-19.755	0.009846
-19.750	0.009853
-19.745	0.009824
-19.740	0.009790
-19.735	0.009768
-19.730	0.009763
-19.725	0.009743
-19.720	0.009707
-19.715	0.009691
-19.710	0.009684
-19.705	0.009664
-19.700	0.009617
-19.695	0.009589
-19.690	0.009590
-19.685	0.009591
-19.680	0.009535
-19.675	0.009528
-19.670	0.009505
-19.665	0.009476
-19.660	0.009485
-19.655	0.009472
-19.650	0.009463
-19.645	0.009436
-19.640	0.009431
-19.635	0.009382
-19.630	0.009395
-19.625	0.009381
-19.620	0.009362
-19.615	0.009313
-19.610	0.009317
-19.605	0.009296
-19.600	0.009299
-19.595	0.009260
-19.590	0.009246
-19.585	0.009260
-19.580	0.009269
-19.575	0.009230
-19.570	0.009269
-19.565	0.009238
-19.560	0.009251
-19.555	0.009224
-19.550	0.009176
-19.545	0.009172
-19.540	0.009170
-19.535	0.009139
-19.530	0.009113
-19.525	0.009133
-19.520	0.009145
-19.515	0.009083
-19.510	0.009110
-19.505	0.009086
-19.500	0.009089
-19.495	0.009084
-19.490	0.009066
-19.485	0.009057
-19.480	0.008996
-19.475	0.008990
-19.470	0.009005
-19.465	0.009020
-19.460	0.008969
-19.455	0.008960
-19.450	0.008917
-19.445	0.008918
-19.440	0.008934
-19.435	0.008900
-19.430	0.008873
-19.425	0.008895
-19.420	0.008877
-19.415	0.008843
-19.410	0.008803
-19.405	0.008832
-19.400	0.008804
-19.395	0.008779
-19.390	0.008780
-19.385	0.008793
-19.380	0.008791
-19.375	0.008751
-19.370	0.008746
-19.365	0.008706
-19.360	0.008700
-19.355	0.008684
-19.350	0.008675
-19.345	0.008664
-19.340	0.008658
-19.335	0.008624
-19.330	0.008657
-19.325	0.008613
-19.320	0.008636
-19.315	0.008623
-19.310	0.008609
-19.305	0.008629
-19.300	0.008600
-19.295	0.008570
-19.290	0.008553
-19.285	0.008555
-19.280	0.008501
-19.275	0.008512
-19.270	0.008530
-19.265	0.008487
-19.260	0.008475
-19.255	0.008464
-19.250	0.008461
-19.245	0.008451
-19.240	0.008452
-19.235	0.008442
-19.230	0.008460
-19.225	0.008389
-19.220	0.008395
-19.215	0.008367
-19.210	0.008380
-19.205	0.008332
-19.200	0.008327
-19.195	0.008331
-19.190	0.008338
-19.185	0.008330
-19.180	0.008302
-19.175	0.008296
-19.170	0.008310
-19.165	0.008291
-19.160	0.008286
-19.155	0.008287
-19.150	0.008309
-19.145	0.008227
-19.140	0.008243
-19.135	0.008201
-19.130	0.008205
-19.125	0.008207
-19.120	0.008222
-19.115	0.008198
-19.110	0.008207
-19.105	0.008201
-19.100	0.008174
-19.095	0.008186
-19.090	0.008171
-19.085	0.008156
-19.080	0.008127
-19.075	0.008119
-19.070	0.008100
-19.065	0.008122
-19.060	0.008118
-19.055	0.008088
-19.050	0.008072
-19.045	0.008085
-19.040	0.008059
-19.035	0.008044
-19.030	0.008045
-19.025	0.008065
-19.020	0.008024
-19.015	0.008001
-19.010	0.008001
-19.005	0.007945
-19.000	0.007961
-18.995	0.007932
-18.990	0.007905
-18.985	0.007945
-18.980	0.007936
-18.975	0.007916
-18.970	0.007908
-18.965	0.007894
-18.960	0.007874
-18.955	0.007852
-18.950	0.007838
-18.945	0.007768
-18.940	0.007795
-18.935	0.007801
-18.930	0.007792
-18.925	0.007723
-18.920	0.007764
-18.915	0.007735
-18.910	0.007751
-18.905	0.007724
-18.900	0.007745
-18.895	0.007737
-18.890	0.007682
-18.885	0.007697
-18.880	0.007671
-18.875	0.007609
-18.870	0.007621
-18.865	0.007629
-18.860	0.007604
-18.855	0.007594
-18.850	0.007625
-18.845	0.007610
-18.840	0.007604
-18.835	0.007618
-18.830	0.007591
-18.825	0.007568
-18.820	0.007548
-18.815	0.007561
-18.810	0.007513
-18.805	0.007532
-18.800	0.007538
-18.795	0.007511
-18.790	0.007482
-18.785	0.007521
-18.780	0.007495
-18.775	0.007466
-18.770	0.007477
-18.765	0.007475
-18.760	0.007453
-18.755	0.007432
-18.750	0.007451
-18.745	0.007414
-18.740	0.007413
-18.735	0.007404
-18.730	0.007435
-18.725	0.007415
-18.720	0.007387
-18.715	0.007390
-18.710	0.007383
-18.705	0.007368
-18.700	0.007366
-18.695	0.007366
-18.690	0.007316
-18.685	0.007351
-18.680	0.007330
-18.675	0.007308
-18.670	0.007295
-18.665	0.007283
-18.660	0.007276
-18.655	0.007302
-18.650	0.007284
-18.645	0.007283
-18.640	0.007277
-18.635	0.007270
-18.630	0.007283
-18.625	0.007220
-18.620	0.007255
-18.615	0.007212
-18.610	0.007233
-18.605	0.007191
-18.600	0.007184
-18.595	0.007193
-18.590	0.007178
-18.585	0.007170
-18.580	0.007205
-18.575	0.007177
-18.570	0.007165
-18.565	0.007151
-18.560	0.007122
-18.555	0.007093
-18.550	0.007080
-18.545	0.007114
-18.540	0.007129
-18.535	0.007094
-18.530	0.007070
-18.525	0.007105
-18.520	0.007083
-18.515	0.007075
-18.510	0.007075
-18.505	0.007083
-18.500	0.007047
-18.495	0.007045
-18.490	0.007058
-18.485	0.006989
-18.480	0.007037
-18.475	0.006988
-18.470	0.007030
-18.465	0.006998
-18.460	0.007021
-18.455	0.006984
-18.450	0.006995
-18.445	0.006973
-18.440	0.006981
-18.435	0.006966
-18.430	0.006924
-18.425	0.006951
-18.420	0.006944
-18.415	0.006949
-18.410	0.006937
-18.405	0.006923
-18.400	0.006896
-18.395	0.006905
-18.390	0.006878
-18.385	0.006889
-18.380	0.006896
-18.375	0.006883
-18.370	0.006835
-18.365	0.006876
-18.360	0.006855
-18.355	0.006868
-18.350	0.006834
-18.345	0.006819
-18.340	0.006792
-18.335	0.006805
-18.330	0.006788
-18.325	0.006808
-18.320	0.006785
-18.315	0.006775
-18.310	0.006774
-18.305	0.006789
-18.300	0.006789
-18.295	0.006761
-18.290	0.006761
-18.285	0.006740
-18.280	0.006740
-18.275	0.006719
-18.270	0.006726
-18.265	0.006700
-18.260	0.006660
-18.255	0.006713
-18.250	0.006698
-18.245	0.006670
-18.240	0.006686
-18.235	0.006701
-18.230	0.006688
-18.225	0.006696
-18.220	0.006669
-18.215	0.006662
-18.210	0.006627
-18.205	0.006622
-18.200	0.006623
-18.195	0.006599
-18.190	0.006592
-18.185	0.006612
-18.180	0.006605
-18.175	0.006606
-18.170	0.006600
-18.165	0.006600
-18.160	0.006594
-18.155	0.006587
-18.150	0.006560
-18.145	0.006553
-18.140	0.006547
-18.135	0.006547
-18.130	0.006557
-18.125	0.006529
-18.120	0.006564
-18.115	0.006557
-18.110	0.006532
-18.105	0.006548
-18.100	0.006534
-18.095	0.006548
-18.090	0.006500
-18.085	0.006506
-18.080	0.006506
-18.075	0.006507
-18.070	0.006500
-18.065	0.006501
-18.060	0.006511
-18.055	0.006502
-18.050	0.006506
-18.045	0.006497
-18.040	0.006497
-18.035	0.006468
-18.030	0.006460
-18.025	0.006453
-18.020	0.006467
-18.015	0.006445
-18.010	0.006430
-18.005	0.006415
-18.000	0.006415
-17.995	0.006410
-17.990	0.006414
-17.985	0.006412
-17.980	0.006412
-17.975	0.006398
-17.970	0.006418
-17.965	0.006376
-17.960	0.006397
-17.955	0.006375
-17.950	0.006361
-17.945	0.006352
-17.940	0.006331
-17.935	0.006337
-17.930	0.006347
-17.925	0.006326
-17.920	0.006305
-17.915	0.006310
-17.910	0.006331
-17.905	0.006323
-17.900	0.006295
-17.895	0.006253
-17.890	0.006288
-17.885	0.006260
-17.880	0.006253
-17.875	0.006252
-17.870	0.006266
-17.865	0.006234
-17.860	0.006264
-17.855	0.006240
-17.850	0.006258
-17.845	0.006237
-17.840	0.006259
-17.835	0.006231
-17.830	0.006244
-17.825	0.006245
-17.820	0.006245
-17.815	0.006244
-17.810	0.006244
-17.805	0.006203
-17.800	0.006203
-17.795	0.006211
-17.790	0.006210
-17.785	0.006215
-17.780	0.006207
-17.775	0.006184
-17.770	0.006185
-17.765	0.006171
-17.760	0.006149
-17.755	0.006142
-17.750	0.006170
-17.745	0.006133
-17.740	0.006113
-17.735	0.006111
-17.730	0.006108
-17.725	0.006108
-17.720	0.006106
-17.715	0.006091
-17.710	0.006084
-17.705	0.006084
-17.700	0.006057
-17.695	0.006050
-17.690	0.006029
-17.685	0.006021
-17.680	0.006034
-17.675	0.006020
-17.670	0.005999
-17.665	0.006001
-17.660	0.006010
-17.655	0.005981
-17.650	0.006000
-17.645	0.006021
-17.640	0.006014
-17.635	0.006000
-17.630	0.005980
-17.625	0.005980
-17.620	0.005988
-17.615	0.005960
-17.610	0.005967
-17.605	0.005946
-17.600	0.005927
-17.595	0.005936
-17.590	0.005929
-17.585	0.005948
-17.580	0.005926
-17.575	0.005920
-17.570	0.005921
-17.565	0.005920
-17.560	0.005927
-17.555	0.005905
-17.550	0.005913
-17.545	0.005905
-17.540	0.005885
-17.535	0.005883
-17.530	0.005858
-17.525	0.005886
-17.520	0.005891
-17.515	0.005883
-17.510	0.005863
-17.505	0.005835
-17.500	0.005828
-17.495	0.005833
-17.490	0.005826
-17.485	0.005819
-17.480	0.005833
-17.475	0.005824
-17.470	0.005824
-17.465	0.005790
-17.460	0.005832
-17.455	0.005803
-17.450	0.005815
-17.445	0.005801
-17.440	0.005795
-17.435	0.005795
-17.430	0.005767
-17.425	0.005775
-17.420	0.005789
-17.415	0.005789
-17.410	0.005761
-17.405	0.005740
-17.400	0.005747
-17.395	0.005763
-17.390	0.005755
-17.385	0.005752
-17.380	0.005717
-17.375	0.005731
-17.370	0.005745
-17.365	0.005716
-17.360	0.005729
-17.355	0.005729
-17.350	0.005721
-17.345	0.005706
-17.340	0.005686
-17.335	0.005678
-17.330	0.005668
-17.325	0.005694
-17.320	0.005657
-17.315	0.005677
-17.310	0.005678
-17.305	0.005698
-17.300	0.005664
-17.295	0.005637
-17.290	0.005663
-17.285	0.005621
-17.280	0.005641
-17.275	0.005612
-17.270	0.005614
-17.265	0.005608
-17.260	0.005638
-17.255	0.005629
-17.250	0.005579
-17.245	0.005580
-17.240	0.005607
-17.235	0.005599
-17.230	0.005586
-17.225	0.005585
-17.220	0.005577
-17.215	0.005578
-17.210	0.005571
-17.205	0.005543
-17.200	0.005538
-17.195	0.005582
-17.190	0.005575
-17.185	0.005546
-17.180	0.005560
-17.175	0.005547
-17.170	0.005521
-17.165	0.005568
-17.160	0.005541
-17.155	0.005533
-17.150	0.005491
-17.145	0.005518
-17.140	0.005497
-17.135	0.005490
-17.130	0.005501
-17.125	0.005479
-17.120	0.005506
-17.115	0.005469
-17.110	0.005510
-17.105	0.005517
-17.100	0.005496
-17.095	0.005482
-17.090	0.005494
-17.085	0.005481
-17.080	0.005453
-17.075	0.005411
-17.070	0.005426
-17.065	0.005469
-17.060	0.005456
-17.055	0.005447
-17.050	0.005445
-17.045	0.005438
-17.040	0.005445
-17.035	0.005425
-17.030	0.005459
-17.025	0.005431
-17.020	0.005417
-17.015	0.005431
-17.010	0.005383
-17.005	0.005404
-17.000	0.005398
-16.995	0.005399
-16.990	0.005378
-16.985	0.005356
-16.980	0.005390
-16.975	0.005391
-16.970	0.005370
-16.965	0.005391
-16.960	0.005378
-16.955	0.005377
-16.950	0.005377
-16.945	0.005309
-16.940	0.005309
-16.935	0.005323
-16.930	0.005319
-16.925	0.005285
-16.920	0.005324
-16.915	0.005336
-16.910	0.005322
-16.905	0.005302
-16.900	0.005315
-16.895	0.005288
-16.890	0.005295
-16.885	0.005281
-16.880	0.005301
-16.875	0.005286
-16.870	0.005288
-16.865	0.005263
-16.860	0.005293
-16.855	0.005271
-16.850	0.005269
-16.845	0.005318
-16.840	0.005305
-16.835	0.005257
-16.830	0.005258
-16.825	0.005251
-16.820	0.005245
-16.815	0.005259
-16.810	0.005210
-16.805	0.005251
-16.800	0.005231
-16.795	0.005211
-16.790	0.005238
-16.785	0.005224
-16.780	0.005224
-16.775	0.005245
-16.770	0.005225
-16.765	0.005232
-16.760	0.005211
-16.755	0.005176
-16.750	0.005210
-16.745	0.005209
-16.740	0.005181
-16.735	0.005154
-16.730	0.005178
-16.725	0.005178
-16.720	0.005163
-16.715	0.005162
-16.710	0.005162
-16.705	0.005162
-16.700	0.005155
-16.695	0.005121
-16.690	0.005133
-16.685	0.005119
-16.680	0.005099
-16.675	0.005105
-16.670	0.005098
-16.665	0.005094
-16.660	0.005053
-16.655	0.005114
-16.650	0.005107
-16.645	0.005094
-16.640	0.005094
-16.635	0.005080
-16.630	0.005094
-16.625	0.005067
-16.620	0.005053
-16.615	0.005074
-16.610	0.005094
-16.605	0.005038
-16.600	0.005040
-16.595	0.005042
-16.590	0.005021
-16.585	0.005033
-16.580	0.005067
-16.575	0.005046
-16.570	0.005025
-16.565	0.005005
-16.560	0.005018
-16.555	0.004997
-16.550	0.005004
-16.545	0.004997
-16.540	0.004984
-16.535	0.004976
-16.530	0.004979
-16.525	0.004986
-16.520	0.004978
-16.515	0.004977
-16.510	0.004978
-16.505	0.004958
-16.500	0.004958
-16.495	0.004992
-16.490	0.004957
-16.485	0.004963
-16.480	0.004963
-16.475	0.004947
-16.470	0.004940
-16.465	0.004963
-16.460	0.004942
-16.455	0.004975
-16.450	0.004960
-16.445	0.004919
-16.440	0.004954
-16.435	0.004960
-16.430	0.004925
-16.425	0.004904
-16.420	0.004930
-16.415	0.004916
-16.410	0.004916
-16.405	0.004937
-16.400	0.004890
-16.395	0.004898
-16.390	0.004911
-16.385	0.004916
-16.380	0.004909
-16.375	0.004876
-16.370	0.004896
-16.365	0.004924
-16.360	0.004875
-16.355	0.004881
-16.350	0.004874
-16.345	0.004872
-16.340	0.004879
-16.335	0.004831
-16.330	0.004846
-16.325	0.004846
-16.320	0.004838
-16.315	0.004844
-16.310	0.004859
-16.305	0.004866
-16.300	0.004853
-16.295	0.004859
-16.290	0.004859
-16.285	0.004845
-16.280	0.004837
-16.275	0.004817
-16.270	0.004831
-16.265	0.004812
-16.260	0.004785
-16.255	0.004804
-16.250	0.004811
-16.245	0.004812
-16.240	0.004826
-16.235	0.004820
-16.230	0.004820
-16.225	0.004800
-16.220	0.004807
-16.215	0.004814
-16.210	0.004765
-16.205	0.004751
-16.200	0.004766
-16.195	0.004767
-16.190	0.004815
-16.185	0.004773
-16.180	0.004765
-16.175	0.004753
-16.170	0.004795
-16.165	0.004754
-16.160	0.004775
-16.155	0.004740
-16.150	0.004720
-16.145	0.004741
-16.140	0.004749
-16.135	0.004743
-16.130	0.004746
-16.125	0.004732
-16.120	0.004710
-16.115	0.004724
-16.110	0.004711
-16.105	0.004754
-16.100	0.004740
-16.095	0.004728
-16.090	0.004707
-16.085	0.004726
-16.080	0.004692
-16.075	0.004684
-16.070	0.004685
-16.065	0.004672
-16.060	0.004673
-16.055	0.004672
-16.050	0.004671
-16.045	0.004677
-16.040	0.004690
-16.035	0.004662
-16.030	0.004697
-16.025	0.004697
-16.020	0.004670
-16.015	0.004684
-16.010	0.004677
-16.005	0.004620
-16.000	0.004649
-15.995	0.004636
-15.990	0.004649
-15.985	0.004681
-15.980	0.004640
-15.975	0.004654
-15.970	0.004654
-15.965	0.004681
-15.960	0.004647
-15.955	0.004619
-15.950	0.004624
-15.945	0.004629
-15.940	0.004616
-15.935	0.004595
-15.930	0.004604
-15.925	0.004583
-15.920	0.004621
-15.915	0.004592
-15.910	0.004586
-15.905	0.004586
-15.900	0.004600
-15.895	0.004598
-15.890	0.004592
-15.885	0.004604
-15.880	0.004556
-15.875	0.004555
-15.870	0.004561
-15.865	0.004563
-15.860	0.004542
-15.855	0.004534
-15.850	0.004553
-15.845	0.004560
-15.840	0.004553
-15.835	0.004580
-15.830	0.004544
-15.825	0.004551
-15.820	0.004551
-15.815	0.004565
-15.810	0.004502
-15.805	0.004536
-15.800	0.004530
-15.795	0.004490
-15.790	0.004531
-15.785	0.004516
-15.780	0.004529
-15.775	0.004515
-15.770	0.004522
-15.765	0.004542
-15.760	0.004487
-15.755	0.004480
-15.750	0.004494
-15.745	0.004480
-15.740	0.004486
-15.735	0.004445
-15.730	0.004482
-15.725	0.004495
-15.720	0.004487
-15.715	0.004480
-15.710	0.004474
-15.705	0.004474
-15.700	0.004475
-15.695	0.004461
-15.690	0.004440
-15.685	0.004439
-15.680	0.004434
-15.675	0.004440
-15.670	0.004433
-15.665	0.004422
-15.660	0.004450
-15.655	0.004449
-15.650	0.004419
-15.645	0.004427
-15.640	0.004420
-15.635	0.004414
-15.630	0.004441
-15.625	0.004407
-15.620	0.004428
-15.615	0.004406
-15.610	0.004421
-15.605	0.004365
-15.600	0.004396
-15.595	0.004390
-15.590	0.004409
-15.585	0.004360
-15.580	0.004401
-15.575	0.004402
-15.570	0.004375
-15.565	0.004361
-15.560	0.004402
-15.555	0.004381
-15.550	0.004374
-15.545	0.004396
-15.540	0.004368
-15.535	0.004362
-15.530	0.004378
-15.525	0.004364
-15.520	0.004356
-15.515	0.004384
-15.510	0.004358
-15.505	0.004337
-15.500	0.004337
-15.495	0.004358
-15.490	0.004331
-15.485	0.004324
-15.480	0.004310
-15.475	0.004281
-15.470	0.004309
-15.465	0.004317
-15.460	0.004316
-15.455	0.004265
-15.450	0.004292
-15.445	0.004305
-15.440	0.004312
-15.435	0.004277
-15.430	0.004298
-15.425	0.004291
-15.420	0.004298
-15.415	0.004271
-15.410	0.004278
-15.405	0.004264
-15.400	0.004287
-15.395	0.004247
-15.390	0.004281
-15.385	0.004271
-15.380	0.004264
-15.375	0.004262
-15.370	0.004289
-15.365	0.004274
-15.360	0.004267
-15.355	0.004273
-15.350	0.004259
-15.345	0.004246
-15.340	0.004239
-15.335	0.004220
-15.330	0.004214
-15.325	0.004242
-15.320	0.004233
-15.315	0.004247
-15.310	0.004268
-15.305	0.004235
-15.300	0.004221
-15.295	0.004214
-15.290	0.004207
-15.285	0.004220
-15.280	0.004200
-15.275	0.004192
-15.270	0.004200
-15.265	0.004195
-15.260	0.004202
-15.255	0.004195
-15.250	0.004180
-15.245	0.004188
-15.240	0.004188
-15.235	0.004175
-15.230	0.004174
-15.225	0.004188
-15.220	0.004175
-15.215	0.004148
-15.210	0.004162
-15.205	0.004170
-15.200	0.004159
-15.195	0.004153
-15.190	0.004174
-15.185	0.004152
-15.180	0.004126
-15.175	0.004135
-15.170	0.004170
-15.165	0.004150
-15.160	0.004131
-15.155	0.004104
-15.150	0.004153
-15.145	0.004134
-15.140	0.004100
-15.135	0.004115
-15.130	0.004109
-15.125	0.004110
-15.120	0.004122
-15.115	0.004129
-15.110	0.004123
-15.105	0.004165
-15.100	0.004123
-15.095	0.004109
-15.090	0.004102
-15.085	0.004109
-15.080	0.004116
-15.075	0.004094
-15.070	0.004109
-15.065	0.004103
-15.060	0.004097
-15.055	0.004088
-15.050	0.004095
-15.045	0.004123
-15.040	0.004144
-15.035	0.004089
-15.030	0.004116
-15.025	0.004095
-15.020	0.004137
-15.015	0.004061
-15.010	0.004081
-15.005	0.004080
-15.000	0.004137
-14.995	0.004101
-14.990	0.004065
-14.985	0.004104
-14.980	0.004111
-14.975	0.004082
-14.970	0.004095
-14.965	0.004066
-14.960	0.004093
-14.955	0.004099
-14.950	0.004029
-14.945	0.004076
-14.940	0.004069
-14.935	0.004042
-14.930	0.004071
-14.925	0.004069
-14.920	0.004067
-14.915	0.004081
-14.910	0.004073
-14.905	0.004024
-14.900	0.004059
-14.895	0.004024
-14.890	0.004045
-14.885	0.004043
-14.880	0.004043
-14.875	0.004001
-14.870	0.003987
-14.865	0.004016
-14.860	0.004001
-14.855	0.004027
-14.850	0.004006
-14.845	0.004012
-14.840	0.004019
-14.835	0.003998
-14.830	0.004004
-14.825	0.004018
-14.820	0.004024
-14.815	0.003982
-14.810	0.003955
-14.805	0.003962
-14.800	0.003964
-14.795	0.003971
-14.790	0.003970
-14.785	0.003989
-14.780	0.003934
-14.775	0.003962
-14.770	0.003983
-14.765	0.003962
-14.760	0.003970
-14.755	0.003955
-14.750	0.003983
-14.745	0.003927
-14.740	0.003921
-14.735	0.003916
-14.730	0.003931
-14.725	0.003937
-14.720	0.003929
-14.715	0.003977
-14.710	0.003949
-14.705	0.003936
-14.700	0.003929
-14.695	0.003908
-14.690	0.003915
-14.685	0.003914
-14.680	0.003901
-14.675	0.003936
-14.670	0.003902
-14.665	0.003876
-14.660	0.003910
-14.655	0.003894
-14.650	0.003935
-14.645	0.003895
-14.640	0.003916
-14.635	0.003916
-14.630	0.003910
-14.625	0.003881
-14.620	0.003874
-14.615	0.003887
-14.610	0.003852
-14.605	0.003879
-14.600	0.003895
-14.595	0.003882
-14.590	0.003874
-14.585	0.003879
-14.580	0.003886
-14.575	0.003851
-14.570	0.003865
-14.565	0.003850
-14.560	0.003858
-14.555	0.003850
-14.550	0.003829
-14.545	0.003856
-14.540	0.003829
-14.535	0.003836
-14.530	0.003823
-14.525	0.003843
-14.520	0.003835
-14.515	0.003835
-14.510	0.003836
-14.505	0.003822
-14.500	0.003836
-14.495	0.003863
-14.490	0.003807
-14.485	0.003806
-14.480	0.003840
-14.475	0.003833
-14.470	0.003778
-14.465	0.003821
-14.460	0.003793
-14.455	0.003806
-14.450	0.003826
-14.445	0.003777
-14.440	0.003812
-14.435	0.003819
-14.430	0.003798
-14.425	0.003776
-14.420	0.003789
-14.415	0.003768
-14.410	0.003768
-14.405	0.003775
-14.400	0.003797
-14.395	0.003749
-14.390	0.003769
-14.385	0.003795
-14.380	0.003782
-14.375	0.003789
-14.370	0.003761
-14.365	0.003740
-14.360	0.003768
-14.355	0.003747
-14.350	0.003753
-14.345	0.003726
-14.340	0.003740
-14.335	0.003733
-14.330	0.003741
-14.325	0.003755
-14.320	0.003746
-14.315	0.003732
-14.310	0.003732
-14.305	0.003753
-14.300	0.003739
-14.295	0.003739
-14.290	0.003725
-14.285	0.003710
-14.280	0.003718
-14.275	0.003711
-14.270	0.003711
-14.265	0.003706
-14.260	0.003713
-14.255	0.003711
-14.250	0.003690
-14.245	0.003704
-14.240	0.003691
-14.235	0.003705
-14.230	0.003684
-14.225	0.003718
-14.220	0.003704
-14.215	0.003698
-14.210	0.003649
-14.205	0.003656
-14.200	0.003672
-14.195	0.003637
-14.190	0.003678
-14.185	0.003676
-14.180	0.003683
-14.175	0.003676
-14.170	0.003676
-14.165	0.003682
-14.160	0.003669
-14.155	0.003620
-14.150	0.003648
-14.145	0.003655
-14.140	0.003655
-14.135	0.003663
-14.130	0.003658
-14.125	0.003657
-14.120	0.003648
-14.115	0.003641
-14.110	0.003642
-14.105	0.003648
-14.100	0.003607
-14.095	0.003655
-14.090	0.003613
-14.085	0.003606
-14.080	0.003592
-14.075	0.003613
-14.070	0.003607
-14.065	0.003608
-14.060	0.003588
-14.055	0.003621
-14.050	0.003613
-14.045	0.003620
-14.040	0.003600
-14.035	0.003606
-14.030	0.003612
-14.025	0.003564
-14.020	0.003584
-14.015	0.003570
-14.010	0.003584
-14.005	0.003611
-14.000	0.003593
-13.995	0.003558
-13.990	0.003544
-13.985	0.003563
-13.980	0.003557
-13.975	0.003584
-13.970	0.003571
-13.965	0.003571
-13.960	0.003537
-13.955	0.003564
-13.950	0.003556
-13.945	0.003543
-13.940	0.003556
-13.935	0.003558
-13.930	0.003559
-13.925	0.003558
-13.920	0.003543
-13.915	0.003514
-13.910	0.003501
-13.905	0.003536
-13.900	0.003543
-13.895	0.003528
-13.890	0.003529
-13.885	0.003529
-13.880	0.003522
-13.875	0.003501
-13.870	0.003537
-13.865	0.003531
-13.860	0.003482
-13.855	0.003515
-13.850	0.003522
-13.845	0.003515
-13.840	0.003522
-13.835	0.003515
-13.830	0.003487
-13.825	0.003473
-13.820	0.003480
-13.815	0.003480
-13.810	0.003494
-13.805	0.003466
-13.800	0.003482
-13.795	0.003495
-13.790	0.003466
-13.785	0.003485
-13.780	0.003472
-13.775	0.003499
-13.770	0.003499
-13.765	0.003485
-13.760	0.003485
-13.755	0.003484
-13.750	0.003443
-13.745	0.003450
-13.740	0.003457
-13.735	0.003437
-13.730	0.003480
-13.725	0.003471
-13.720	0.003429
-13.715	0.003463
-13.710	0.003470
-13.705	0.003477
-13.700	0.003450
-13.695	0.003463
-13.690	0.003422
-13.685	0.003443
-13.680	0.003435
-13.675	0.003414
-13.670	0.003442
-13.665	0.003450
-13.660	0.003416
-13.655	0.003442
-13.650	0.003462
-13.645	0.003441
-13.640	0.003441
-13.635	0.003414
-13.630	0.003428
-13.625	0.003400
-13.620	0.003400
-13.615	0.003414
-13.610	0.003400
-13.605	0.003414
-13.600	0.003388
-13.595	0.003410
-13.590	0.003409
-13.585	0.003388
-13.580	0.003409
-13.575	0.003402
-13.570	0.003381
-13.565	0.003402
-13.560	0.003389
-13.555	0.003354
-13.550	0.003361
-13.545	0.003389
-13.540	0.003396
-13.535	0.003369
-13.530	0.003384
-13.525	0.003370
-13.520	0.003362
-13.515	0.003383
-13.510	0.003356
-13.505	0.003377
-13.500	0.003336
-13.495	0.003363
-13.490	0.003343
-13.485	0.003328
-13.480	0.003323
-13.475	0.003330
-13.470	0.003345
-13.465	0.003319
-13.460	0.003346
-13.455	0.003352
-13.450	0.003353
-13.445	0.003326
-13.440	0.003320
-13.435	0.003341
-13.430	0.003327
-13.425	0.003327
-13.420	0.003327
-13.415	0.003300
-13.410	0.003307
-13.405	0.003286
-13.400	0.003316
-13.395	0.003329
-13.390	0.003294
-13.385	0.003293
-13.380	0.003307
-13.375	0.003307
-13.370	0.003314
-13.365	0.003292
-13.360	0.003327
-13.355	0.003299
-13.350	0.003278
-13.345	0.003278
-13.340	0.003278
-13.335	0.003300
-13.330	0.003287
-13.325	0.003307
-13.320	0.003278
-13.315	0.003284
-13.310	0.003299
-13.305	0.003278
-13.300	0.003305
-13.295	0.003271
-13.290	0.003277
-13.285	0.003284
-13.280	0.003271
-13.275	0.003270
-13.270	0.003291
-13.265	0.003251
-13.260	0.003278
-13.255	0.003269
-13.250	0.003255
-13.245	0.003255
-13.240	0.003269
-13.235	0.003255
-13.230	0.003283
-13.225	0.003234
-13.220	0.003254
-13.215	0.003267
-13.210	0.003240
-13.205	0.003240
-13.200	0.003221
-13.195	0.003234
-13.190	0.003212
-13.185	0.003273
-13.180	0.003239
-13.175	0.003253
-13.170	0.003246
-13.165	0.003246
-13.160	0.003225
-13.155	0.003238
-13.150	0.003225
-13.145	0.003204
-13.140	0.003224
-13.135	0.003191
-13.130	0.003213
-13.125	0.003205
-13.120	0.003203
-13.115	0.003217
-13.110	0.003203
-13.105	0.003217
-13.100	0.003210
-13.095	0.003223
-13.090	0.003175
-13.085	0.003203
-13.080	0.003168
-13.075	0.003141
-13.070	0.003155
-13.065	0.003177
-13.060	0.003156
-13.055	0.003154
-13.050	0.003182
-13.045	0.003176
-13.040	0.003155
-13.035	0.003169
-13.030	0.003156
-13.025	0.003176
-13.020	0.003128
-13.015	0.003148
-13.010	0.003121
-13.005	0.003148
-13.000	0.003157
-12.995	0.003129
-12.990	0.003164
-12.985	0.003141
-12.980	0.003142
-12.975	0.003142
-12.970	0.003156
-12.965	0.003128
-12.960	0.003121
-12.955	0.003155
-12.950	0.003113
-12.945	0.003128
-12.940	0.003115
-12.935	0.003109
-12.930	0.003123
-12.925	0.003115
-12.920	0.003128
-12.915	0.003114
-12.910	0.003129
-12.905	0.003115
-12.900	0.003115
-12.895	0.003108
-12.890	0.003108
-12.885	0.003094
-12.880	0.003087
-12.875	0.003101
-12.870	0.003108
-12.865	0.003088
-12.860	0.003068
-12.855	0.003107
-12.850	0.003106
-12.845	0.003092
-12.840	0.003072
-12.835	0.003079
-12.830	0.003086
-12.825	0.003127
-12.820	0.003044
-12.815	0.003077
-12.810	0.003085
-12.805	0.003050
-12.800	0.003066
-12.795	0.003079
-12.790	0.003071
-12.785	0.003084
-12.780	0.003064
-12.775	0.003057
-12.770	0.003071
-12.765	0.003092
-12.760	0.003077
-12.755	0.003056
-12.750	0.003077
-12.745	0.003048
-12.740	0.003049
-12.735	0.003036
-12.730	0.003044
-12.725	0.003050
-12.720	0.003021
-12.715	0.003015
-12.710	0.003056
-12.705	0.003070
-12.700	0.003076
-12.695	0.003035
-12.690	0.003007
-12.685	0.003027
-12.680	0.003014
-12.675	0.003034
-12.670	0.003042
-12.665	0.003008
-12.660	0.003028
-12.655	0.003013
-12.650	0.003012
-12.645	0.003033
-12.640	0.003020
-12.635	0.003034
-12.630	0.003005
-12.625	0.003033
-12.620	0.003012
-12.615	0.003013
-12.610	0.002999
-12.605	0.002985
-12.600	0.002987
-12.595	0.003014
-12.590	0.002993
-12.585	0.003012
-12.580	0.002985
-12.575	0.003005
-12.570	0.002971
-12.565	0.002978
-12.560	0.003005
-12.555	0.002978
-12.550	0.002998
-12.545	0.002970
-12.540	0.002971
-12.535	0.002992
-12.530	0.002992
-12.525	0.002950
-12.520	0.002977
-12.515	0.003004
-12.510	0.003005
-12.505	0.002998
-12.500	0.002970
-12.495	0.002991
-12.490	0.002970
-12.485	0.002970
-12.480	0.002963
-12.475	0.002950
-12.470	0.002937
-12.465	0.002951
-12.460	0.002916
-12.455	0.002949
-12.450	0.002949
-12.445	0.002963
-12.440	0.002942
-12.435	0.002963
-12.430	0.002928
-12.425	0.002941
-12.420	0.002962
-12.415	0.002934
-12.410	0.002928
-12.405	0.002935
-12.400	0.002923
-12.395	0.002922
-12.390	0.002962
-12.385	0.002941
-12.380	0.002935
-12.375	0.002935
-12.370	0.002949
-12.365	0.002914
-12.360	0.002900
-12.355	0.002907
-12.350	0.002934
-12.345	0.002913
-12.340	0.002934
-12.335	0.002887
-12.330	0.002908
-12.325	0.002886
-12.320	0.002878
-12.315	0.002886
-12.310	0.002906
-12.305	0.002905
-12.300	0.002878
-12.295	0.002891
-12.290	0.002863
-12.285	0.002911
-12.280	0.002870
-12.275	0.002897
-12.270	0.002864
-12.265	0.002858
-12.260	0.002885
-12.255	0.002863
-12.250	0.002883
-12.245	0.002870
-12.240	0.002870
-12.235	0.002898
-12.230	0.002877
-12.225	0.002877
-12.220	0.002884
-12.215	0.002890
-12.210	0.002869
-12.205	0.002841
-12.200	0.002864
-12.195	0.002877
-12.190	0.002869
-12.185	0.002869
-12.180	0.002875
-12.175	0.002861
-12.170	0.002854
-12.165	0.002875
-12.160	0.002847
-12.155	0.002819
-12.150	0.002826
-12.145	0.002847
-12.140	0.002805
-12.135	0.002820
-12.130	0.002807
-12.125	0.002812
-12.120	0.002832
-12.115	0.002826
-12.110	0.002826
-12.105	0.002840
-12.100	0.002819
-12.095	0.002825
-12.090	0.002846
-12.085	0.002832
-12.080	0.002804
-12.075	0.002769
-12.070	0.002791
-12.065	0.002819
-12.060	0.002805
-12.055	0.002803
-12.050	0.002817
-12.045	0.002830
-12.040	0.002803
-12.035	0.002810
-12.030	0.002810
-12.025	0.002796
-12.020	0.002796
-12.015	0.002816
-12.010	0.002803
-12.005	0.002782
-12.000	0.002797
-11.995	0.002810
-11.990	0.002782
-11.985	0.002782
-11.980	0.002803
-11.975	0.002775
-11.970	0.002761
-11.965	0.002754
-11.960	0.002768
-11.955	0.002761
-11.950	0.002781
-11.945	0.002719
-11.940	0.002775
-11.935	0.002762
-11.930	0.002749
-11.925	0.002741
-11.920	0.002782
-11.915	0.002767
-11.910	0.002761
-11.905	0.002774
-11.900	0.002781
-11.895	0.002753
-11.890	0.002767
-11.885	0.002712
-11.880	0.002752
-11.875	0.002745
-11.870	0.002733
-11.865	0.002734
-11.860	0.002754
-11.855	0.002752
-11.850	0.002773
-11.845	0.002732
-11.840	0.002732
-11.835	0.002746
-11.830	0.002760
-11.825	0.002739
-11.820	0.002725
-11.815	0.002711
-11.810	0.002718
-11.805	0.002691
-11.800	0.002713
-11.795	0.002726
-11.790	0.002705
-11.785	0.002697
-11.780	0.002698
-11.775	0.002746
-11.770	0.002725
-11.765	0.002711
-11.760	0.002725
-11.755	0.002732
-11.750	0.002670
-11.745	0.002711
-11.740	0.002712
-11.735	0.002672
-11.730	0.002686
-11.725	0.002678
-11.720	0.002691
-11.715	0.002684
-11.710	0.002705
-11.705	0.002706
-11.700	0.002692
-11.695	0.002713
-11.690	0.002658
-11.685	0.002664
-11.680	0.002678
-11.675	0.002664
-11.670	0.002631
-11.665	0.002693
-11.660	0.002665
-11.655	0.002650
-11.650	0.002692
-11.645	0.002671
-11.640	0.002650
-11.635	0.002699
-11.630	0.002630
-11.625	0.002678
-11.620	0.002637
-11.615	0.002650
-11.610	0.002650
-11.605	0.002644
-11.600	0.002659
-11.595	0.002665
-11.590	0.002650
-11.585	0.002650
-11.580	0.002692
-11.575	0.002658
-11.570	0.002602
-11.565	0.002665
-11.560	0.002665
-11.555	0.002624
-11.550	0.002637
-11.545	0.002609
-11.540	0.002610
-11.535	0.002625
-11.530	0.002632
-11.525	0.002611
-11.520	0.002637
-11.515	0.002630
-11.510	0.002651
-11.505	0.002644
-11.500	0.002644
-11.495	0.002624
-11.490	0.002603
-11.485	0.002609
-11.480	0.002610
-11.475	0.002617
-11.470	0.002590
-11.465	0.002611
-11.460	0.002604
-11.455	0.002623
-11.450	0.002617
-11.445	0.002645
-11.440	0.002645
-11.435	0.002590
-11.430	0.002583
-11.425	0.002617
-11.420	0.002596
-11.415	0.002610
-11.410	0.002575
-11.405	0.002596
-11.400	0.002597
-11.395	0.002631
-11.390	0.002576
-11.385	0.002582
-11.380	0.002610
-11.375	0.002595
-11.370	0.002589
-11.365	0.002595
-11.360	0.002575
-11.355	0.002540
-11.350	0.002581
-11.345	0.002561
-11.340	0.002575
-11.335	0.002542
-11.330	0.002583
-11.325	0.002575
-11.320	0.002554
-11.315	0.002561
-11.310	0.002575
-11.305	0.002540
-11.300	0.002561
-11.295	0.002568
-11.290	0.002554
-11.285	0.002533
-11.280	0.002547
-11.275	0.002547
-11.270	0.002527
-11.265	0.002562
-11.260	0.002562
-11.255	0.002567
-11.250	0.002561
-11.245	0.002547
-11.240	0.002527
-11.235	0.002519
-11.230	0.002554
-11.225	0.002546
-11.220	0.002554
-11.215	0.002546
-11.210	0.002533
-11.205	0.002498
-11.200	0.002534
-11.195	0.002541
-11.190	0.002533
-11.185	0.002519
-11.180	0.002519
-11.175	0.002533
-11.170	0.002506
-11.165	0.002540
-11.160	0.002519
-11.155	0.002492
-11.150	0.002499
-11.145	0.002526
-11.140	0.002492
-11.135	0.002507
-11.130	0.002493
-11.125	0.002506
-11.120	0.002512
-11.115	0.002491
-11.110	0.002484
-11.105	0.002512
-11.100	0.002539
-11.095	0.002505
-11.090	0.002484
-11.085	0.002477
-11.080	0.002484
-11.075	0.002470
-11.070	0.002478
-11.065	0.002499
-11.060	0.002485
-11.055	0.002484
-11.050	0.002525
-11.045	0.002470
-11.040	0.002491
-11.035	0.002457
-11.030	0.002478
-11.025	0.002456
-11.020	0.002470
-11.015	0.002449
-11.010	0.002456
-11.005	0.002456
-11.000	0.002444
-10.995	0.002471
-10.990	0.002463
-10.985	0.002470
-10.980	0.002483
-10.975	0.002442
-10.970	0.002463
-10.965	0.002469
-10.960	0.002421
-10.955	0.002434
-10.950	0.002414
-10.945	0.002421
-10.940	0.002441
-10.935	0.002436
-10.930	0.002435
-10.925	0.002454
-10.920	0.002461
-10.915	0.002448
-10.910	0.002441
-10.905	0.002455
-10.900	0.002455
-10.895	0.002427
-10.890	0.002426
-10.885	0.002412
-10.880	0.002419
-10.875	0.002412
-10.870	0.002399
-10.865	0.002427
-10.860	0.002441
-10.855	0.002398
-10.850	0.002439
-10.845	0.002398
-10.840	0.002405
-10.835	0.002405
-10.830	0.002426
-10.825	0.002404
-10.820	0.002418
-10.815	0.002397
-10.810	0.002404
-10.805	0.002405
-10.800	0.002385
-10.795	0.002391
-10.790	0.002390
-10.785	0.002390
-10.780	0.002377
-10.775	0.002397
-10.770	0.002439
-10.765	0.002383
-10.760	0.002397
-10.755	0.002424
-10.750	0.002348
-10.745	0.002369
-10.740	0.002349
-10.735	0.002370
-10.730	0.002391
-10.725	0.002383
-10.720	0.002369
-10.715	0.002376
-10.710	0.002383
-10.705	0.002383
-10.700	0.002376
-10.695	0.002389
-10.690	0.002361
-10.685	0.002334
-10.680	0.002368
-10.675	0.002348
-10.670	0.002335
-10.665	0.002329
-10.660	0.002328
-10.655	0.002348
-10.650	0.002342
-10.645	0.002363
-10.640	0.002349
-10.635	0.002355
-10.630	0.002349
-10.625	0.002328
-10.620	0.002342
-10.615	0.002356
-10.610	0.002321
-10.605	0.002363
-10.600	0.002316
-10.595	0.002322
-10.590	0.002349
-10.585	0.002349
-10.580	0.002335
-10.575	0.002349
-10.570	0.002329
-10.565	0.002322
-10.560	0.002357
-10.555	0.002349
-10.550	0.002329
-10.545	0.002288
-10.540	0.002336
-10.535	0.002344
-10.530	0.002317
-10.525	0.002322
-10.520	0.002350
-10.515	0.002337
-10.510	0.002323
-10.505	0.002309
-10.500	0.002324
-10.495	0.002302
-10.490	0.002302
-10.485	0.002323
-10.480	0.002316
-10.475	0.002288
-10.470	0.002289
-10.465	0.002289
-10.460	0.002289
-10.455	0.002294
-10.450	0.002315
-10.445	0.002336
-10.440	0.002302
-10.435	0.002322
-10.430	0.002294
-10.425	0.002301
-10.420	0.002281
-10.415	0.002273
-10.410	0.002280
-10.405	0.002288
-10.400	0.002302
-10.395	0.002281
-10.390	0.002273
-10.385	0.002301
-10.380	0.002274
-10.375	0.002267
-10.370	0.002280
-10.365	0.002287
-10.360	0.002274
-10.355	0.002280
-10.350	0.002267
-10.345	0.002280
-10.340	0.002246
-10.335	0.002247
-10.330	0.002267
-10.325	0.002253
-10.320	0.002273
-10.315	0.002253
-10.310	0.002266
-10.305	0.002259
-10.300	0.002259
-10.295	0.002245
-10.290	0.002244
-10.285	0.002258
-10.280	0.002217
-10.275	0.002244
-10.270	0.002239
-10.265	0.002252
-10.260	0.002224
-10.255	0.002251
-10.250	0.002244
-10.245	0.002238
-10.240	0.002224
-10.235	0.002224
-10.230	0.002258
-10.225	0.002217
-10.220	0.002196
-10.215	0.002223
-10.210	0.002238
-10.205	0.002183
-10.200	0.002212
-10.195	0.002246
-10.190	0.002231
-10.185	0.002190
-10.180	0.002210
-10.175	0.002210
-10.170	0.002224
-10.165	0.002209
-10.160	0.002202
-10.155	0.002182
-10.150	0.002195
-10.145	0.002195
-10.140	0.002189
-10.135	0.002196
-10.130	0.002176
-10.125	0.002174
-10.120	0.002154
-10.115	0.002188
-10.110	0.002216
-10.105	0.002181
-10.100	0.002175
-10.095	0.002216
-10.090	0.002188
-10.085	0.002195
-10.080	0.002168
-10.075	0.002160
-10.070	0.002162
-10.065	0.002169
-10.060	0.002175
-10.055	0.002181
-10.050	0.002167
-10.045	0.002167
-10.040	0.002147
-10.035	0.002153
-10.030	0.002153
-10.025	0.002132
-10.020	0.002166
-10.015	0.002132
-10.010	0.002146
-10.005	0.002160
-10.000	0.002154
-9.995	0.002140
-9.990	0.002180
-9.985	0.002160
-9.980	0.002132
-9.975	0.002140
-9.970	0.002147
-9.965	0.002126
-9.960	0.002160
-9.955	0.002112
-9.950	0.002119
-9.945	0.002132
-9.940	0.002139
-9.935	0.002147
-9.930	0.002134
-9.925	0.002140
-9.920	0.002139
-9.915	0.002125
-9.910	0.002126
-9.905	0.002153
-9.900	0.002112
-9.895	0.002091
-9.890	0.002111
-9.885	0.002131
-9.880	0.002111
-9.875	0.002091
-9.870	0.002092
-9.865	0.002099
-9.860	0.002112
-9.855	0.002111
-9.850	0.002070
-9.845	0.002099
-9.840	0.002119
-9.835	0.002071
-9.830	0.002078
-9.825	0.002092
-9.820	0.002093
-9.815	0.002064
-9.810	0.002064
-9.805	0.002064
-9.800	0.002065
-9.795	0.002078
-9.790	0.002111
-9.785	0.002090
-9.780	0.002139
-9.775	0.002056
-9.770	0.002125
-9.765	0.002076
-9.760	0.002042
-9.755	0.002083
-9.750	0.002103
-9.745	0.002083
-9.740	0.002063
-9.735	0.002064
-9.730	0.002071
-9.725	0.002084
-9.720	0.002083
-9.715	0.002042
-9.710	0.002070
-9.705	0.002091
-9.700	0.002043
-9.695	0.002050
-9.690	0.002064
-9.685	0.002064
-9.680	0.002036
-9.675	0.002036
-9.670	0.002036
-9.665	0.002037
-9.660	0.002050
-9.655	0.002083
-9.650	0.002062
-9.645	0.002111
-9.640	0.002028
-9.635	0.002097
-9.630	0.002048
-9.625	0.002014
-9.620	0.002041
-9.615	0.002041
-9.610	0.002048
-9.605	0.001987
-9.600	0.002002
-9.595	0.002022
-9.590	0.002028
-9.585	0.002014
-9.580	0.002021
-9.575	0.002021
-9.570	0.002035
-9.565	0.002028
-9.560	0.002000
-9.555	0.001993
-9.550	0.001979
-9.545	0.001973
-9.540	0.001959
-9.535	0.001980
-9.530	0.001974
-9.525	0.001966
-9.520	0.001972
-9.515	0.001959
-9.510	0.001952
-9.505	0.001918
-9.500	0.001890
-9.495	0.001841
-9.490	0.001779
-9.485	0.001586
-9.480	0.001242
-9.475	0.000746
-9.470	-0.000004
-9.465	-0.001120
-9.460	-0.002623
-9.455	-0.004477
-9.450	-0.006907
-9.445	-0.009607
-9.440	-0.012676
-9.435	-0.016177
-9.430	-0.019838
-9.425	-0.023849
-9.420	-0.028242
-9.415	-0.032651
-9.410	-0.037042
-9.405	-0.041298
-9.400	-0.045310
-9.395	-0.048950
-9.390	-0.052142
-9.385	-0.053899
-9.380	-0.053429
-9.375	-0.050722
-9.370	-0.046774
-9.365	-0.042693
-9.360	-0.038936
-9.355	-0.035790
-9.350	-0.033307
-9.345	-0.031409
-9.340	-0.029890
-9.335	-0.028611
-9.330	-0.027540
-9.325	-0.026592
-9.320	-0.025808
-9.315	-0.025104
-9.310	-0.024388
-9.305	-0.023633
-9.300	-0.022919
-9.295	-0.022248
-9.290	-0.021604
-9.285	-0.020986
-9.280	-0.020453
-9.275	-0.019975
-9.270	-0.019558
-9.265	-0.019174
-9.260	-0.018788
-9.255	-0.018405
-9.250	-0.017998
-9.245	-0.017698
-9.240	-0.017358
-9.235	-0.017038
-9.230	-0.016736
-9.225	-0.016453
-9.220	-0.016201
-9.215	-0.015900
-9.210	-0.015725
-9.205	-0.015437
-9.200	-0.015177
-9.195	-0.014941
-9.190	-0.014718
-9.185	-0.014482
-9.180	-0.014248
-9.175	-0.014091
-9.170	-0.013843
-9.165	-0.013605
-9.160	-0.013404
-9.155	-0.013299
-9.150	-0.013157
-9.145	-0.013008
-9.140	-0.012852
-9.135	-0.012703
-9.130	-0.012536
-9.125	-0.012403
-9.120	-0.012284
-9.115	-0.012132
-9.110	-0.011994
-9.105	-0.011838
-9.100	-0.011722
-9.095	-0.011624
-9.090	-0.011512
-9.085	-0.011381
-9.080	-0.011278
-9.075	-0.011182
-9.070	-0.011047
-9.065	-0.010954
-9.060	-0.010841
-9.055	-0.010751
-9.050	-0.010683
-9.045	-0.010539
-9.040	-0.010416
-9.035	-0.010343
-9.030	-0.010253
-9.025	-0.010155
-9.020	-0.010099
-9.015	-0.010037
-9.010	-0.009920
-9.005	-0.009834
-9.000	-0.009775
-8.995	-0.009685
-8.990	-0.009583
-8.985	-0.009499
-8.980	-0.009425
-8.975	-0.009379
-8.970	-0.009286
-8.965	-0.009210
-8.960	-0.009147
-8.955	-0.009071
-8.950	-0.009016
-8.945	-0.008947
-8.940	-0.008898
-8.935	-0.008803
-8.930	-0.008741
-8.925	-0.008664
-8.920	-0.008615
-8.915	-0.008546
-8.910	-0.008493
-8.905	-0.008415
-8.900	-0.008395
-8.895	-0.008285
-8.890	-0.008278
-8.885	-0.008175
-8.880	-0.008132
-8.875	-0.008082
-8.870	-0.008008
-8.865	-0.007940
-8.860	-0.007855
-8.855	-0.007798
-8.850	-0.007749
-8.845	-0.007707
-8.840	-0.007665
-8.835	-0.007583
-8.830	-0.007534
-8.825	-0.007534
-8.820	-0.007458
-8.815	-0.007424
-8.810	-0.007369
-8.805	-0.007328
-8.800	-0.007309
-8.795	-0.007220
-8.790	-0.007217
-8.785	-0.007190
-8.780	-0.007162
-8.775	-0.007100
-8.770	-0.007066
-8.765	-0.007060
-8.760	-0.006977
-8.755	-0.006948
-8.750	-0.006935
-8.745	-0.006893
-8.740	-0.006886
-8.735	-0.006785
-8.730	-0.006800
-8.725	-0.006716
-8.720	-0.006680
-8.715	-0.006666
-8.710	-0.006625
-8.705	-0.006590
-8.700	-0.006541
-8.695	-0.006486
-8.690	-0.006487
-8.685	-0.006411
-8.680	-0.006411
-8.675	-0.006384
-8.670	-0.006337
-8.665	-0.006281
-8.660	-0.006259
-8.655	-0.006217
-8.650	-0.006204
-8.645	-0.006164
-8.640	-0.006158
-8.635	-0.006103
-8.630	-0.006083
-8.625	-0.006036
-8.620	-0.006042
-8.615	-0.006000
-8.610	-0.005966
-8.605	-0.005901
-8.600	-0.005872
-8.595	-0.005858
-8.590	-0.005845
-8.585	-0.005813
-8.580	-0.005810
-8.575	-0.005755
-8.570	-0.005732
-8.565	-0.005704
-8.560	-0.005690
-8.555	-0.005670
-8.550	-0.005628
-8.545	-0.005593
-8.540	-0.005592
-8.535	-0.005574
-8.530	-0.005539
-8.525	-0.005511
-8.520	-0.005462
-8.515	-0.005449
-8.510	-0.005421
-8.505	-0.005400
-8.500	-0.005420
-8.495	-0.005358
-8.490	-0.005365
-8.485	-0.005337
-8.480	-0.005329
-8.475	-0.005287
-8.470	-0.005288
-8.465	-0.005275
-8.460	-0.005239
-8.455	-0.005196
-8.450	-0.005168
-8.445	-0.005148
-8.440	-0.005113
-8.435	-0.005099
-8.430	-0.005091
-8.425	-0.005043
-8.420	-0.005063
-8.415	-0.005008
-8.410	-0.004994
-8.405	-0.004995
-8.400	-0.004954
-8.395	-0.004906
-8.390	-0.004898
-8.385	-0.004891
-8.380	-0.004850
-8.375	-0.004809
-8.370	-0.004829
-8.365	-0.004815
-8.360	-0.004766
-8.355	-0.004780
-8.350	-0.004752
-8.345	-0.004745
-8.340	-0.004704
-8.335	-0.004685
-8.330	-0.004664
-8.325	-0.004643
-8.320	-0.004615
-8.315	-0.004622
-8.310	-0.004608
-8.305	-0.004567
-8.300	-0.004560
-8.295	-0.004573
-8.290	-0.004539
-8.285	-0.004511
-8.280	-0.004518
-8.275	-0.004505
-8.270	-0.004492
-8.265	-0.004444
-8.260	-0.004444
-8.255	-0.004423
-8.250	-0.004375
-8.245	-0.004389
-8.240	-0.004403
-8.235	-0.004347
-8.230	-0.004347
-8.225	-0.004307
-8.220	-0.004299
-8.215	-0.004313
-8.210	-0.004279
-8.205	-0.004300
-8.200	-0.004267
-8.195	-0.004252
-8.190	-0.004224
-8.185	-0.004210
-8.180	-0.004182
-8.175	-0.004175
-8.170	-0.004168
-8.165	-0.004127
-8.160	-0.004140
-8.155	-0.004105
-8.150	-0.004091
-8.145	-0.004112
-8.140	-0.004098
-8.135	-0.004072
-8.130	-0.004051
-8.125	-0.004016
-8.120	-0.003995
-8.115	-0.003974
-8.110	-0.003953
-8.105	-0.003946
-8.100	-0.003953
-8.095	-0.003912
-8.090	-0.003925
-8.085	-0.003877
-8.080	-0.003905
-8.075	-0.003870
-8.070	-0.003878
-8.065	-0.003844
-8.060	-0.003816
-8.055	-0.003788
-8.050	-0.003788
-8.045	-0.003767
-8.040	-0.003740
-8.035	-0.003747
-8.030	-0.003733
-8.025	-0.003671
-8.020	-0.003630
-8.015	-0.003603
-8.010	-0.003618
-8.005	-0.003564
-8.000	-0.003530
-7.995	-0.003537
-7.990	-0.003502
-7.985	-0.003537
-7.980	-0.003558
-7.975	-0.003578
-7.970	-0.003570
-7.965	-0.003591
-7.960	-0.003576
-7.955	-0.003596
-7.950	-0.003596
-7.945	-0.003589
-7.940	-0.003568
-7.935	-0.003583
-7.930	-0.003528
-7.925	-0.003555
-7.920	-0.003520
-7.915	-0.003527
-7.910	-0.003499
-7.905	-0.003499
-7.900	-0.003464
-7.895	-0.003471
-7.890	-0.003478
-7.885	-0.003471
-7.880	-0.003443
-7.875	-0.003437
-7.870	-0.003465
-7.865	-0.003410
-7.860	-0.003389
-7.855	-0.003402
-7.850	-0.003354
-7.845	-0.003375
-7.840	-0.003340
-7.835	-0.003326
-7.830	-0.003312
-7.825	-0.003340
-7.820	-0.003292
-7.815	-0.003298
-7.810	-0.003298
-7.805	-0.003285
-7.800	-0.003258
-7.795	-0.003272
-7.790	-0.003237
-7.785	-0.003244
-7.780	-0.003216
-7.775	-0.003188
-7.770	-0.003202
-7.765	-0.003175
-7.760	-0.003175
-7.755	-0.003210
-7.750	-0.003210
-7.745	-0.003196
-7.740	-0.003161
-7.735	-0.003142
-7.730	-0.003169
-7.725	-0.003162
-7.720	-0.003121
-7.715	-0.003114
-7.710	-0.003107
-7.705	-0.003100
-7.700	-0.003100
-7.695	-0.003094
-7.690	-0.003101
-7.685	-0.003087
-7.680	-0.003080
-7.675	-0.003087
-7.670	-0.003080
-7.665	-0.003067
-7.660	-0.003046
-7.655	-0.003031
-7.650	-0.003025
-7.645	-0.003018
-7.640	-0.003011
-7.635	-0.002997
-7.630	-0.002997
-7.625	-0.002983
-7.620	-0.002976
-7.615	-0.002984
-7.610	-0.002977
-7.605	-0.002950
-7.600	-0.002957
-7.595	-0.002950
-7.590	-0.002929
-7.585	-0.002956
-7.580	-0.002908
-7.575	-0.002867
-7.570	-0.002867
-7.565	-0.002887
-7.560	-0.002887
-7.555	-0.002894
-7.550	-0.002867
-7.545	-0.002887
-7.540	-0.002894
-7.535	-0.002881
-7.530	-0.002887
-7.525	-0.002852
-7.520	-0.002845
-7.515	-0.002845
-7.510	-0.002859
-7.505	-0.002797
-7.500	-0.002845
-7.495	-0.002838
-7.490	-0.002810
-7.485	-0.002803
-7.480	-0.002810
-7.475	-0.002796
-7.470	-0.002769
-7.465	-0.002735
-7.460	-0.002748
-7.455	-0.002721
-7.450	-0.002707
-7.445	-0.002693
-7.440	-0.002680
-7.435	-0.002714
-7.430	-0.002659
-7.425	-0.002645
-7.420	-0.002638
-7.415	-0.002638
-7.410	-0.002652
-7.405	-0.002604
-7.400	-0.002618
-7.395	-0.002618
-7.390	-0.002618
-7.385	-0.002597
-7.380	-0.002576
-7.375	-0.002604
-7.370	-0.002563
-7.365	-0.002590
-7.360	-0.002583
-7.355	-0.002570
-7.350	-0.002570
-7.345	-0.002597
-7.340	-0.002563
-7.335	-0.002543
-7.330	-0.002556
-7.325	-0.002549
-7.320	-0.002556
-7.315	-0.002556
-7.310	-0.002515
-7.305	-0.002529
-7.300	-0.002487
-7.295	-0.002508
-7.290	-0.002508
-7.285	-0.002501
-7.280	-0.002487
-7.275	-0.002474
-7.270	-0.002453
-7.265	-0.002488
-7.260	-0.002460
-7.255	-0.002446
-7.250	-0.002425
-7.245	-0.002439
-7.240	-0.002467
-7.235	-0.002426
-7.230	-0.002432
-7.225	-0.002460
-7.220	-0.002419
-7.215	-0.002432
-7.210	-0.002426
-7.205	-0.002405
-7.200	-0.002405
-7.195	-0.002398
-7.190	-0.002398
-7.185	-0.002370
-7.180	-0.002370
-7.175	-0.002377
-7.170	-0.002377
-7.165	-0.002384
-7.160	-0.002329
-7.155	-0.002357
-7.150	-0.002377
-7.145	-0.002329
-7.140	-0.002336
-7.135	-0.002350
-7.130	-0.002336
-7.125	-0.002288
-7.120	-0.002315
-7.115	-0.002315
-7.110	-0.002322
-7.105	-0.002281
-7.100	-0.002281
-7.095	-0.002274
-7.090	-0.002274
-7.085	-0.002267
-7.080	-0.002253
-7.075	-0.002274
-7.070	-0.002247
-7.065	-0.002247
-7.060	-0.002246
-7.055	-0.002239
-7.050	-0.002212
-7.045	-0.002191
-7.040	-0.002233
-7.035	-0.002205
-7.030	-0.002198
-7.025	-0.002205
-7.020	-0.002198
-7.015	-0.002191
-7.010	-0.002205
-7.005	-0.002185
-7.000	-0.002178
-6.995	-0.002185
-6.990	-0.002150
-6.985	-0.002164
-6.980	-0.002164
-6.975	-0.002143
-6.970	-0.002150
-6.965	-0.002109
-6.960	-0.002151
-6.955	-0.002123
-6.950	-0.002158
-6.945	-0.002144
-6.940	-0.002130
-6.935	-0.002117
-6.930	-0.002145
-6.925	-0.002103
-6.920	-0.002110
-6.915	-0.002117
-6.910	-0.002103
-6.905	-0.002124
-6.900	-0.002096
-6.895	-0.002103
-6.890	-0.002123
-6.885	-0.002089
-6.880	-0.002137
-6.875	-0.002103
-6.870	-0.002103
-6.865	-0.002103
-6.860	-0.002110
-6.855	-0.002110
-6.850	-0.002103
-6.845	-0.002117
-6.840	-0.002089
-6.835	-0.002103
-6.830	-0.002082
-6.825	-0.002137
-6.820	-0.002110
-6.815	-0.002130
-6.810	-0.002165
-6.805	-0.002144
-6.800	-0.002124
-6.795	-0.002138
-6.790	-0.002158
-6.785	-0.002131
-6.780	-0.002117
-6.775	-0.002103
-6.770	-0.002096
-6.765	-0.002076
-6.760	-0.002090
-6.755	-0.002069
-6.750	-0.002103
-6.745	-0.002055
-6.740	-0.002048
-6.735	-0.002042
-6.730	-0.002049
-6.725	-0.002014
-6.720	-0.002000
-6.715	-0.002014
-6.710	-0.002007
-6.705	-0.001994
-6.700	-0.001994
-6.695	-0.002014
-6.690	-0.002014
-6.685	-0.002021
-6.680	-0.002014
-6.675	-0.001980
-6.670	-0.002008
-6.665	-0.001980
-6.660	-0.001987
-6.655	-0.001994
-6.650	-0.002015
-6.645	-0.001987
-6.640	-0.001987
-6.635	-0.002008
-6.630	-0.001994
-6.625	-0.002001
-6.620	-0.002001
-6.615	-0.002015
-6.610	-0.002001
-6.605	-0.002015
-6.600	-0.001960
-6.595	-0.001981
-6.590	-0.001953
-6.585	-0.001919
-6.580	-0.001939
-6.575	-0.001912
-6.570	-0.001933
-6.565	-0.001912
-6.560	-0.001905
-6.555	-0.001912
-6.550	-0.001912
-6.545	-0.001885
-6.540	-0.001871
-6.535	-0.001878
-6.530	-0.001837
-6.525	-0.001878
-6.520	-0.001864
-6.515	-0.001850
-6.510	-0.001850
-6.505	-0.001844
-6.500	-0.001844
-6.495	-0.001857
-6.490	-0.001837
-6.485	-0.001830
-6.480	-0.001851
-6.475	-0.001823
-6.470	-0.001830
-6.465	-0.001803
-6.460	-0.001816
-6.455	-0.001837
-6.450	-0.001837
-6.445	-0.001775
-6.440	-0.001775
-6.435	-0.001809
-6.430	-0.001789
-6.425	-0.001782
-6.420	-0.001823
-6.415	-0.001803
-6.410	-0.001782
-6.405	-0.001789
-6.400	-0.001803
-6.395	-0.001803
-6.390	-0.001782
-6.385	-0.001803
-6.380	-0.001775
-6.375	-0.001762
-6.370	-0.001775
-6.365	-0.001748
-6.360	-0.001762
-6.355	-0.001782
-6.350	-0.001776
-6.345	-0.001769
-6.340	-0.001790
-6.335	-0.001762
-6.330	-0.001769
-6.325	-0.001734
-6.320	-0.001755
-6.315	-0.001741
-6.310	-0.001714
-6.305	-0.001742
-6.300	-0.001735
-6.295	-0.001728
-6.290	-0.001735
-6.285	-0.001707
-6.280	-0.001700
-6.275	-0.001735
-6.270	-0.001721
-6.265	-0.001707
-6.260	-0.001721
-6.255	-0.001714
-6.250	-0.001707
-6.245	-0.001687
-6.240	-0.001707
-6.235	-0.001673
-6.230	-0.001708
-6.225	-0.001694
-6.220	-0.001721
-6.215	-0.001728
-6.210	-0.001687
-6.205	-0.001708
-6.200	-0.001687
-6.195	-0.001687
-6.190	-0.001673
-6.185	-0.001659
-6.180	-0.001687
-6.175	-0.001694
-6.170	-0.001687
-6.165	-0.001694
-6.160	-0.001646
-6.155	-0.001666
-6.150	-0.001708
-6.145	-0.001694
-6.140	-0.001673
-6.135	-0.001694
-6.130	-0.001667
-6.125	-0.001667
-6.120	-0.001646
-6.115	-0.001653
-6.110	-0.001639
-6.105	-0.001618
-6.100	-0.001660
-6.095	-0.001660
-6.090	-0.001660
-6.085	-0.001653
-6.080	-0.001653
-6.075	-0.001618
-6.070	-0.001619
-6.065	-0.001612
-6.060	-0.001612
-6.055	-0.001612
-6.050	-0.001625
-6.045	-0.001591
-6.040	-0.001584
-6.035	-0.001577
-6.030	-0.001626
-6.025	-0.001612
-6.020	-0.001570
-6.015	-0.001591
-6.010	-0.001591
-6.005	-0.001557
-6.000	-0.001598
-5.995	-0.001550
-5.990	-0.001543
-5.985	-0.001516
-5.980	-0.001543
-5.975	-0.001529
-5.970	-0.001543
-5.965	-0.001529
-5.960	-0.001536
-5.955	-0.001502
-5.950	-0.001495
-5.945	-0.001495
-5.940	-0.001509
-5.935	-0.001468
-5.930	-0.001481
-5.925	-0.001454
-5.920	-0.001433
-5.915	-0.001447
-5.910	-0.001447
-5.905	-0.001420
-5.900	-0.001399
-5.895	-0.001420
-5.890	-0.001399
-5.885	-0.001427
-5.880	-0.001440
-5.875	-0.001392
-5.870	-0.001413
-5.865	-0.001399
-5.860	-0.001385
-5.855	-0.001406
-5.850	-0.001379
-5.845	-0.001365
-5.840	-0.001372
-5.835	-0.001392
-5.830	-0.001399
-5.825	-0.001379
-5.820	-0.001379
-5.815	-0.001379
-5.810	-0.001386
-5.805	-0.001420
-5.800	-0.001434
-5.795	-0.001427
-5.790	-0.001489
-5.785	-0.001510
-5.780	-0.001530
-5.775	-0.001606
-5.770	-0.001661
-5.765	-0.001792
-5.760	-0.001813
-5.755	-0.001930
-5.750	-0.001999
-5.745	-0.002109
-5.740	-0.002212
-5.735	-0.002281
-5.730	-0.002426
-5.725	-0.002467
-5.720	-0.002556
-5.715	-0.002611
-5.710	-0.002666
-5.705	-0.002728
-5.700	-0.002694
-5.695	-0.002666
-5.690	-0.002611
-5.685	-0.002549
-5.680	-0.002487
-5.675	-0.002343
-5.670	-0.002192
-5.665	-0.002061
-5.660	-0.001916
-5.655	-0.001792
-5.650	-0.001648
-5.645	-0.001545
-5.640	-0.001435
-5.635	-0.001387
-5.630	-0.001311
-5.625	-0.001263
-5.620	-0.001235
-5.615	-0.001228
-5.610	-0.001201
-5.605	-0.001180
-5.600	-0.001194
-5.595	-0.001194
-5.590	-0.001180
-5.585	-0.001215
-5.580	-0.001208
-5.575	-0.001235
-5.570	-0.001222
-5.565	-0.001201
-5.560	-0.001208
-5.555	-0.001208
-5.550	-0.001201
-5.545	-0.001194
-5.540	-0.001201
-5.535	-0.001229
-5.530	-0.001215
-5.525	-0.001222
-5.520	-0.001194
-5.515	-0.001215
-5.510	-0.001201
-5.505	-0.001215
-5.500	-0.001194
-5.495	-0.001208
-5.490	-0.001201
-5.485	-0.001236
-5.480	-0.001215
-5.475	-0.001229
-5.470	-0.001222
-5.465	-0.001236
-5.460	-0.001174
-5.455	-0.001153
-5.450	-0.000926
-5.445	-0.000581
-5.440	0.000074
-5.435	0.001006
-5.430	0.002262
-5.425	0.004253
-5.420	0.006681
-5.415	0.009820
-5.410	0.013408
-5.405	0.017197
-5.400	0.021913
-5.395	0.027000
-5.390	0.032132
-5.385	0.038085
-5.380	0.044550
-5.375	0.050285
-5.370	0.055499
-5.365	0.060999
-5.360	0.066848
-5.355	0.071161
-5.350	0.072388
-5.345	0.070828
-5.340	0.067387
-5.335	0.063279
-5.330	0.059265
-5.325	0.055588
-5.320	0.052409
-5.315	0.049717
-5.310	0.047450
-5.305	0.045499
-5.300	0.043721
-5.295	0.042146
-5.290	0.040742
-5.285	0.039471
-5.280	0.038312
-5.275	0.037223
-5.270	0.036319
-5.265	0.035501
-5.260	0.034773
-5.255	0.033963
-5.250	0.033251
-5.245	0.032577
-5.240	0.031950
-5.235	0.031324
-5.230	0.030726
-5.225	0.030142
-5.220	0.029534
-5.215	0.028968
-5.210	0.028485
-5.205	0.028065
-5.200	0.027642
-5.195	0.027223
-5.190	0.026744
-5.185	0.026273
-5.180	0.025820
-5.175	0.025441
-5.170	0.025113
-5.165	0.024755
-5.160	0.024469
-5.155	0.024191
-5.150	0.023850
-5.145	0.023510
-5.140	0.023232
-5.135	0.023025
-5.130	0.022776
-5.125	0.022588
-5.120	0.022388
-5.115	0.022175
-5.110	0.021964
-5.105	0.021823
-5.100	0.021605
-5.095	0.021406
-5.090	0.021149
-5.085	0.020862
-5.080	0.020623
-5.075	0.020455
-5.070	0.020337
-5.065	0.020246
-5.060	0.020066
-5.055	0.019883
-5.050	0.019709
-5.045	0.019525
-5.040	0.019346
-5.035	0.019153
-5.030	0.018924
-5.025	0.018688
-5.020	0.018492
-5.015	0.018394
-5.010	0.018233
-5.005	0.018109
-5.000	0.018080
-4.995	0.017879
-4.990	0.017748
-4.985	0.017598
-4.980	0.017439
-4.975	0.017324
-4.970	0.017213
-4.965	0.017062
-4.960	0.016866
-4.955	0.016653
-4.950	0.016494
-4.945	0.016349
-4.940	0.016211
-4.935	0.016117
-4.930	0.016050
-4.925	0.015941
-4.920	0.015828
-4.915	0.015741
-4.910	0.015693
-4.905	0.015667
-4.900	0.015641
-4.895	0.015578
-4.890	0.015535
-4.885	0.015481
-4.880	0.015349
-4.875	0.015193
-4.870	0.015103
-4.865	0.015047
-4.860	0.015013
-4.855	0.014969
-4.850	0.014927
-4.845	0.014919
-4.840	0.014884
-4.835	0.014832
-4.830	0.014806
-4.825	0.014660
-4.820	0.014499
-4.815	0.014361
-4.810	0.014174
-4.805	0.014098
-4.800	0.013967
-4.795	0.013862
-4.790	0.013846
-4.785	0.013798
-4.780	0.013702
-4.775	0.013630
-4.770	0.013561
-4.765	0.013479
-4.760	0.013411
-4.755	0.013295
-4.750	0.013210
-4.745	0.013148
-4.740	0.013066
-4.735	0.013026
-4.730	0.012969
-4.725	0.012911
-4.720	0.012905
-4.715	0.012893
-4.710	0.012821
-4.705	0.012738
-4.700	0.012665
-4.695	0.012707
-4.690	0.012687
-4.685	0.012686
-4.680	0.012607
-4.675	0.012485
-4.670	0.012418
-4.665	0.012287
-4.660	0.012186
-4.655	0.012118
-4.650	0.012021
-4.645	0.011953
-4.640	0.011811
-4.635	0.011688
-4.630	0.011651
-4.625	0.011638
-4.620	0.011616
-4.615	0.011637
-4.610	0.011646
-4.605	0.011632
-4.600	0.011621
-4.595	0.011638
-4.590	0.011609
-4.585	0.011535
-4.580	0.011459
-4.575	0.011398
-4.570	0.011357
-4.565	0.011262
-4.560	0.011193
-4.555	0.011159
-4.550	0.011102
-4.545	0.011102
-4.540	0.011089
-4.535	0.011086
-4.530	0.011003
-4.525	0.010898
-4.520	0.010855
-4.515	0.010759
-4.510	0.010711
-4.505	0.010604
-4.500	0.010570
-4.495	0.010495
-4.490	0.010501
-4.485	0.010478
-4.480	0.010451
-4.475	0.010447
-4.470	0.010396
-4.465	0.010367
-4.460	0.010384
-4.455	0.010349
-4.450	0.010336
-4.445	0.010323
-4.440	0.010273
-4.435	0.010245
-4.430	0.010190
-4.425	0.010100
-4.420	0.010003
-4.415	0.009940
-4.410	0.009830
-4.405	0.009766
-4.400	0.009702
-4.395	0.009711
-4.390	0.009704
-4.385	0.009678
-4.380	0.009698
-4.375	0.009665
-4.370	0.009693
-4.365	0.009713
-4.360	0.009663
-4.355	0.009622
-4.350	0.009600
-4.345	0.009520
-4.340	0.009454
-4.335	0.009407
-4.330	0.009424
-4.325	0.009399
-4.320	0.009376
-4.315	0.009316
-4.310	0.009266
-4.305	0.009198
-4.300	0.009190
-4.295	0.009090
-4.290	0.009055
-4.285	0.009027
-4.280	0.009046
-4.275	0.008999
-4.270	0.009001
-4.265	0.008938
-4.260	0.008934
-4.255	0.008913
-4.250	0.008919
-4.245	0.008912
-4.240	0.008863
-4.235	0.008898
-4.230	0.008945
-4.225	0.008944
-4.220	0.008956
-4.215	0.008930
-4.210	0.008882
-4.205	0.008919
-4.200	0.008850
-4.195	0.008767
-4.190	0.008676
-4.185	0.008561
-4.180	0.008388
-4.175	0.008232
-4.170	0.008053
-4.165	0.007812
-4.160	0.007447
-4.155	0.006911
-4.150	0.006101
-4.145	0.004941
-4.140	0.003416
-4.135	0.001339
-4.130	-0.001249
-4.125	-0.004354
-4.120	-0.007997
-4.115	-0.012148
-4.110	-0.016916
-4.105	-0.022024
-4.100	-0.027655
-4.095	-0.033698
-4.090	-0.039836
-4.085	-0.045954
-4.080	-0.052093
-4.075	-0.057969
-4.070	-0.063180
-4.065	-0.067275
-4.060	-0.069871
-4.055	-0.070753
-4.050	-0.069702
-4.045	-0.066907
-4.040	-0.062971
-4.035	-0.058646
-4.030	-0.054477
-4.025	-0.050810
-4.020	-0.047680
-4.015	-0.045017
-4.010	-0.042749
-4.005	-0.040822
-4.000	-0.039117
-3.995	-0.037605
-3.990	-0.036210
-3.985	-0.034972
-3.980	-0.033859
-3.975	-0.032876
-3.970	-0.031901
-3.965	-0.031058
-3.960	-0.030289
-3.955	-0.029587
-3.950	-0.028900
-3.945	-0.028287
-3.940	-0.027656
-3.935	-0.027112
-3.930	-0.026595
-3.925	-0.026087
-3.920	-0.025525
-3.915	-0.025053
-3.910	-0.024554
-3.905	-0.023826
-3.900	-0.022441
-3.895	-0.021180
-3.890	-0.021494
-3.885	-0.022003
-3.880	-0.021225
-3.875	-0.021136
-3.870	-0.022192
-3.865	-0.022826
-3.860	-0.022757
-3.855	-0.022115
-3.850	-0.020661
-3.845	-0.019573
-3.840	-0.019269
-3.835	-0.019567
-3.830	-0.020026
-3.825	-0.019667
-3.820	-0.018631
-3.815	-0.017960
-3.810	-0.017760
-3.805	-0.017584
-3.800	-0.017571
-3.795	-0.017593
-3.790	-0.017233
-3.785	-0.016861
-3.780	-0.016802
-3.775	-0.016706
-3.770	-0.016346
-3.765	-0.016025
-3.760	-0.015841
-3.755	-0.015703
-3.750	-0.015498
-3.745	-0.015372
-3.740	-0.015151
-3.735	-0.014960
-3.730	-0.014810
-3.725	-0.014680
-3.720	-0.014521
-3.715	-0.014412
-3.710	-0.014266
-3.705	-0.014064
-3.700	-0.013850
-3.695	-0.013716
-3.690	-0.013715
-3.685	-0.013672
-3.680	-0.013427
-3.675	-0.013203
-3.670	-0.013018
-3.665	-0.012941
-3.660	-0.012838
-3.655	-0.012710
-3.650	-0.012622
-3.645	-0.012523
-3.640	-0.012403
-3.635	-0.012264
-3.630	-0.012152
-3.625	-0.011980
-3.620	-0.011806
-3.615	-0.011634
-3.610	-0.011376
-3.605	-0.011146
-3.600	-0.010869
-3.595	-0.010795
-3.590	-0.010490
-3.585	-0.010133
-3.580	-0.009881
-3.575	-0.009445
-3.570	-0.008877
-3.565	-0.008427
-3.560	-0.008044
-3.555	-0.007680
-3.550	-0.007167
-3.545	-0.006544
-3.540	-0.005803
-3.535	-0.005111
-3.530	-0.004391
-3.525	-0.003680
-3.520	-0.003016
-3.515	-0.002554
-3.510	-0.002031
-3.505	-0.001487
-3.500	-0.000990
-3.495	-0.000653
-3.490	-0.000192
-3.485	0.000289
-3.480	0.000687
-3.475	0.000734
-3.470	0.000823
-3.465	0.000850
-3.460	0.000898
-3.455	0.000844
-3.450	0.000775
-3.445	0.000706
-3.440	0.000830
-3.435	0.000939
-3.430	0.001124
-3.425	0.001454
-3.420	0.001785
-3.415	0.002262
-3.410	0.002941
-3.405	0.003625
-3.400	0.004451
-3.395	0.005300
-3.390	0.006149
-3.385	0.007190
-3.380	0.008316
-3.375	0.009319
-3.370	0.010322
-3.365	0.011316
-3.360	0.012073
-3.355	0.012345
-3.350	0.012254
-3.345	0.011833
-3.340	0.011293
-3.335	0.010797
-3.330	0.010374
-3.325	0.009983
-3.320	0.009640
-3.315	0.009420
-3.310	0.009287
-3.305	0.009194
-3.300	0.009116
-3.295	0.008958
-3.290	0.008793
-3.285	0.008768
-3.280	0.008744
-3.275	0.008835
-3.270	0.008917
-3.265	0.008917
-3.260	0.008990
-3.255	0.009100
-3.250	0.009172
-3.245	0.009192
-3.240	0.009300
-3.235	0.009302
-3.230	0.009434
-3.225	0.009498
-3.220	0.009526
-3.215	0.009589
-3.210	0.009692
-3.205	0.009891
-3.200	0.010059
-3.195	0.010177
-3.190	0.010343
-3.185	0.010462
-3.180	0.010544
-3.175	0.010675
-3.170	0.010800
-3.165	0.010860
-3.160	0.010903
-3.155	0.010918
-3.150	0.010961
-3.145	0.011009
-3.140	0.011092
-3.135	0.011216
-3.130	0.011301
-3.125	0.011348
-3.120	0.011368
-3.115	0.011434
-3.110	0.011452
-3.105	0.011578
-3.100	0.011667
-3.095	0.011683
-3.090	0.011644
-3.085	0.011708
-3.080	0.011869
-3.075	0.012011
-3.070	0.012118
-3.065	0.012177
-3.060	0.012032
-3.055	0.011311
-3.050	0.010202
-3.045	0.010415
-3.040	0.012132
-3.035	0.013178
-3.030	0.013155
-3.025	0.012451
-3.020	0.011654
-3.015	0.012235
-3.010	0.013670
-3.005	0.014293
-3.000	0.013955
-2.995	0.013590
-2.990	0.013708
-2.985	0.013876
-2.980	0.013923
-2.975	0.013968
-2.970	0.013966
-2.965	0.013944
-2.960	0.013948
-2.955	0.013925
-2.950	0.013726
-2.945	0.013763
-2.940	0.014310
-2.935	0.014720
-2.930	0.014578
-2.925	0.014587
-2.920	0.014938
-2.915	0.014976
-2.910	0.014748
-2.905	0.014718
-2.900	0.014821
-2.895	0.014773
-2.890	0.014878
-2.885	0.015412
-2.880	0.015785
-2.875	0.015824
-2.870	0.015720
-2.865	0.015616
-2.860	0.015638
-2.855	0.015643
-2.850	0.015805
-2.845	0.016005
-2.840	0.015977
-2.835	0.015673
-2.830	0.015464
-2.825	0.015486
-2.820	0.015561
-2.815	0.015698
-2.810	0.015677
-2.805	0.015501
-2.800	0.015366
-2.795	0.015406
-2.790	0.015585
-2.785	0.015949
-2.780	0.016344
-2.775	0.016441
-2.770	0.016257
-2.765	0.016143
-2.760	0.016201
-2.755	0.016419
-2.750	0.016682
-2.745	0.016809
-2.740	0.016759
-2.735	0.016749
-2.730	0.017087
-2.725	0.017301
-2.720	0.017297
-2.715	0.017149
-2.710	0.017239
-2.705	0.017580
-2.700	0.017869
-2.695	0.017806
-2.690	0.017674
-2.685	0.017629
-2.680	0.017704
-2.675	0.017918
-2.670	0.018092
-2.665	0.018039
-2.660	0.018052
-2.655	0.018141
-2.650	0.018392
-2.645	0.018427
-2.640	0.018323
-2.635	0.018371
-2.630	0.018380
-2.625	0.018192
-2.620	0.017951
-2.615	0.018054
-2.610	0.018425
-2.605	0.018485
-2.600	0.018175
-2.595	0.017958
-2.590	0.018066
-2.585	0.018213
-2.580	0.018324
-2.575	0.018481
-2.570	0.018634
-2.565	0.018649
-2.560	0.018609
-2.555	0.018660
-2.550	0.018809
-2.545	0.018935
-2.540	0.018970
-2.535	0.018874
-2.530	0.018709
-2.525	0.018640
-2.520	0.018669
-2.515	0.018786
-2.510	0.018845
-2.505	0.018876
-2.500	0.018794
-2.495	0.018639
-2.490	0.018665
-2.485	0.018971
-2.480	0.019135
-2.475	0.019152
-2.470	0.019172
-2.465	0.019163
-2.460	0.019181
-2.455	0.019242
-2.450	0.019337
-2.445	0.019367
-2.440	0.019329
-2.435	0.019365
-2.430	0.019292
-2.425	0.019340
-2.420	0.019376
-2.415	0.019444
-2.410	0.019501
-2.405	0.019665
-2.400	0.019759
-2.395	0.019807
-2.390	0.019858
-2.385	0.019905
-2.380	0.019874
-2.375	0.019840
-2.370	0.019901
-2.365	0.019899
-2.360	0.019832
-2.355	0.019859
-2.350	0.019981
-2.345	0.020067
-2.340	0.020114
-2.335	0.020097
-2.330	0.020113
-2.325	0.020149
-2.320	0.020089
-2.315	0.020029
-2.310	0.019911
-2.305	0.019857
-2.300	0.019854
-2.295	0.019844
-2.290	0.019797
-2.285	0.019771
-2.280	0.019832
-2.275	0.019897
-2.270	0.019851
-2.265	0.019798
-2.260	0.019762
-2.255	0.019778
-2.250	0.019673
-2.245	0.019621
-2.240	0.019624
-2.235	0.019637
-2.230	0.019555
-2.225	0.019505
-2.220	0.019536
-2.215	0.019609
-2.210	0.019610
-2.205	0.019639
-2.200	0.019758
-2.195	0.019856
-2.190	0.019897
-2.185	0.019900
-2.180	0.019936
-2.175	0.019896
-2.170	0.019811
-2.165	0.019777
-2.160	0.019779
-2.155	0.019863
-2.150	0.019990
-2.145	0.020130
-2.140	0.020219
-2.135	0.020296
-2.130	0.020388
-2.125	0.020483
-2.120	0.020460
-2.115	0.020400
-2.110	0.020346
-2.105	0.020271
-2.100	0.020245
-2.095	0.020199
-2.090	0.020151
-2.085	0.020027
-2.080	0.019950
-2.075	0.019835
-2.070	0.019756
-2.065	0.019757
-2.060	0.019789
-2.055	0.019850
-2.050	0.019932
-2.045	0.020007
-2.040	0.020031
-2.035	0.020085
-2.030	0.020113
-2.025	0.020224
-2.020	0.020299
-2.015	0.020325
-2.010	0.020305
-2.005	0.020346
-2.000	0.020310
-1.995	0.020320
-1.990	0.020263
-1.985	0.020249
-1.980	0.020263
-1.975	0.020227
-1.970	0.020189
-1.965	0.020064
-1.960	0.019956
-1.955	0.019838
-1.950	0.019726
-1.945	0.019602
-1.940	0.019492
-1.935	0.019389
-1.930	0.019302
-1.925	0.019246
-1.920	0.019188
-1.915	0.019125
-1.910	0.019040
-1.905	0.019115
-1.900	0.019112
-1.895	0.019147
-1.890	0.019231
-1.885	0.019326
-1.880	0.019394
-1.875	0.019466
-1.870	0.019428
-1.865	0.019379
-1.860	0.019333
-1.855	0.019252
-1.850	0.019288
-1.845	0.019316
-1.840	0.019348
-1.835	0.019412
-1.830	0.019489
-1.825	0.019615
-1.820	0.019716
-1.815	0.019792
-1.810	0.019777
-1.805	0.019724
-1.800	0.019621
-1.795	0.019535
-1.790	0.019465
-1.785	0.019354
-1.780	0.019180
-1.775	0.018975
-1.770	0.018779
-1.765	0.018639
-1.760	0.018414
-1.755	0.018303
-1.750	0.018223
-1.745	0.018105
-1.740	0.017999
-1.735	0.017953
-1.730	0.017939
-1.725	0.017998
-1.720	0.018105
-1.715	0.018237
-1.710	0.018345
-1.705	0.018407
-1.700	0.018503
-1.695	0.018598
-1.690	0.018686
-1.685	0.018731
-1.680	0.018686
-1.675	0.018675
-1.670	0.018649
-1.665	0.018625
-1.660	0.018544
-1.655	0.018532
-1.650	0.018510
-1.645	0.018593
-1.640	0.018627
-1.635	0.018716
-1.630	0.018710
-1.625	0.018711
-1.620	0.018697
-1.615	0.018719
-1.610	0.018644
-1.605	0.018584
-1.600	0.018509
-1.595	0.018444
-1.590	0.018315
-1.585	0.018163
-1.580	0.017994
-1.575	0.017859
-1.570	0.017634
-1.565	0.017524
-1.560	0.017380
-1.555	0.017276
-1.550	0.017152
-1.545	0.017022
-1.540	0.016929
-1.535	0.016867
-1.530	0.016838
-1.525	0.016900
-1.520	0.016962
-1.515	0.016962
-1.510	0.016961
-1.505	0.016917
-1.500	0.016868
-1.495	0.016810
-1.490	0.016732
-1.485	0.016650
-1.480	0.016614
-1.475	0.016504
-1.470	0.016413
-1.465	0.016331
-1.460	0.016250
-1.455	0.016252
-1.450	0.016303
-1.445	0.016319
-1.440	0.016323
-1.435	0.016291
-1.430	0.016280
-1.425	0.016317
-1.420	0.016320
-1.415	0.016361
-1.410	0.016356
-1.405	0.016396
-1.400	0.016432
-1.395	0.016397
-1.390	0.016351
-1.385	0.016315
-1.380	0.016258
-1.375	0.016175
-1.370	0.016090
-1.365	0.015944
-1.360	0.015826
-1.355	0.015709
-1.350	0.015627
-1.345	0.015499
-1.340	0.015430
-1.335	0.015333
-1.330	0.015205
-1.325	0.015132
-1.320	0.015053
-1.315	0.014960
-1.310	0.014939
-1.305	0.014937
-1.300	0.014883
-1.295	0.014932
-1.290	0.014932
-1.285	0.014932
-1.280	0.014986
-1.275	0.014943
-1.270	0.014901
-1.265	0.014951
-1.260	0.015029
-1.255	0.015107
-1.250	0.015126
-1.245	0.015047
-1.240	0.014965
-1.235	0.014849
-1.230	0.014683
-1.225	0.014548
-1.220	0.014412
-1.215	0.014370
-1.210	0.014262
-1.205	0.014216
-1.200	0.014179
-1.195	0.014206
-1.190	0.014171
-1.185	0.014231
-1.180	0.014283
-1.175	0.014318
-1.170	0.014352
-1.165	0.014359
-1.160	0.014401
-1.155	0.014414
-1.150	0.014391
-1.145	0.014365
-1.140	0.014294
-1.135	0.014268
-1.130	0.014193
-1.125	0.014057
-1.120	0.013931
-1.115	0.013794
-1.110	0.013645
-1.105	0.013509
-1.100	0.013346
-1.095	0.013204
-1.090	0.013081
-1.085	0.012940
-1.080	0.012830
-1.075	0.012790
-1.070	0.012720
-1.065	0.012678
-1.060	0.012629
-1.055	0.012649
-1.050	0.012625
-1.045	0.012563
-1.040	0.012547
-1.035	0.012507
-1.030	0.012519
-1.025	0.012484
-1.020	0.012449
-1.015	0.012428
-1.010	0.012397
-1.005	0.012353
-1.000	0.012389
-0.995	0.012316
-0.990	0.012314
-0.985	0.012205
-0.980	0.012204
-0.975	0.012127
-0.970	0.012065
-0.965	0.012018
-0.960	0.011937
-0.955	0.011881
-0.950	0.011830
-0.945	0.011736
-0.940	0.011686
-0.935	0.011602
-0.930	0.011613
-0.925	0.011538
-0.920	0.011448
-0.915	0.011355
-0.910	0.011265
-0.905	0.011212
-0.900	0.011121
-0.895	0.011066
-0.890	0.011024
-0.885	0.010955
-0.880	0.010879
-0.875	0.010816
-0.870	0.010769
-0.865	0.010760
-0.860	0.010707
-0.855	0.010688
-0.850	0.010659
-0.845	0.010658
-0.840	0.010588
-0.835	0.010567
-0.830	0.010456
-0.825	0.010423
-0.820	0.010354
-0.815	0.010286
-0.810	0.010194
-0.805	0.010127
-0.800	0.010064
-0.795	0.009980
-0.790	0.009893
-0.785	0.009791
-0.780	0.009674
-0.775	0.009584
-0.770	0.009502
-0.765	0.009386
-0.760	0.009318
-0.755	0.009268
-0.750	0.009166
-0.745	0.009119
-0.740	0.009053
-0.735	0.008950
-0.730	0.008843
-0.725	0.008822
-0.720	0.008773
-0.715	0.008713
-0.710	0.008685
-0.705	0.008645
-0.700	0.008540
-0.695	0.008485
-0.690	0.008414
-0.685	0.008401
-0.680	0.008334
-0.675	0.008270
-0.670	0.008207
-0.665	0.008150
-0.660	0.008061
-0.655	0.007986
-0.650	0.007917
-0.645	0.007835
-0.640	0.007764
-0.635	0.007695
-0.630	0.007623
-0.625	0.007554
-0.620	0.007524
-0.615	0.007475
-0.610	0.007388
-0.605	0.007357
-0.600	0.007314
-0.595	0.007249
-0.590	0.007215
-0.585	0.007145
-0.580	0.007097
-0.575	0.007056
-0.570	0.007030
-0.565	0.006967
-0.560	0.006912
-0.555	0.006856
-0.550	0.006822
-0.545	0.006783
-0.540	0.006752
-0.535	0.006675
-0.530	0.006679
-0.525	0.006644
-0.520	0.006568
-0.515	0.006548
-0.510	0.006528
-0.505	0.006474
-0.500	0.006410
-0.495	0.006388
-0.490	0.006332
-0.485	0.006248
-0.480	0.006205
-0.475	0.006118
-0.470	0.006067
-0.465	0.006051
-0.460	0.005952
-0.455	0.005878
-0.450	0.005776
-0.445	0.005687
-0.440	0.005570
-0.435	0.005501
-0.430	0.005397
-0.425	0.005309
-0.420	0.005246
-0.415	0.005157
-0.410	0.005061
-0.405	0.004979
-0.400	0.004860
-0.395	0.004784
-0.390	0.004703
-0.385	0.004587
-0.380	0.004492
-0.375	0.004394
-0.370	0.004270
-0.365	0.004208
-0.360	0.004118
-0.355	0.004028
-0.350	0.003944
-0.345	0.003930
-0.340	0.003868
-0.335	0.003853
-0.330	0.003857
-0.325	0.003829
-0.320	0.003801
-0.315	0.003733
-0.310	0.003677
-0.305	0.003621
-0.300	0.003607
-0.295	0.003552
-0.290	0.003491
-0.285	0.003422
-0.280	0.003422
-0.275	0.003362
-0.270	0.003375
-0.265	0.003354
-0.260	0.003298
-0.255	0.003223
-0.250	0.003142
-0.245	0.003075
-0.240	0.003032
-0.235	0.003004
-0.230	0.002983
-0.225	0.002935
-0.220	0.002886
-0.215	0.002865
-0.210	0.002858
-0.205	0.002818
-0.200	0.002715
-0.195	0.002632
-0.190	0.002625
-0.185	0.002570
-0.180	0.002568
-0.175	0.002691
-0.170	0.002867
-0.165	0.003067
-0.160	0.003260
-0.155	0.003338
-0.150	0.003435
-0.145	0.003485
-0.140	0.003492
-0.135	0.003430
-0.130	0.003352
-0.125	0.003090
-0.120	0.002698
-0.115	0.002079
-0.110	0.001363
-0.105	0.000673
-0.100	-0.000188
-0.095	-0.001283
-0.090	-0.002378
-0.085	-0.003516
-0.080	-0.004413
-0.075	-0.004983
-0.070	-0.005440
-0.065	-0.005512
-0.060	-0.004970
-0.055	-0.003902
-0.050	-0.002468
-0.045	-0.000815
-0.040	0.000989
-0.035	0.002871
-0.030	0.004683
-0.025	0.006014
-0.020	0.006961
-0.015	0.007248
-0.010	0.006950
-0.005	0.006018
0.000	0.004708
0.005	0.003092
0.010	0.001414
0.015	-0.000159
0.020	-0.001593
0.025	-0.002639
0.030	-0.003245
0.035	-0.003508
0.040	-0.003598
0.045	-0.003412
0.050	-0.002978
0.055	-0.002503
0.060	-0.002103
0.065	-0.001786
0.070	-0.001524
0.075	-0.001401
0.080	-0.001332
0.085	-0.001380
0.090	-0.001380
0.095	-0.001414
0.100	-0.001545
0.105	-0.001683
0.110	-0.001855
0.115	-0.001951
0.120	-0.002007
0.125	-0.002041
0.130	-0.002166
0.135	-0.002241
0.140	-0.002351
0.145	-0.002496
0.150	-0.002599
0.155	-0.002689
0.160	-0.002771
0.165	-0.002882
0.170	-0.002957
0.175	-0.003047
0.180	-0.003123
0.185	-0.003254
0.190	-0.003316
0.195	-0.003406
0.200	-0.003495
0.205	-0.003550
0.210	-0.003585
0.215	-0.003667
0.220	-0.003716
0.225	-0.003744
0.230	-0.003792
0.235	-0.003820
0.240	-0.003881
0.245	-0.003943
0.250	-0.003943
0.255	-0.003971
0.260	-0.004006
0.265	-0.004033
0.270	-0.004032
0.275	-0.004075
0.280	-0.004047
0.285	-0.004047
0.290	-0.004082
0.295	-0.004116
0.300	-0.004129
0.305	-0.004170
0.310	-0.004204
0.315	-0.004259
0.320	-0.004246
0.325	-0.004282
0.330	-0.004290
0.335	-0.004304
0.340	-0.004352
0.345	-0.004428
0.350	-0.004511
0.355	-0.004599
0.360	-0.004681
0.365	-0.004785
0.370	-0.004852
0.375	-0.004955
0.380	-0.004975
0.385	-0.004996
0.390	-0.005054
0.395	-0.005102
0.400	-0.005183
0.405	-0.005224
0.410	-0.005307
0.415	-0.005404
0.420	-0.005460
0.425	-0.005577
0.430	-0.005680
0.435	-0.005749
0.440	-0.005809
0.445	-0.005857
0.450	-0.005946
0.455	-0.006030
0.460	-0.006148
0.465	-0.006195
0.470	-0.006284
0.475	-0.006395
0.480	-0.006478
0.485	-0.006582
0.490	-0.006699
0.495	-0.006802
0.500	-0.006876
0.505	-0.006992
0.510	-0.007081
0.515	-0.007219
0.520	-0.007316
0.525	-0.007401
0.530	-0.007443
0.535	-0.007498
0.540	-0.007519
0.545	-0.007638
0.550	-0.007671
0.555	-0.007734
0.560	-0.007761
0.565	-0.007871
0.570	-0.007911
0.575	-0.007919
0.580	-0.007938
0.585	-0.007980
0.590	-0.008045
0.595	-0.008121
0.600	-0.008141
0.605	-0.008180
0.610	-0.008234
0.615	-0.008283
0.620	-0.008344
0.625	-0.008427
0.630	-0.008453
0.635	-0.008514
0.640	-0.008602
0.645	-0.008645
0.650	-0.008699
0.655	-0.008743
0.660	-0.008794
0.665	-0.008833
0.670	-0.008844
0.675	-0.008867
0.680	-0.008859
0.685	-0.008867
0.690	-0.008909
0.695	-0.008915
0.700	-0.008923
0.705	-0.008950
0.710	-0.008965
0.715	-0.009014
0.720	-0.009041
0.725	-0.009051
0.730	-0.009104
0.735	-0.009130
0.740	-0.009212
0.745	-0.009281
0.750	-0.009391
0.755	-0.009453
0.760	-0.009563
0.765	-0.009654
0.770	-0.009736
0.775	-0.009848
0.780	-0.009923
0.785	-0.010034
0.790	-0.010135
0.795	-0.010231
0.800	-0.010304
0.805	-0.010399
0.810	-0.010475
0.815	-0.010572
0.820	-0.010689
0.825	-0.010738
0.830	-0.010820
0.835	-0.010884
0.840	-0.010945
0.845	-0.011035
0.850	-0.011102
0.855	-0.011181
0.860	-0.011258
0.865	-0.011356
0.870	-0.011441
0.875	-0.011581
0.880	-0.011697
0.885	-0.011829
0.890	-0.011903
0.895	-0.012025
0.900	-0.012128
0.905	-0.012208
0.910	-0.012347
0.915	-0.012381
0.920	-0.012472
0.925	-0.012522
0.930	-0.012543
0.935	-0.012539
0.940	-0.012523
0.945	-0.012497
0.950	-0.012523
0.955	-0.012538
0.960	-0.012469
0.965	-0.012457
0.970	-0.012435
0.975	-0.012449
0.980	-0.012426
0.985	-0.012371
0.990	-0.012381
0.995	-0.012353
1.000	-0.012386
1.005	-0.012433
1.010	-0.012462
1.015	-0.012523
1.020	-0.012599
1.025	-0.012684
1.030	-0.012753
1.035	-0.012863
1.040	-0.012972
1.045	-0.013104
1.050	-0.013167
1.055	-0.013240
1.060	-0.013324
1.065	-0.013392
1.070	-0.013445
1.075	-0.013461
1.080	-0.013532
1.085	-0.013574
1.090	-0.013625
1.095	-0.013666
1.100	-0.013694
1.105	-0.013674
1.110	-0.013708
1.115	-0.013730
1.120	-0.013744
1.125	-0.013782
1.130	-0.013799
1.135	-0.013801
1.140	-0.013881
1.145	-0.013931
1.150	-0.013979
1.155	-0.014055
1.160	-0.014184
1.165	-0.014274
1.170	-0.014382
1.175	-0.014477
1.180	-0.014594
1.185	-0.014692
1.190	-0.014760
1.195	-0.014918
1.200	-0.014955
1.205	-0.015030
1.210	-0.015100
1.215	-0.015089
1.220	-0.015123
1.225	-0.015143
1.230	-0.015162
1.235	-0.015127
1.240	-0.015111
1.245	-0.015091
1.250	-0.015080
1.255	-0.015093
1.260	-0.015095
1.265	-0.015135
1.270	-0.015115
1.275	-0.015171
1.280	-0.015206
1.285	-0.015241
1.290	-0.015371
1.295	-0.015418
1.300	-0.015503
1.305	-0.015579
1.310	-0.015630
1.315	-0.015701
1.320	-0.015719
1.325	-0.015782
1.330	-0.015782
1.335	-0.015772
1.340	-0.015713
1.345	-0.015677
1.350	-0.015633
1.355	-0.015596
1.360	-0.015532
1.365	-0.015434
1.370	-0.015369
1.375	-0.015411
1.380	-0.015420
1.385	-0.015501
1.390	-0.015577
1.395	-0.015638
1.400	-0.015708
1.405	-0.015857
1.410	-0.015951
1.415	-0.016146
1.420	-0.016272
1.425	-0.016415
1.430	-0.016595
1.435	-0.016713
1.440	-0.016835
1.445	-0.016926
1.450	-0.017008
1.455	-0.017098
1.460	-0.017195
1.465	-0.017294
1.470	-0.017298
1.475	-0.017320
1.480	-0.017335
1.485	-0.017414
1.490	-0.017440
1.495	-0.017475
1.500	-0.017445
1.505	-0.017512
1.510	-0.017505
1.515	-0.017565
1.520	-0.017573
1.525	-0.017652
1.530	-0.017686
1.535	-0.017700
1.540	-0.017817
1.545	-0.017858
1.550	-0.017912
1.555	-0.017912
1.560	-0.017889
1.565	-0.017871
1.570	-0.017845
1.575	-0.017770
1.580	-0.017684
1.585	-0.017609
1.590	-0.017588
1.595	-0.017592
1.600	-0.017610
1.605	-0.017628
1.610	-0.017695
1.615	-0.017708
1.620	-0.017801
1.625	-0.017890
1.630	-0.017986
1.635	-0.018084
1.640	-0.018241
1.645	-0.018300
1.650	-0.018415
1.655	-0.018505
1.660	-0.018508
1.665	-0.018507
1.670	-0.018506
1.675	-0.018515
1.680	-0.018465
1.685	-0.018459
1.690	-0.018457
1.695	-0.018489
1.700	-0.018485
1.705	-0.018499
1.710	-0.018585
1.715	-0.018621
1.720	-0.018681
1.725	-0.018739
1.730	-0.018760
1.735	-0.018724
1.740	-0.018769
1.745	-0.018772
1.750	-0.018840
1.755	-0.018877
1.760	-0.018869
1.765	-0.018796
1.770	-0.018715
1.775	-0.018587
1.780	-0.018526
1.785	-0.018462
1.790	-0.018412
1.795	-0.018364
1.800	-0.018370
1.805	-0.018401
1.810	-0.018444
1.815	-0.018561
1.820	-0.018678
1.825	-0.018838
1.830	-0.019022
1.835	-0.019152
1.840	-0.019276
1.845	-0.019379
1.850	-0.019442
1.855	-0.019500
1.860	-0.019564
1.865	-0.019616
1.870	-0.019625
1.875	-0.019606
1.880	-0.019570
1.885	-0.019544
1.890	-0.019558
1.895	-0.019560
1.900	-0.019566
1.905	-0.019480
1.910	-0.019486
1.915	-0.019428
1.920	-0.019399
1.925	-0.019422
1.930	-0.019418
1.935	-0.019417
1.940	-0.019408
1.945	-0.019358
1.950	-0.019233
1.955	-0.019172
1.960	-0.019129
1.965	-0.019169
1.970	-0.019206
1.975	-0.019293
1.980	-0.019329
1.985	-0.019434
1.990	-0.019583
1.995	-0.019714
2.000	-0.019836
2.005	-0.019945
2.010	-0.020025
2.015	-0.020086
2.020	-0.020113
2.025	-0.020115
2.030	-0.020177
2.035	-0.020248
2.040	-0.020290
2.045	-0.020312
2.050	-0.020262
2.055	-0.020268
2.060	-0.020187
2.065	-0.020130
2.070	-0.020072
2.075	-0.019995
2.080	-0.019919
2.085	-0.019775
2.090	-0.019715
2.095	-0.019588
2.100	-0.019476
2.105	-0.019324
2.110	-0.019214
2.115	-0.019056
2.120	-0.018982
2.125	-0.018878
2.130	-0.018872
2.135	-0.018884
2.140	-0.018945
2.145	-0.019100
2.150	-0.019253
2.155	-0.019407
2.160	-0.019579
2.165	-0.019670
2.170	-0.019713
2.175	-0.019757
2.180	-0.019907
2.185	-0.019914
2.190	-0.019925
2.195	-0.019868
2.200	-0.019753
2.205	-0.019720
2.210	-0.019644
2.215	-0.019557
2.220	-0.019499
2.225	-0.019430
2.230	-0.019438
2.235	-0.019387
2.240	-0.019377
2.245	-0.019318
2.250	-0.019271
2.255	-0.019227
2.260	-0.019209
2.265	-0.019175
2.270	-0.019156
2.275	-0.019204
2.280	-0.019309
2.285	-0.019381
2.290	-0.019466
2.295	-0.019522
2.300	-0.019649
2.305	-0.019726
2.310	-0.019806
2.315	-0.019910
2.320	-0.019950
2.325	-0.019952
2.330	-0.019967
2.335	-0.019985
2.340	-0.019999
2.345	-0.019898
2.350	-0.019830
2.355	-0.019748
2.360	-0.019649
2.365	-0.019640
2.370	-0.019590
2.375	-0.019508
2.380	-0.019417
2.385	-0.019326
2.390	-0.019234
2.395	-0.019040
2.400	-0.018865
2.405	-0.018735
2.410	-0.018686
2.415	-0.018658
2.420	-0.018658
2.425	-0.018631
2.430	-0.018681
2.435	-0.018716
2.440	-0.018773
2.445	-0.018791
2.450	-0.018805
2.455	-0.018768
2.460	-0.018792
2.465	-0.018746
2.470	-0.018748
2.475	-0.018741
2.480	-0.018753
2.485	-0.018741
2.490	-0.018703
2.495	-0.018733
2.500	-0.018632
2.505	-0.018544
2.510	-0.018524
2.515	-0.018499
2.520	-0.018418
2.525	-0.018332
2.530	-0.018216
2.535	-0.018146
2.540	-0.018132
2.545	-0.018072
2.550	-0.017995
2.555	-0.018000
2.560	-0.018009
2.565	-0.018076
2.570	-0.018108
2.575	-0.018073
2.580	-0.017997
2.585	-0.017917
2.590	-0.017879
2.595	-0.017923
2.600	-0.017987
2.605	-0.018076
2.610	-0.018138
2.615	-0.018189
2.620	-0.018252
2.625	-0.018195
2.630	-0.018136
2.635	-0.018070
2.640	-0.018005
2.645	-0.017900
2.650	-0.017769
2.655	-0.017573
2.660	-0.017467
2.665	-0.017355
2.670	-0.017296
2.675	-0.017146
2.680	-0.017015
2.685	-0.016900
2.690	-0.016803
2.695	-0.016697
2.700	-0.016624
2.705	-0.016590
2.710	-0.016542
2.715	-0.016510
2.720	-0.016473
2.725	-0.016458
2.730	-0.016371
2.735	-0.016285
2.740	-0.016188
2.745	-0.016078
2.750	-0.015930
2.755	-0.015827
2.760	-0.015750
2.765	-0.015699
2.770	-0.015576
2.775	-0.015459
2.780	-0.015460
2.785	-0.015470
2.790	-0.015476
2.795	-0.015353
2.800	-0.015326
2.805	-0.015313
2.810	-0.015387
2.815	-0.015354
2.820	-0.015402
2.825	-0.015430
2.830	-0.015494
2.835	-0.015531
2.840	-0.015527
2.845	-0.015480
2.850	-0.015409
2.855	-0.015348
2.860	-0.015234
2.865	-0.015102
2.870	-0.015000
2.875	-0.014861
2.880	-0.014743
2.885	-0.014636
2.890	-0.014458
2.895	-0.014256
2.900	-0.014132
2.905	-0.014058
2.910	-0.014005
2.915	-0.013961
2.920	-0.013972
2.925	-0.013960
2.930	-0.013874
2.935	-0.013786
2.940	-0.013681
2.945	-0.013583
2.950	-0.013472
2.955	-0.013381
2.960	-0.013333
2.965	-0.013273
2.970	-0.013234
2.975	-0.013049
2.980	-0.012937
2.985	-0.012906
2.990	-0.012889
2.995	-0.012828
3.000	-0.012700
3.005	-0.012580
3.010	-0.012516
3.015	-0.012365
3.020	-0.012218
3.025	-0.012112
3.030	-0.012063
3.035	-0.012001
3.040	-0.011891
3.045	-0.011809
3.050	-0.011721
3.055	-0.011644
3.060	-0.011518
3.065	-0.011499
3.070	-0.011608
3.075	-0.011588
3.080	-0.011547
3.085	-0.011492
3.090	-0.011451
3.095	-0.011278
3.100	-0.011143
3.105	-0.011068
3.110	-0.010960
3.115	-0.010856
3.120	-0.010816
3.125	-0.010768
3.130	-0.010751
3.135	-0.010749
3.140	-0.010630
3.145	-0.010499
3.150	-0.010362
3.155	-0.010310
3.160	-0.010172
3.165	-0.010082
3.170	-0.010076
3.175	-0.009999
3.180	-0.009902
3.185	-0.009805
3.190	-0.009698
3.195	-0.009574
3.200	-0.009431
3.205	-0.009294
3.210	-0.009143
3.215	-0.009109
3.220	-0.008984
3.225	-0.008882
3.230	-0.008780
3.235	-0.008753
3.240	-0.008753
3.245	-0.008718
3.250	-0.008759
3.255	-0.008808
3.260	-0.008823
3.265	-0.008821
3.270	-0.008825
3.275	-0.008845
3.280	-0.008880
3.285	-0.008957
3.290	-0.009116
3.295	-0.009398
3.300	-0.009692
3.305	-0.009904
3.310	-0.010207
3.315	-0.010482
3.320	-0.010724
3.325	-0.010901
3.330	-0.010946
3.335	-0.010990
3.340	-0.010860
3.345	-0.010696
3.350	-0.010373
3.355	-0.009955
3.360	-0.009397
3.365	-0.008584
3.370	-0.007773
3.375	-0.006817
3.380	-0.005641
3.385	-0.004234
3.390	-0.002816
3.395	-0.001692
3.400	-0.000880
3.405	-0.000433
3.410	-0.000254
3.415	-0.000212
3.420	-0.000247
3.425	-0.000385
3.430	-0.000461
3.435	-0.000536
3.440	-0.000633
3.445	-0.000626
3.450	-0.000605
3.455	-0.000557
3.460	-0.000447
3.465	-0.000193
3.470	0.000130
3.475	0.000461
3.480	0.000846
3.485	0.001280
3.490	0.001824
3.495	0.002340
3.500	0.002993
3.505	0.003640
3.510	0.004265
3.515	0.004905
3.520	0.005581
3.525	0.006211
3.530	0.006803
3.535	0.007428
3.540	0.007967
3.545	0.008512
3.550	0.008990
3.555	0.009434
3.560	0.009804
3.565	0.010156
3.570	0.010472
3.575	0.010781
3.580	0.011002
3.585	0.011230
3.590	0.011441
3.595	0.011645
3.600	0.011832
3.605	0.011950
3.610	0.012114
3.615	0.012270
3.620	0.012379
3.625	0.012510
3.630	0.012583
3.635	0.012732
3.640	0.012811
3.645	0.012956
3.650	0.013071
3.655	0.013151
3.660	0.013258
3.665	0.013391
3.670	0.013529
3.675	0.013703
3.680	0.013808
3.685	0.013995
3.690	0.014097
3.695	0.014245
3.700	0.014397
3.705	0.014529
3.710	0.014696
3.715	0.014807
3.720	0.014972
3.725	0.015147
3.730	0.015302
3.735	0.015453
3.740	0.015622
3.745	0.015830
3.750	0.016023
3.755	0.016202
3.760	0.016388
3.765	0.016658
3.770	0.016872
3.775	0.017078
3.780	0.017292
3.785	0.017538
3.790	0.017745
3.795	0.018000
3.800	0.018227
3.805	0.018522
3.810	0.018760
3.815	0.019051
3.820	0.019312
3.825	0.019603
3.830	0.019912
3.835	0.020156
3.840	0.020510
3.845	0.020790
3.850	0.021103
3.855	0.021545
3.860	0.021909
3.865	0.022319
3.870	0.022663
3.875	0.023082
3.880	0.023406
3.885	0.023766
3.890	0.024164
3.895	0.024601
3.900	0.024976
3.905	0.025414
3.910	0.025874
3.915	0.026373
3.920	0.026882
3.925	0.027442
3.930	0.028048
3.935	0.028642
3.940	0.029311
3.945	0.029993
3.950	0.030745
3.955	0.031547
3.960	0.032390
3.965	0.033301
3.970	0.034338
3.975	0.035520
3.980	0.036885
3.985	0.038388
3.990	0.040033
3.995	0.041963
4.000	0.044062
4.005	0.046407
4.010	0.048995
4.015	0.051672
4.020	0.054471
4.025	0.057189
4.030	0.059715
4.035	0.061843
4.040	0.063511
4.045	0.064667
4.050	0.065209
4.055	0.064893
4.060	0.063563
4.065	0.061307
4.070	0.058039
4.075	0.053681
4.080	0.048045
4.085	0.041115
4.090	0.033243
4.095	0.025130
4.100	0.017169
4.105	0.010092
4.110	0.004379
4.115	0.000098
4.120	-0.002786
4.125	-0.004667
4.130	-0.005879
4.135	-0.006650
4.140	-0.007141
4.145	-0.007446
4.150	-0.007709
4.155	-0.007866
4.160	-0.008064
4.165	-0.008223
4.170	-0.008319
4.175	-0.008498
4.180	-0.008567
4.185	-0.008603
4.190	-0.008599
4.195	-0.008612
4.200	-0.008589
4.205	-0.008573
4.210	-0.008649
4.215	-0.008759
4.220	-0.008842
4.225	-0.008899
4.230	-0.008955
4.235	-0.008976
4.240	-0.009010
4.245	-0.009010
4.250	-0.009003
4.255	-0.008958
4.260	-0.008929
4.265	-0.008912
4.270	-0.008884
4.275	-0.008912
4.280	-0.008907
4.285	-0.008879
4.290	-0.008885
4.295	-0.008960
4.300	-0.009048
4.305	-0.009138
4.310	-0.009180
4.315	-0.009266
4.320	-0.009298
4.325	-0.009347
4.330	-0.009394
4.335	-0.009412
4.340	-0.009481
4.345	-0.009569
4.350	-0.009601
4.355	-0.009585
4.360	-0.009516
4.365	-0.009422
4.370	-0.009459
4.375	-0.009493
4.380	-0.009590
4.385	-0.009632
4.390	-0.009696
4.395	-0.009762
4.400	-0.009837
4.405	-0.009911
4.410	-0.009899
4.415	-0.009907
4.420	-0.009935
4.425	-0.009976
4.430	-0.010001
4.435	-0.010028
4.440	-0.010095
4.445	-0.010090
4.450	-0.010118
4.455	-0.010162
4.460	-0.010216
4.465	-0.010256
4.470	-0.010296
4.475	-0.010318
4.480	-0.010401
4.485	-0.010491
4.490	-0.010497
4.495	-0.010580
4.500	-0.010635
4.505	-0.010691
4.510	-0.010683
4.515	-0.010668
4.520	-0.010697
4.525	-0.010717
4.530	-0.010784
4.535	-0.010812
4.540	-0.010882
4.545	-0.010981
4.550	-0.011034
4.555	-0.011103
4.560	-0.011254
4.565	-0.011352
4.570	-0.011420
4.575	-0.011352
4.580	-0.011356
4.585	-0.011318
4.590	-0.011321
4.595	-0.011285
4.600	-0.011296
4.605	-0.011303
4.610	-0.011322
4.615	-0.011399
4.620	-0.011425
4.625	-0.011459
4.630	-0.011540
4.635	-0.011629
4.640	-0.011710
4.645	-0.011799
4.650	-0.011869
4.655	-0.012027
4.660	-0.012103
4.665	-0.012196
4.670	-0.012236
4.675	-0.012286
4.680	-0.012440
4.685	-0.012530
4.690	-0.012641
4.695	-0.012653
4.700	-0.012644
4.705	-0.012726
4.710	-0.012724
4.715	-0.012779
4.720	-0.012829
4.725	-0.012843
4.730	-0.012897
4.735	-0.012916
4.740	-0.012924
4.745	-0.012958
4.750	-0.013014
4.755	-0.013137
4.760	-0.013217
4.765	-0.013327
4.770	-0.013352
4.775	-0.013347
4.780	-0.013415
4.785	-0.013509
4.790	-0.013669
4.795	-0.013828
4.800	-0.013957
4.805	-0.014096
4.810	-0.014200
4.815	-0.014288
4.820	-0.014340
4.825	-0.014402
4.830	-0.014481
4.835	-0.014552
4.840	-0.014600
4.845	-0.014675
4.850	-0.014760
4.855	-0.014896
4.860	-0.014986
4.865	-0.015085
4.870	-0.015147
4.875	-0.015187
4.880	-0.015228
4.885	-0.015243
4.890	-0.015257
4.895	-0.015318
4.900	-0.015427
4.905	-0.015505
4.910	-0.015589
4.915	-0.015625
4.920	-0.015662
4.925	-0.015785
4.930	-0.015875
4.935	-0.016037
4.940	-0.016133
4.945	-0.016238
4.950	-0.016373
4.955	-0.016492
4.960	-0.016625
4.965	-0.016785
4.970	-0.016957
4.975	-0.017103
4.980	-0.017222
4.985	-0.017301
4.990	-0.017363
4.995	-0.017505
5.000	-0.017668
5.005	-0.017883
5.010	-0.018068
5.015	-0.018247
5.020	-0.018399
5.025	-0.018513
5.030	-0.018711
5.035	-0.018892
5.040	-0.019082
5.045	-0.019160
5.050	-0.019348
5.055	-0.019450
5.060	-0.019599
5.065	-0.019805
5.070	-0.020044
5.075	-0.020324
5.080	-0.020591
5.085	-0.020844
5.090	-0.021019
5.095	-0.021197
5.100	-0.021405
5.105	-0.021607
5.110	-0.021736
5.115	-0.021841
5.120	-0.021976
5.125	-0.022136
5.130	-0.022348
5.135	-0.022598
5.140	-0.022915
5.145	-0.023210
5.150	-0.023445
5.155	-0.023732
5.160	-0.023966
5.165	-0.024283
5.170	-0.024611
5.175	-0.025017
5.180	-0.025422
5.185	-0.025834
5.190	-0.026189
5.195	-0.026578
5.200	-0.027013
5.205	-0.027459
5.210	-0.027951
5.215	-0.028436
5.220	-0.028907
5.225	-0.029393
5.230	-0.029984
5.235	-0.030581
5.240	-0.031198
5.245	-0.031824
5.250	-0.032427
5.255	-0.033005
5.260	-0.033684
5.265	-0.034407
5.270	-0.035264
5.275	-0.036195
5.280	-0.037096
5.285	-0.038009
5.290	-0.039115
5.295	-0.040325
5.300	-0.041792
5.305	-0.043380
5.310	-0.045214
5.315	-0.047292
5.320	-0.049646
5.325	-0.052145
5.330	-0.054780
5.335	-0.057543
5.340	-0.059999
5.345	-0.062238
5.350	-0.063759
5.355	-0.064753
5.360	-0.065559
5.365	-0.065271
5.370	-0.064230
5.375	-0.062835
5.380	-0.059930
5.385	-0.055422
5.390	-0.050616
5.395	-0.045647
5.400	-0.039116
5.405	-0.030374
5.410	-0.020834
5.415	-0.012599
5.420	-0.006603
5.425	-0.002771
5.430	-0.000593
5.435	0.000516
5.440	0.000949
5.445	0.001190
5.450	0.001238
5.455	0.001280
5.460	0.001321
5.465	0.001348
5.470	0.001368
5.475	0.001348
5.480	0.001300
5.485	0.001313
5.490	0.001286
5.495	0.001300
5.500	0.001307
5.505	0.001293
5.510	0.001266
5.515	0.001272
5.520	0.001287
5.525	0.001259
5.530	0.001293
5.535	0.001286
5.540	0.001293
5.545	0.001293
5.550	0.001300
5.555	0.001272
5.560	0.001258
5.565	0.001286
5.570	0.001265
5.575	0.001258
5.580	0.001272
5.585	0.001307
5.590	0.001280
5.595	0.001266
5.600	0.001265
5.605	0.001272
5.610	0.001265
5.615	0.001280
5.620	0.001265
5.625	0.001280
5.630	0.001321
5.635	0.001349
5.640	0.001369
5.645	0.001445
5.650	0.001473
5.655	0.001556
5.660	0.001646
5.665	0.001748
5.670	0.001872
5.675	0.002030
5.680	0.002127
5.685	0.002271
5.690	0.002388
5.695	0.002498
5.700	0.002608
5.705	0.002725
5.710	0.002746
5.715	0.002787
5.720	0.002844
5.725	0.002851
5.730	0.002753
5.735	0.002733
5.740	0.002616
5.745	0.002540
5.750	0.002423
5.755	0.002327
5.760	0.002182
5.765	0.002079
5.770	0.001962
5.775	0.001879
5.780	0.001776
5.785	0.001721
5.790	0.001626
5.795	0.001611
5.800	0.001597
5.805	0.001569
5.810	0.001528
5.815	0.001542
5.820	0.001507
5.825	0.001486
5.830	0.001472
5.835	0.001452
5.840	0.001458
5.845	0.001438
5.850	0.001438
5.855	0.001453
5.860	0.001487
5.865	0.001486
5.870	0.001465
5.875	0.001528
5.880	0.001500
5.885	0.001506
5.890	0.001541
5.895	0.001528
5.900	0.001521
5.905	0.001521
5.910	0.001501
5.915	0.001529
5.920	0.001530
5.925	0.001545
5.930	0.001579
5.935	0.001565
5.940	0.001524
5.945	0.001572
5.950	0.001573
5.955	0.001566
5.960	0.001580
5.965	0.001580
5.970	0.001573
5.975	0.001587
5.980	0.001580
5.985	0.001581
5.990	0.001601
5.995	0.001635
6.000	0.001614
6.005	0.001676
6.010	0.001668
6.015	0.001675
6.020	0.001667
6.025	0.001687
6.030	0.001687
6.035	0.001728
6.040	0.001721
6.045	0.001721
6.050	0.001700
6.055	0.001729
6.060	0.001721
6.065	0.001755
6.070	0.001762
6.075	0.001762
6.080	0.001748
6.085	0.001762
6.090	0.001754
6.095	0.001810
6.100	0.001782
6.105	0.001782
6.110	0.001768
6.115	0.001789
6.120	0.001797
6.125	0.001790
6.130	0.001789
6.135	0.001796
6.140	0.001789
6.145	0.001810
6.150	0.001817
6.155	0.001811
6.160	0.001817
6.165	0.001824
6.170	0.001817
6.175	0.001796
6.180	0.001837
6.185	0.001818
6.190	0.001812
6.195	0.001846
6.200	0.001825
6.205	0.001812
6.210	0.001854
6.215	0.001833
6.220	0.001833
6.225	0.001841
6.230	0.001882
6.235	0.001869
6.240	0.001848
6.245	0.001835
6.250	0.001863
6.255	0.001892
6.260	0.001857
6.265	0.001897
6.270	0.001883
6.275	0.001869
6.280	0.001917
6.285	0.001903
6.290	0.001903
6.295	0.001903
6.300	0.001888
6.305	0.001861
6.310	0.001915
6.315	0.001922
6.320	0.001936
6.325	0.001944
6.330	0.001915
6.335	0.001955
6.340	0.001955
6.345	0.001934
6.350	0.001962
6.355	0.001962
6.360	0.001955
6.365	0.001962
6.370	0.001934
6.375	0.001947
6.380	0.001954
6.385	0.001983
6.390	0.001928
6.395	0.001976
6.400	0.001954
6.405	0.001975
6.410	0.001968
6.415	0.001989
6.420	0.001989
6.425	0.001989
6.430	0.001968
6.435	0.001995
6.440	0.001995
6.445	0.001995
6.450	0.001995
6.455	0.001989
6.460	0.002023
6.465	0.002022
6.470	0.002029
6.475	0.002042
6.480	0.002022
6.485	0.002008
6.490	0.002014
6.495	0.002042
6.500	0.002049
6.505	0.002035
6.510	0.002055
6.515	0.002035
6.520	0.002056
6.525	0.002063
6.530	0.002069
6.535	0.002034
6.540	0.002069
6.545	0.002069
6.550	0.002069
6.555	0.002096
6.560	0.002089
6.565	0.002062
6.570	0.002069
6.575	0.002075
6.580	0.002062
6.585	0.002077
6.590	0.002057
6.595	0.002036
6.600	0.002049
6.605	0.002077
6.610	0.002036
6.615	0.002057
6.620	0.002078
6.625	0.002051
6.630	0.002051
6.635	0.002065
6.640	0.002051
6.645	0.002052
6.650	0.002088
6.655	0.002096
6.660	0.002103
6.665	0.002109
6.670	0.002115
6.675	0.002135
6.680	0.002148
6.685	0.002121
6.690	0.002195
6.695	0.002174
6.700	0.002132
6.705	0.002166
6.710	0.002179
6.715	0.002200
6.720	0.002180
6.725	0.002193
6.730	0.002219
6.735	0.002212
6.740	0.002211
6.745	0.002225
6.750	0.002246
6.755	0.002246
6.760	0.002252
6.765	0.002294
6.770	0.002266
6.775	0.002287
6.780	0.002245
6.785	0.002281
6.790	0.002287
6.795	0.002259
6.800	0.002279
6.805	0.002293
6.810	0.002286
6.815	0.002300
6.820	0.002265
6.825	0.002231
6.830	0.002272
6.835	0.002266
6.840	0.002279
6.845	0.002231
6.850	0.002259
6.855	0.002260
6.860	0.002232
6.865	0.002238
6.870	0.002217
6.875	0.002224
6.880	0.002217
6.885	0.002217
6.890	0.002203
6.895	0.002203
6.900	0.002203
6.905	0.002189
6.910	0.002237
6.915	0.002196
6.920	0.002211
6.925	0.002245
6.930	0.002223
6.935	0.002230
6.940	0.002264
6.945	0.002250
6.950	0.002243
6.955	0.002250
6.960	0.002250
6.965	0.002229
6.970	0.002243
6.975	0.002250
6.980	0.002269
6.985	0.002264
6.990	0.002264
6.995	0.002277
7.000	0.002303
7.005	0.002304
7.010	0.002290
7.015	0.002290
7.020	0.002296
7.025	0.002283
7.030	0.002330
7.035	0.002323
7.040	0.002302
7.045	0.002322
7.050	0.002337
7.055	0.002330
7.060	0.002349
7.065	0.002362
7.070	0.002362
7.075	0.002384
7.080	0.002349
7.085	0.002349
7.090	0.002377
7.095	0.002384
7.100	0.002363
7.105	0.002376
7.110	0.002377
7.115	0.002377
7.120	0.002406
7.125	0.002371
7.130	0.002384
7.135	0.002425
7.140	0.002411
7.145	0.002425
7.150	0.002419
7.155	0.002432
7.160	0.002473
7.165	0.002426
7.170	0.002405
7.175	0.002433
7.180	0.002433
7.185	0.002448
7.190	0.002455
7.195	0.002454
7.200	0.002495
7.205	0.002468
7.210	0.002489
7.215	0.002496
7.220	0.002482
7.225	0.002489
7.230	0.002482
7.235	0.002482
7.240	0.002496
7.245	0.002530
7.250	0.002497
7.255	0.002491
7.260	0.002532
7.265	0.002523
7.270	0.002565
7.275	0.002565
7.280	0.002537
7.285	0.002531
7.290	0.002558
7.295	0.002551
7.300	0.002565
7.305	0.002558
7.310	0.002559
7.315	0.002573
7.320	0.002582
7.325	0.002588
7.330	0.002594
7.335	0.002655
7.340	0.002622
7.345	0.002636
7.350	0.002643
7.355	0.002609
7.360	0.002657
7.365	0.002664
7.370	0.002616
7.375	0.002657
7.380	0.002657
7.385	0.002694
7.390	0.002701
7.395	0.002701
7.400	0.002699
7.405	0.002728
7.410	0.002720
7.415	0.002713
7.420	0.002720
7.425	0.002713
7.430	0.002720
7.435	0.002706
7.440	0.002699
7.445	0.002720
7.450	0.002714
7.455	0.002708
7.460	0.002741
7.465	0.002740
7.470	0.002720
7.475	0.002734
7.480	0.002720
7.485	0.002734
7.490	0.002734
7.495	0.002762
7.500	0.002802
7.505	0.002761
7.510	0.002802
7.515	0.002803
7.520	0.002839
7.525	0.002811
7.530	0.002837
7.535	0.002851
7.540	0.002879
7.545	0.002899
7.550	0.002899
7.555	0.002892
7.560	0.002891
7.565	0.002891
7.570	0.002926
7.575	0.002905
7.580	0.002925
7.585	0.002941
7.590	0.002941
7.595	0.002947
7.600	0.002980
7.605	0.002988
7.610	0.003002
7.615	0.002982
7.620	0.002982
7.625	0.002996
7.630	0.002996
7.635	0.003030
7.640	0.003010
7.645	0.003031
7.650	0.003046
7.655	0.003026
7.660	0.003054
7.665	0.003046
7.670	0.003039
7.675	0.003102
7.680	0.003095
7.685	0.003123
7.690	0.003102
7.695	0.003130
7.700	0.003116
7.705	0.003137
7.710	0.003130
7.715	0.003096
7.720	0.003118
7.725	0.003131
7.730	0.003172
7.735	0.003146
7.740	0.003153
7.745	0.003153
7.750	0.003181
7.755	0.003189
7.760	0.003189
7.765	0.003190
7.770	0.003203
7.775	0.003238
7.780	0.003190
7.785	0.003198
7.790	0.003204
7.795	0.003217
7.800	0.003230
7.805	0.003222
7.810	0.003235
7.815	0.003248
7.820	0.003235
7.825	0.003283
7.830	0.003255
7.835	0.003241
7.840	0.003240
7.845	0.003260
7.850	0.003316
7.855	0.003324
7.860	0.003309
7.865	0.003329
7.870	0.003308
7.875	0.003301
7.880	0.003340
7.885	0.003354
7.890	0.003352
7.895	0.003359
7.900	0.003392
7.905	0.003371
7.910	0.003370
7.915	0.003398
7.920	0.003413
7.925	0.003447
7.930	0.003445
7.935	0.003459
7.940	0.003465
7.945	0.003472
7.950	0.003472
7.955	0.003499
7.960	0.003492
7.965	0.003540
7.970	0.003513
7.975	0.003574
7.980	0.003568
7.985	0.003556
7.990	0.003569
7.995	0.003568
8.000	0.003574
8.005	0.003615
8.010	0.003616
8.015	0.003610
8.020	0.003643
8.025	0.003629
8.030	0.003643
8.035	0.003691
8.040	0.003691
8.045	0.003712
8.050	0.003686
8.055	0.003727
8.060	0.003761
8.065	0.003732
8.070	0.003746
8.075	0.003787
8.080	0.003808
8.085	0.003787
8.090	0.003814
8.095	0.003807
8.100	0.003841
8.105	0.003855
8.110	0.003855
8.115	0.003863
8.120	0.003878
8.125	0.003885
8.130	0.003903
8.135	0.003952
8.140	0.003938
8.145	0.003932
8.150	0.003953
8.155	0.003974
8.160	0.003967
8.165	0.004022
8.170	0.004015
8.175	0.003980
8.180	0.004027
8.185	0.004057
8.190	0.004063
8.195	0.004090
8.200	0.004103
8.205	0.004136
8.210	0.004102
8.215	0.004150
8.220	0.004149
8.225	0.004177
8.230	0.004177
8.235	0.004177
8.240	0.004204
8.245	0.004176
8.250	0.004220
8.255	0.004213
8.260	0.004266
8.265	0.004266
8.270	0.004286
8.275	0.004294
8.280	0.004348
8.285	0.004355
8.290	0.004321
8.295	0.004321
8.300	0.004369
8.305	0.004355
8.310	0.004423
8.315	0.004459
8.320	0.004426
8.325	0.004439
8.330	0.004500
8.335	0.004451
8.340	0.004471
8.345	0.004491
8.350	0.004512
8.355	0.004512
8.360	0.004525
8.365	0.004533
8.370	0.004596
8.375	0.004576
8.380	0.004584
8.385	0.004603
8.390	0.004607
8.395	0.004637
8.400	0.004651
8.405	0.004649
8.410	0.004629
8.415	0.004705
8.420	0.004770
8.425	0.004841
8.430	0.004874
8.435	0.004835
8.440	0.004831
8.445	0.004830
8.450	0.004876
8.455	0.004913
8.460	0.004916
8.465	0.004927
8.470	0.004967
8.475	0.004974
8.480	0.004988
8.485	0.005016
8.490	0.005046
8.495	0.005075
8.500	0.005090
8.505	0.005125
8.510	0.005138
8.515	0.005145
8.520	0.005186
8.525	0.005185
8.530	0.005223
8.535	0.005285
8.540	0.005270
8.545	0.005278
8.550	0.005312
8.555	0.005347
8.560	0.005374
8.565	0.005381
8.570	0.005422
8.575	0.005430
8.580	0.005438
8.585	0.005468
8.590	0.005496
8.595	0.005544
8.600	0.005620
8.605	0.005629
8.610	0.005636
8.615	0.005657
8.620	0.005689
8.625	0.005702
8.630	0.005749
8.635	0.005777
8.640	0.005819
8.645	0.005827
8.650	0.005817
8.655	0.005930
8.660	0.005915
8.665	0.006004
8.670	0.006006
8.675	0.006014
8.680	0.006071
8.685	0.006117
8.690	0.006091
8.695	0.006169
8.700	0.006199
8.705	0.006243
8.710	0.006279
8.715	0.006313
8.720	0.006350
8.725	0.006415
8.730	0.006417
8.735	0.006490
8.740	0.006513
8.745	0.006572
8.750	0.006601
8.755	0.006651
8.760	0.006676
8.765	0.006699
8.770	0.006728
8.775	0.006780
8.780	0.006848
8.785	0.006827
8.790	0.006939
8.795	0.006961
8.800	0.006978
8.805	0.007017
8.810	0.007031
8.815	0.007052
8.820	0.007052
8.825	0.007109
8.830	0.007115
8.835	0.007137
8.840	0.007148
8.845	0.007167
8.850	0.007257
8.855	0.007262
8.860	0.007274
8.865	0.007335
8.870	0.007354
8.875	0.007389
8.880	0.007399
8.885	0.007450
8.890	0.007492
8.895	0.007539
8.900	0.007588
8.905	0.007619
8.910	0.007695
8.915	0.007767
8.920	0.007837
8.925	0.007862
8.930	0.007923
8.935	0.008001
8.940	0.008030
8.945	0.008089
8.950	0.008190
8.955	0.008167
8.960	0.008229
8.965	0.008251
8.970	0.008336
8.975	0.008417
8.980	0.008443
8.985	0.008474
8.990	0.008592
8.995	0.008622
9.000	0.008687
9.005	0.008748
9.010	0.008803
9.015	0.008870
9.020	0.008957
9.025	0.009015
9.030	0.009093
9.035	0.009118
9.040	0.009199
9.045	0.009283
9.050	0.009322
9.055	0.009410
9.060	0.009512
9.065	0.009561
9.070	0.009599
9.075	0.009700
9.080	0.009768
9.085	0.009844
9.090	0.009954
9.095	0.009995
9.100	0.010116
9.105	0.010201
9.110	0.010242
9.115	0.010315
9.120	0.010441
9.125	0.010509
9.130	0.010582
9.135	0.010711
9.140	0.010822
9.145	0.010906
9.150	0.011071
9.155	0.011142
9.160	0.011269
9.165	0.011377
9.170	0.011454
9.175	0.011621
9.180	0.011762
9.185	0.011888
9.190	0.012008
9.195	0.012118
9.200	0.012246
9.205	0.012402
9.210	0.012587
9.215	0.012708
9.220	0.012865
9.225	0.013002
9.230	0.013164
9.235	0.013315
9.240	0.013503
9.245	0.013691
9.250	0.013857
9.255	0.014008
9.260	0.014204
9.265	0.014359
9.270	0.014535
9.275	0.014461
9.280	0.014812
9.285	0.014791
9.290	0.014044
9.295	0.013869
9.300	0.014577
9.305	0.015371
9.310	0.015989
9.315	0.016421
9.320	0.016777
9.325	0.017053
9.330	0.017341
9.335	0.017685
9.340	0.017992
9.345	0.018335
9.350	0.018673
9.355	0.019022
9.360	0.019416
9.365	0.019824
9.370	0.020226
9.375	0.020625
9.380	0.021101
9.385	0.021604
9.390	0.022078
9.395	0.022597
9.400	0.023175
9.405	0.023882
9.410	0.024706
9.415	0.025680
9.420	0.026764
9.425	0.028013
9.430	0.029450
9.435	0.031171
9.440	0.033187
9.445	0.035439
9.450	0.037861
9.455	0.040362
9.460	0.042560
9.465	0.044561
9.470	0.046195
9.475	0.047327
9.480	0.048035
9.485	0.048382
9.490	0.047813
9.495	0.046320
9.500	0.044067
9.505	0.041196
9.510	0.037476
9.515	0.032421
9.520	0.025990
9.525	0.018976
9.530	0.012284
9.535	0.006950
9.540	0.003153
9.545	0.000792
9.550	-0.000542
9.555	-0.001198
9.560	-0.001516
9.565	-0.001681
9.570	-0.001771
9.575	-0.001826
9.580	-0.001854
9.585	-0.001882
9.590	-0.001909
9.595	-0.001909
9.600	-0.001895
9.605	-0.001930
9.610	-0.001923
9.615	-0.001923
9.620	-0.001923
9.625	-0.001930
9.630	-0.001930
9.635	-0.001930
9.640	-0.001951
9.645	-0.001972
9.650	-0.001944
9.655	-0.001958
9.660	-0.001951
9.665	-0.001972
9.670	-0.001965
9.675	-0.001951
9.680	-0.001979
9.685	-0.001951
9.690	-0.001958
9.695	-0.001958
9.700	-0.001992
9.705	-0.001972
9.710	-0.001979
9.715	-0.001972
9.720	-0.001993
9.725	-0.001993
9.730	-0.001993
9.735	-0.001986
9.740	-0.001958
9.745	-0.002013
9.750	-0.001993
9.755	-0.001958
9.760	-0.001986
9.765	-0.001986
9.770	-0.001979
9.775	-0.001993
9.780	-0.002014
9.785	-0.001993
9.790	-0.002014
9.795	-0.001993
9.800	-0.001993
9.805	-0.001979
9.810	-0.001993
9.815	-0.001993
9.820	-0.002014
9.825	-0.001966
9.830	-0.001966
9.835	-0.002021
9.840	-0.002021
9.845	-0.002014
9.850	-0.001987
9.855	-0.001980
9.860	-0.002035
9.865	-0.001994
9.870	-0.001994
9.875	-0.001980
9.880	-0.002008
9.885	-0.002001
9.890	-0.002008
9.895	-0.002022
9.900	-0.001994
9.905	-0.002029
9.910	-0.002029
9.915	-0.002015
9.920	-0.002036
9.925	-0.002043
9.930	-0.002022
9.935	-0.002008
9.940	-0.002043
9.945	-0.002022
9.950	-0.002022
9.955	-0.002022
9.960	-0.002015
9.965	-0.002071
9.970	-0.002043
9.975	-0.002036
9.980	-0.002037
9.985	-0.002037
9.990	-0.002057
9.995	-0.002043
10.000	-0.002016
10.005	-0.002002
10.010	-0.002044
10.015	-0.002037
10.020	-0.002037
10.025	-0.002044
10.030	-0.002058
10.035	-0.002016
10.040	-0.002072
10.045	-0.002044
10.050	-0.002079
10.055	-0.002010
10.060	-0.002030
10.065	-0.002051
10.070	-0.002051
10.075	-0.002016
10.080	-0.002051
10.085	-0.002065
10.090	-0.002072
10.095	-0.002079
10.100	-0.002051
10.105	-0.002079
10.110	-0.002058
10.115	-0.002052
10.120	-0.002052
10.125	-0.002024
10.130	-0.002079
10.135	-0.002052
10.140	-0.002086
10.145	-0.002066
10.150	-0.002079
10.155	-0.002086
10.160	-0.002086
10.165	-0.002079
10.170	-0.002107
10.175	-0.002080
10.180	-0.002073
10.185	-0.002087
10.190	-0.002101
10.195	-0.002093
10.200	-0.002093
10.205	-0.002107
10.210	-0.002100
10.215	-0.002094
10.220	-0.002080
10.225	-0.002114
10.230	-0.002114
10.235	-0.002128
10.240	-0.002121
10.245	-0.002128
10.250	-0.002128
10.255	-0.002135
10.260	-0.002128
10.265	-0.002107
10.270	-0.002156
10.275	-0.002121
10.280	-0.002094
10.285	-0.002114
10.290	-0.002128
10.295	-0.002170
10.300	-0.002142
10.305	-0.002156
10.310	-0.002176
10.315	-0.002149
10.320	-0.002128
10.325	-0.002142
10.330	-0.002149
10.335	-0.002149
10.340	-0.002149
10.345	-0.002197
10.350	-0.002135
10.355	-0.002149
10.360	-0.002170
10.365	-0.002183
10.370	-0.002156
10.375	-0.002197
10.380	-0.002156
10.385	-0.002204
10.390	-0.002156
10.395	-0.002169
10.400	-0.002149
10.405	-0.002170
10.410	-0.002197
10.415	-0.002190
10.420	-0.002218
10.425	-0.002177
10.430	-0.002204
10.435	-0.002204
10.440	-0.002190
10.445	-0.002197
10.450	-0.002191
10.455	-0.002232
10.460	-0.002211
10.465	-0.002232
10.470	-0.002218
10.475	-0.002232
10.480	-0.002204
10.485	-0.002197
10.490	-0.002246
10.495	-0.002218
10.500	-0.002225
10.505	-0.002225
10.510	-0.002246
10.515	-0.002239
10.520	-0.002253
10.525	-0.002266
10.530	-0.002232
10.535	-0.002239
10.540	-0.002232
10.545	-0.002218
10.550	-0.002239
10.555	-0.002253
10.560	-0.002260
10.565	-0.002267
10.570	-0.002260
10.575	-0.002239
10.580	-0.002246
10.585	-0.002274
10.590	-0.002287
10.595	-0.002273
10.600	-0.002232
10.605	-0.002274
10.610	-0.002274
10.615	-0.002260
10.620	-0.002267
10.625	-0.002281
10.630	-0.002274
10.635	-0.002301
10.640	-0.002315
10.645	-0.002281
10.650	-0.002302
10.655	-0.002274
10.660	-0.002308
10.665	-0.002281
10.670	-0.002274
10.675	-0.002315
10.680	-0.002288
10.685	-0.002301
10.690	-0.002308
10.695	-0.002329
10.700	-0.002343
10.705	-0.002329
10.710	-0.002322
10.715	-0.002302
10.720	-0.002330
10.725	-0.002295
10.730	-0.002350
10.735	-0.002336
10.740	-0.002322
10.745	-0.002336
10.750	-0.002336
10.755	-0.002350
10.760	-0.002350
10.765	-0.002357
10.770	-0.002343
10.775	-0.002350
10.780	-0.002302
10.785	-0.002357
10.790	-0.002392
10.795	-0.002316
10.800	-0.002364
10.805	-0.002364
10.810	-0.002364
10.815	-0.002364
10.820	-0.002364
10.825	-0.002364
10.830	-0.002357
10.835	-0.002392
10.840	-0.002385
10.845	-0.002378
10.850	-0.002385
10.855	-0.002406
10.860	-0.002344
10.865	-0.002364
10.870	-0.002399
10.875	-0.002399
10.880	-0.002378
10.885	-0.002378
10.890	-0.002392
10.895	-0.002385
10.900	-0.002372
10.905	-0.002378
10.910	-0.002406
10.915	-0.002400
10.920	-0.002400
10.925	-0.002386
10.930	-0.002420
10.935	-0.002393
10.940	-0.002400
10.945	-0.002413
10.950	-0.002400
10.955	-0.002434
10.960	-0.002421
10.965	-0.002407
10.970	-0.002400
10.975	-0.002421
10.980	-0.002407
10.985	-0.002428
10.990	-0.002435
10.995	-0.002421
11.000	-0.002414
11.005	-0.002441
11.010	-0.002428
11.015	-0.002393
11.020	-0.002462
11.025	-0.002434
11.030	-0.002414
11.035	-0.002462
11.040	-0.002448
11.045	-0.002456
11.050	-0.002476
11.055	-0.002442
11.060	-0.002462
11.065	-0.002456
11.070	-0.002456
11.075	-0.002435
11.080	-0.002470
11.085	-0.002477
11.090	-0.002470
11.095	-0.002484
11.100	-0.002477
11.105	-0.002477
11.110	-0.002470
11.115	-0.002471
11.120	-0.002457
11.125	-0.002484
11.130	-0.002470
11.135	-0.002464
11.140	-0.002436
11.145	-0.002491
11.150	-0.002471
11.155	-0.002471
11.160	-0.002471
11.165	-0.002491
11.170	-0.002512
11.175	-0.002498
11.180	-0.002492
11.185	-0.002499
11.190	-0.002492
11.195	-0.002478
11.200	-0.002464
11.205	-0.002485
11.210	-0.002478
11.215	-0.002464
11.220	-0.002527
11.225	-0.002485
11.230	-0.002485
11.235	-0.002506
11.240	-0.002506
11.245	-0.002513
11.250	-0.002527
11.255	-0.002499
11.260	-0.002506
11.265	-0.002520
11.270	-0.002520
11.275	-0.002520
11.280	-0.002520
11.285	-0.002554
11.290	-0.002520
11.295	-0.002527
11.300	-0.002513
11.305	-0.002548
11.310	-0.002534
11.315	-0.002527
11.320	-0.002548
11.325	-0.002527
11.330	-0.002534
11.335	-0.002527
11.340	-0.002520
11.345	-0.002527
11.350	-0.002534
11.355	-0.002527
11.360	-0.002548
11.365	-0.002562
11.370	-0.002541
11.375	-0.002569
11.380	-0.002528
11.385	-0.002527
11.390	-0.002555
11.395	-0.002520
11.400	-0.002555
11.405	-0.002541
11.410	-0.002548
11.415	-0.002562
11.420	-0.002562
11.425	-0.002562
11.430	-0.002562
11.435	-0.002576
11.440	-0.002562
11.445	-0.002555
11.450	-0.002576
11.455	-0.002576
11.460	-0.002562
11.465	-0.002555
11.470	-0.002555
11.475	-0.002541
11.480	-0.002610
11.485	-0.002590
11.490	-0.002583
11.495	-0.002597
11.500	-0.002597
11.505	-0.002604
11.510	-0.002583
11.515	-0.002576
11.520	-0.002590
11.525	-0.002604
11.530	-0.002617
11.535	-0.002569
11.540	-0.002597
11.545	-0.002569
11.550	-0.002618
11.555	-0.002583
11.560	-0.002590
11.565	-0.002604
11.570	-0.002611
11.575	-0.002618
11.580	-0.002611
11.585	-0.002604
11.590	-0.002583
11.595	-0.002604
11.600	-0.002604
11.605	-0.002618
11.610	-0.002632
11.615	-0.002645
11.620	-0.002618
11.625	-0.002632
11.630	-0.002646
11.635	-0.002632
11.640	-0.002652
11.645	-0.002611
11.650	-0.002646
11.655	-0.002660
11.660	-0.002639
11.665	-0.002625
11.670	-0.002632
11.675	-0.002659
11.680	-0.002618
11.685	-0.002632
11.690	-0.002660
11.695	-0.002639
11.700	-0.002653
11.705	-0.002653
11.710	-0.002660
11.715	-0.002646
11.720	-0.002681
11.725	-0.002653
11.730	-0.002646
11.735	-0.002660
11.740	-0.002653
11.745	-0.002667
11.750	-0.002653
11.755	-0.002695
11.760	-0.002688
11.765	-0.002647
11.770	-0.002682
11.775	-0.002675
11.780	-0.002669
11.785	-0.002648
11.790	-0.002675
11.795	-0.002688
11.800	-0.002674
11.805	-0.002688
11.810	-0.002681
11.815	-0.002654
11.820	-0.002695
11.825	-0.002695
11.830	-0.002681
11.835	-0.002716
11.840	-0.002688
11.845	-0.002696
11.850	-0.002661
11.855	-0.002696
11.860	-0.002675
11.865	-0.002702
11.870	-0.002696
11.875	-0.002723
11.880	-0.002696
11.885	-0.002689
11.890	-0.002717
11.895	-0.002689
11.900	-0.002710
11.905	-0.002709
11.910	-0.002731
11.915	-0.002724
11.920	-0.002745
11.925	-0.002737
11.930	-0.002737
11.935	-0.002723
11.940	-0.002730
11.945	-0.002744
11.950	-0.002717
11.955	-0.002689
11.960	-0.002717
11.965	-0.002751
11.970	-0.002758
11.975	-0.002738
11.980	-0.002738
11.985	-0.002718
11.990	-0.002724
11.995	-0.002738
12.000	-0.002738
12.005	-0.002731
12.010	-0.002724
12.015	-0.002738
12.020	-0.002745
12.025	-0.002738
12.030	-0.002766
12.035	-0.002717
12.040	-0.002738
12.045	-0.002745
12.050	-0.002753
12.055	-0.002759
12.060	-0.002759
12.065	-0.002731
12.070	-0.002738
12.075	-0.002780
12.080	-0.002759
12.085	-0.002745
12.090	-0.002752
12.095	-0.002800
12.100	-0.002773
12.105	-0.002786
12.110	-0.002787
12.115	-0.002773
12.120	-0.002773
12.125	-0.002780
12.130	-0.002774
12.135	-0.002801
12.140	-0.002787
12.145	-0.002780
12.150	-0.002787
12.155	-0.002794
12.160	-0.002801
12.165	-0.002787
12.170	-0.002808
12.175	-0.002801
12.180	-0.002774
12.185	-0.002787
12.190	-0.002808
12.195	-0.002787
12.200	-0.002801
12.205	-0.002808
12.210	-0.002780
12.215	-0.002815
12.220	-0.002814
12.225	-0.002808
12.230	-0.002821
12.235	-0.002828
12.240	-0.002815
12.245	-0.002801
12.250	-0.002801
12.255	-0.002815
12.260	-0.002828
12.265	-0.002814
12.270	-0.002808
12.275	-0.002807
12.280	-0.002828
12.285	-0.002849
12.290	-0.002800
12.295	-0.002842
12.300	-0.002849
12.305	-0.002863
12.310	-0.002849
12.315	-0.002843
12.320	-0.002822
12.325	-0.002856
12.330	-0.002835
12.335	-0.002842
12.340	-0.002842
12.345	-0.002842
12.350	-0.002855
12.355	-0.002876
12.360	-0.002862
12.365	-0.002869
12.370	-0.002862
12.375	-0.002862
12.380	-0.002877
12.385	-0.002856
12.390	-0.002897
12.395	-0.002869
12.400	-0.002862
12.405	-0.002876
12.410	-0.002897
12.415	-0.002890
12.420	-0.002897
12.425	-0.002890
12.430	-0.002897
12.435	-0.002903
12.440	-0.002897
12.445	-0.002904
12.450	-0.002890
12.455	-0.002869
12.460	-0.002889
12.465	-0.002855
12.470	-0.002896
12.475	-0.002882
12.480	-0.002896
12.485	-0.002903
12.490	-0.002938
12.495	-0.002903
12.500	-0.002931
12.505	-0.002917
12.510	-0.002910
12.515	-0.002924
12.520	-0.002910
12.525	-0.002924
12.530	-0.002930
12.535	-0.002931
12.540	-0.002896
12.545	-0.002924
12.550	-0.002938
12.555	-0.002944
12.560	-0.002944
12.565	-0.002924
12.570	-0.002937
12.575	-0.002917
12.580	-0.002931
12.585	-0.002952
12.590	-0.002944
12.595	-0.002937
12.600	-0.002958
12.605	-0.002958
12.610	-0.002951
12.615	-0.002930
12.620	-0.002951
12.625	-0.002979
12.630	-0.002972
12.635	-0.002937
12.640	-0.002979
12.645	-0.002952
12.650	-0.002972
12.655	-0.002972
12.660	-0.002965
12.665	-0.002992
12.670	-0.002992
12.675	-0.002965
12.680	-0.002992
12.685	-0.003006
12.690	-0.002972
12.695	-0.003006
12.700	-0.003006
12.705	-0.003006
12.710	-0.003007
12.715	-0.002993
12.720	-0.002972
12.725	-0.002999
12.730	-0.003041
12.735	-0.002992
12.740	-0.002992
12.745	-0.003013
12.750	-0.003020
12.755	-0.002999
12.760	-0.003006
12.765	-0.002992
12.770	-0.003061
12.775	-0.003047
12.780	-0.003034
12.785	-0.003034
12.790	-0.003013
12.795	-0.003047
12.800	-0.003048
12.805	-0.003054
12.810	-0.003047
12.815	-0.003034
12.820	-0.003047
12.825	-0.003047
12.830	-0.003054
12.835	-0.003061
12.840	-0.003068
12.845	-0.003062
12.850	-0.003062
12.855	-0.003068
12.860	-0.003068
12.865	-0.003054
12.870	-0.003040
12.875	-0.003082
12.880	-0.003089
12.885	-0.003054
12.890	-0.003061
12.895	-0.003109
12.900	-0.003116
12.905	-0.003082
12.910	-0.003096
12.915	-0.003096
12.920	-0.003096
12.925	-0.003103
12.930	-0.003054
12.935	-0.003110
12.940	-0.003116
12.945	-0.003116
12.950	-0.003096
12.955	-0.003103
12.960	-0.003123
12.965	-0.003123
12.970	-0.003103
12.975	-0.003109
12.980	-0.003131
12.985	-0.003110
12.990	-0.003110
12.995	-0.003137
13.000	-0.003110
13.005	-0.003102
13.010	-0.003110
13.015	-0.003158
13.020	-0.003130
13.025	-0.003137
13.030	-0.003150
13.035	-0.003158
13.040	-0.003157
13.045	-0.003131
13.050	-0.003131
13.055	-0.003137
13.060	-0.003144
13.065	-0.003151
13.070	-0.003151
13.075	-0.003158
13.080	-0.003137
13.085	-0.003123
13.090	-0.003144
13.095	-0.003151
13.100	-0.003158
13.105	-0.003144
13.110	-0.003159
13.115	-0.003173
13.120	-0.003117
13.125	-0.003137
13.130	-0.003151
13.135	-0.003165
13.140	-0.003179
13.145	-0.003172
13.150	-0.003151
13.155	-0.003200
13.160	-0.003165
13.165	-0.003151
13.170	-0.003186
13.175	-0.003193
13.180	-0.003180
13.185	-0.003180
13.190	-0.003165
13.195	-0.003172
13.200	-0.003186
13.205	-0.003193
13.210	-0.003193
13.215	-0.003180
13.220	-0.003201
13.225	-0.003235
13.230	-0.003228
13.235	-0.003221
13.240	-0.003187
13.245	-0.003222
13.250	-0.003202
13.255	-0.003222
13.260	-0.003235
13.265	-0.003229
13.270	-0.003208
13.275	-0.003222
13.280	-0.003250
13.285	-0.003236
13.290	-0.003250
13.295	-0.003236
13.300	-0.003250
13.305	-0.003243
13.310	-0.003243
13.315	-0.003230
13.320	-0.003216
13.325	-0.003236
13.330	-0.003236
13.335	-0.003244
13.340	-0.003257
13.345	-0.003230
13.350	-0.003230
13.355	-0.003265
13.360	-0.003265
13.365	-0.003258
13.370	-0.003265
13.375	-0.003279
13.380	-0.003266
13.385	-0.003259
13.390	-0.003258
13.395	-0.003231
13.400	-0.003279
13.405	-0.003265
13.410	-0.003300
13.415	-0.003279
13.420	-0.003265
13.425	-0.003272
13.430	-0.003293
13.435	-0.003279
13.440	-0.003286
13.445	-0.003314
13.450	-0.003308
13.455	-0.003279
13.460	-0.003286
13.465	-0.003293
13.470	-0.003293
13.475	-0.003280
13.480	-0.003321
13.485	-0.003342
13.490	-0.003314
13.495	-0.003307
13.500	-0.003287
13.505	-0.003328
13.510	-0.003329
13.515	-0.003336
13.520	-0.003301
13.525	-0.003321
13.530	-0.003328
13.535	-0.003329
13.540	-0.003329
13.545	-0.003322
13.550	-0.003301
13.555	-0.003335
13.560	-0.003329
13.565	-0.003322
13.570	-0.003342
13.575	-0.003322
13.580	-0.003357
13.585	-0.003357
13.590	-0.003343
13.595	-0.003349
13.600	-0.003370
13.605	-0.003357
13.610	-0.003329
13.615	-0.003343
13.620	-0.003363
13.625	-0.003391
13.630	-0.003370
13.635	-0.003398
13.640	-0.003384
13.645	-0.003392
13.650	-0.003385
13.655	-0.003377
13.660	-0.003398
13.665	-0.003370
13.670	-0.003371
13.675	-0.003398
13.680	-0.003384
13.685	-0.003356
13.690	-0.003391
13.695	-0.003391
13.700	-0.003384
13.705	-0.003418
13.710	-0.003433
13.715	-0.003412
13.720	-0.003425
13.725	-0.003439
13.730	-0.003411
13.735	-0.003411
13.740	-0.003411
13.745	-0.003425
13.750	-0.003412
13.755	-0.003446
13.760	-0.003432
13.765	-0.003411
13.770	-0.003439
13.775	-0.003446
13.780	-0.003467
13.785	-0.003467
13.790	-0.003425
13.795	-0.003438
13.800	-0.003452
13.805	-0.003487
13.810	-0.003459
13.815	-0.003473
13.820	-0.003424
13.825	-0.003466
13.830	-0.003493
13.835	-0.003472
13.840	-0.003487
13.845	-0.003487
13.850	-0.003453
13.855	-0.003487
13.860	-0.003480
13.865	-0.003486
13.870	-0.003514
13.875	-0.003480
13.880	-0.003487
13.885	-0.003486
13.890	-0.003493
13.895	-0.003472
13.900	-0.003486
13.905	-0.003507
13.910	-0.003522
13.915	-0.003501
13.920	-0.003487
13.925	-0.003493
13.930	-0.003500
13.935	-0.003507
13.940	-0.003500
13.945	-0.003521
13.950	-0.003493
13.955	-0.003528
13.960	-0.003493
13.965	-0.003521
13.970	-0.003521
13.975	-0.003542
13.980	-0.003543
13.985	-0.003522
13.990	-0.003542
13.995	-0.003549
14.000	-0.003521
14.005	-0.003528
14.010	-0.003521
14.015	-0.003563
14.020	-0.003563
14.025	-0.003549
14.030	-0.003549
14.035	-0.003583
14.040	-0.003584
14.045	-0.003550
14.050	-0.003557
14.055	-0.003563
14.060	-0.003549
14.065	-0.003556
14.070	-0.003549
14.075	-0.003535
14.080	-0.003583
14.085	-0.003562
14.090	-0.003576
14.095	-0.003556
14.100	-0.003576
14.105	-0.003597
14.110	-0.003584
14.115	-0.003584
14.120	-0.003577
14.125	-0.003590
14.130	-0.003563
14.135	-0.003556
14.140	-0.003597
14.145	-0.003598
14.150	-0.003598
14.155	-0.003604
14.160	-0.003591
14.165	-0.003618
14.170	-0.003597
14.175	-0.003591
14.180	-0.003633
14.185	-0.003619
14.190	-0.003618
14.195	-0.003604
14.200	-0.003591
14.205	-0.003597
14.210	-0.003618
14.215	-0.003611
14.220	-0.003625
14.225	-0.003625
14.230	-0.003625
14.235	-0.003660
14.240	-0.003639
14.245	-0.003640
14.250	-0.003619
14.255	-0.003653
14.260	-0.003660
14.265	-0.003632
14.270	-0.003667
14.275	-0.003646
14.280	-0.003667
14.285	-0.003632
14.290	-0.003667
14.295	-0.003667
14.300	-0.003695
14.305	-0.003660
14.310	-0.003661
14.315	-0.003702
14.320	-0.003675
14.325	-0.003667
14.330	-0.003701
14.335	-0.003667
14.340	-0.003674
14.345	-0.003681
14.350	-0.003736
14.355	-0.003688
14.360	-0.003716
14.365	-0.003709
14.370	-0.003702
14.375	-0.003689
14.380	-0.003710
14.385	-0.003716
14.390	-0.003709
14.395	-0.003729
14.400	-0.003730
14.405	-0.003702
14.410	-0.003723
14.415	-0.003730
14.420	-0.003716
14.425	-0.003716
14.430	-0.003757
14.435	-0.003695
14.440	-0.003744
14.445	-0.003738
14.450	-0.003724
14.455	-0.003737
14.460	-0.003757
14.465	-0.003771
14.470	-0.003758
14.475	-0.003751
14.480	-0.003744
14.485	-0.003764
14.490	-0.003758
14.495	-0.003764
14.500	-0.003778
14.505	-0.003771
14.510	-0.003779
14.515	-0.003772
14.520	-0.003799
14.525	-0.003820
14.530	-0.003799
14.535	-0.003772
14.540	-0.003806
14.545	-0.003806
14.550	-0.003793
14.555	-0.003800
14.560	-0.003800
14.565	-0.003814
14.570	-0.003807
14.575	-0.003807
14.580	-0.003822
14.585	-0.003787
14.590	-0.003841
14.595	-0.003800
14.600	-0.003814
14.605	-0.003855
14.610	-0.003828
14.615	-0.003841
14.620	-0.003828
14.625	-0.003828
14.630	-0.003849
14.635	-0.003848
14.640	-0.003842
14.645	-0.003815
14.650	-0.003877
14.655	-0.003876
14.660	-0.003828
14.665	-0.003835
14.670	-0.003884
14.675	-0.003870
14.680	-0.003863
14.685	-0.003877
14.690	-0.003884
14.695	-0.003877
14.700	-0.003912
14.705	-0.003905
14.710	-0.003899
14.715	-0.003892
14.720	-0.003878
14.725	-0.003884
14.730	-0.003864
14.735	-0.003898
14.740	-0.003899
14.745	-0.003885
14.750	-0.003878
14.755	-0.003919
14.760	-0.003933
14.765	-0.003913
14.770	-0.003927
14.775	-0.003907
14.780	-0.003942
14.785	-0.003928
14.790	-0.003920
14.795	-0.003927
14.800	-0.003948
14.805	-0.003928
14.810	-0.003934
14.815	-0.003941
14.820	-0.003955
14.825	-0.003949
14.830	-0.003956
14.835	-0.003969
14.840	-0.003970
14.845	-0.003929
14.850	-0.003957
14.855	-0.003991
14.860	-0.003943
14.865	-0.003936
14.870	-0.003957
14.875	-0.003956
14.880	-0.003970
14.885	-0.003970
14.890	-0.003956
14.895	-0.003950
14.900	-0.004012
14.905	-0.004019
14.910	-0.003958
14.915	-0.003985
14.920	-0.003971
14.925	-0.003977
14.930	-0.004005
14.935	-0.003971
14.940	-0.003978
14.945	-0.004005
14.950	-0.003978
14.955	-0.003998
14.960	-0.004005
14.965	-0.004040
14.970	-0.004019
14.975	-0.004019
14.980	-0.004006
14.985	-0.004026
14.990	-0.004018
14.995	-0.004039
15.000	-0.004011
15.005	-0.004032
15.010	-0.004039
15.015	-0.004046
15.020	-0.004032
15.025	-0.004053
15.030	-0.004039
15.035	-0.004059
15.040	-0.004046
15.045	-0.004061
15.050	-0.004053
15.055	-0.004045
15.060	-0.004066
15.065	-0.004053
15.070	-0.004039
15.075	-0.004053
15.080	-0.004032
15.085	-0.004060
15.090	-0.004074
15.095	-0.004046
15.100	-0.004087
15.105	-0.004094
15.110	-0.004061
15.115	-0.004095
15.120	-0.004095
15.125	-0.004087
15.130	-0.004053
15.135	-0.004101
15.140	-0.004087
15.145	-0.004101
15.150	-0.004094
15.155	-0.004080
15.160	-0.004101
15.165	-0.004136
15.170	-0.004108
15.175	-0.004130
15.180	-0.004144
15.185	-0.004137
15.190	-0.004108
15.195	-0.004123
15.200	-0.004116
15.205	-0.004144
15.210	-0.004137
15.215	-0.004171
15.220	-0.004137
15.225	-0.004172
15.230	-0.004158
15.235	-0.004192
15.240	-0.004152
15.245	-0.004180
15.250	-0.004166
15.255	-0.004137
15.260	-0.004186
15.265	-0.004151
15.270	-0.004173
15.275	-0.004179
15.280	-0.004172
15.285	-0.004179
15.290	-0.004193
15.295	-0.004186
15.300	-0.004207
15.305	-0.004242
15.310	-0.004195
15.315	-0.004195
15.320	-0.004194
15.325	-0.004201
15.330	-0.004201
15.335	-0.004201
15.340	-0.004222
15.345	-0.004222
15.350	-0.004223
15.355	-0.004216
15.360	-0.004244
15.365	-0.004230
15.370	-0.004230
15.375	-0.004210
15.380	-0.004238
15.385	-0.004210
15.390	-0.004292
15.395	-0.004251
15.400	-0.004230
15.405	-0.004230
15.410	-0.004258
15.415	-0.004265
15.420	-0.004258
15.425	-0.004258
15.430	-0.004313
15.435	-0.004252
15.440	-0.004273
15.445	-0.004280
15.450	-0.004273
15.455	-0.004293
15.460	-0.004286
15.465	-0.004273
15.470	-0.004266
15.475	-0.004266
15.480	-0.004301
15.485	-0.004335
15.490	-0.004300
15.495	-0.004286
15.500	-0.004293
15.505	-0.004328
15.510	-0.004336
15.515	-0.004315
15.520	-0.004308
15.525	-0.004328
15.530	-0.004335
15.535	-0.004314
15.540	-0.004321
15.545	-0.004335
15.550	-0.004342
15.555	-0.004328
15.560	-0.004356
15.565	-0.004349
15.570	-0.004335
15.575	-0.004364
15.580	-0.004336
15.585	-0.004349
15.590	-0.004390
15.595	-0.004342
15.600	-0.004383
15.605	-0.004363
15.610	-0.004342
15.615	-0.004376
15.620	-0.004363
15.625	-0.004390
15.630	-0.004383
15.635	-0.004397
15.640	-0.004370
15.645	-0.004384
15.650	-0.004370
15.655	-0.004418
15.660	-0.004376
15.665	-0.004431
15.670	-0.004396
15.675	-0.004417
15.680	-0.004431
15.685	-0.004417
15.690	-0.004444
15.695	-0.004437
15.700	-0.004431
15.705	-0.004424
15.710	-0.004411
15.715	-0.004438
15.720	-0.004430
15.725	-0.004458
15.730	-0.004424
15.735	-0.004445
15.740	-0.004431
15.745	-0.004479
15.750	-0.004465
15.755	-0.004479
15.760	-0.004459
15.765	-0.004493
15.770	-0.004465
15.775	-0.004467
15.780	-0.004494
15.785	-0.004493
15.790	-0.004500
15.795	-0.004486
15.800	-0.004486
15.805	-0.004492
15.810	-0.004485
15.815	-0.004499
15.820	-0.004513
15.825	-0.004499
15.830	-0.004506
15.835	-0.004534
15.840	-0.004493
15.845	-0.004501
15.850	-0.004514
15.855	-0.004534
15.860	-0.004534
15.865	-0.004499
15.870	-0.004513
15.875	-0.004513
15.880	-0.004520
15.885	-0.004506
15.890	-0.004541
15.895	-0.004561
15.900	-0.004561
15.905	-0.004568
15.910	-0.004542
15.915	-0.004598
15.920	-0.004555
15.925	-0.004561
15.930	-0.004590
15.935	-0.004562
15.940	-0.004555
15.945	-0.004541
15.950	-0.004589
15.955	-0.004596
15.960	-0.004555
15.965	-0.004603
15.970	-0.004589
15.975	-0.004590
15.980	-0.004591
15.985	-0.004638
15.990	-0.004596
15.995	-0.004638
16.000	-0.004610
16.005	-0.004624
16.010	-0.004597
16.015	-0.004625
16.020	-0.004611
16.025	-0.004645
16.030	-0.004632
16.035	-0.004611
16.040	-0.004653
16.045	-0.004661
16.050	-0.004626
16.055	-0.004659
16.060	-0.004652
16.065	-0.004618
16.070	-0.004652
16.075	-0.004646
16.080	-0.004632
16.085	-0.004639
16.090	-0.004660
16.095	-0.004660
16.100	-0.004680
16.105	-0.004687
16.110	-0.004696
16.115	-0.004710
16.120	-0.004667
16.125	-0.004694
16.130	-0.004702
16.135	-0.004681
16.140	-0.004709
16.145	-0.004716
16.150	-0.004743
16.155	-0.004708
16.160	-0.004716
16.165	-0.004750
16.170	-0.004723
16.175	-0.004716
16.180	-0.004724
16.185	-0.004737
16.190	-0.004708
16.195	-0.004736
16.200	-0.004757
16.205	-0.004743
16.210	-0.004736
16.215	-0.004771
16.220	-0.004751
16.225	-0.004736
16.230	-0.004771
16.235	-0.004764
16.240	-0.004765
16.245	-0.004766
16.250	-0.004779
16.255	-0.004792
16.260	-0.004813
16.265	-0.004779
16.270	-0.004806
16.275	-0.004779
16.280	-0.004766
16.285	-0.004786
16.290	-0.004814
16.295	-0.004807
16.300	-0.004786
16.305	-0.004848
16.310	-0.004864
16.315	-0.004822
16.320	-0.004822
16.325	-0.004848
16.330	-0.004842
16.335	-0.004821
16.340	-0.004842
16.345	-0.004876
16.350	-0.004835
16.355	-0.004835
16.360	-0.004870
16.365	-0.004842
16.370	-0.004884
16.375	-0.004851
16.380	-0.004864
16.385	-0.004885
16.390	-0.004877
16.395	-0.004905
16.400	-0.004878
16.405	-0.004864
16.410	-0.004899
16.415	-0.004878
16.420	-0.004871
16.425	-0.004892
16.430	-0.004906
16.435	-0.004933
16.440	-0.004885
16.445	-0.004914
16.450	-0.004900
16.455	-0.004899
16.460	-0.004912
16.465	-0.004919
16.470	-0.004919
16.475	-0.004954
16.480	-0.004967
16.485	-0.004939
16.490	-0.004960
16.495	-0.004939
16.500	-0.004974
16.505	-0.004960
16.510	-0.004969
16.515	-0.004948
16.520	-0.004967
16.525	-0.004988
16.530	-0.004946
16.535	-0.004981
16.540	-0.004981
16.545	-0.004974
16.550	-0.005001
16.555	-0.004981
16.560	-0.004981
16.565	-0.004974
16.570	-0.004988
16.575	-0.005002
16.580	-0.005030
16.585	-0.005009
16.590	-0.005015
16.595	-0.005036
16.600	-0.005009
16.605	-0.005043
16.610	-0.005008
16.615	-0.005036
16.620	-0.005029
16.625	-0.005056
16.630	-0.004995
16.635	-0.005050
16.640	-0.005044
16.645	-0.005059
16.650	-0.005051
16.655	-0.005071
16.660	-0.005058
16.665	-0.005051
16.670	-0.005065
16.675	-0.005086
16.680	-0.005066
16.685	-0.005093
16.690	-0.005087
16.695	-0.005080
16.700	-0.005107
16.705	-0.005101
16.710	-0.005137
16.715	-0.005102
16.720	-0.005129
16.725	-0.005121
16.730	-0.005136
16.735	-0.005122
16.740	-0.005123
16.745	-0.005130
16.750	-0.005123
16.755	-0.005164
16.760	-0.005171
16.765	-0.005178
16.770	-0.005179
16.775	-0.005175
16.780	-0.005175
16.785	-0.005181
16.790	-0.005159
16.795	-0.005180
16.800	-0.005181
16.805	-0.005195
16.810	-0.005161
16.815	-0.005203
16.820	-0.005210
16.825	-0.005218
16.830	-0.005211
16.835	-0.005231
16.840	-0.005260
16.845	-0.005253
16.850	-0.005247
16.855	-0.005239
16.860	-0.005233
16.865	-0.005212
16.870	-0.005220
16.875	-0.005269
16.880	-0.005242
16.885	-0.005262
16.890	-0.005277
16.895	-0.005291
16.900	-0.005270
16.905	-0.005299
16.910	-0.005287
16.915	-0.005293
16.920	-0.005312
16.925	-0.005312
16.930	-0.005326
16.935	-0.005319
16.940	-0.005299
16.945	-0.005299
16.950	-0.005314
16.955	-0.005320
16.960	-0.005320
16.965	-0.005333
16.970	-0.005347
16.975	-0.005341
16.980	-0.005328
16.985	-0.005361
16.990	-0.005352
16.995	-0.005339
17.000	-0.005367
17.005	-0.005354
17.010	-0.005374
17.015	-0.005388
17.020	-0.005401
17.025	-0.005387
17.030	-0.005387
17.035	-0.005407
17.040	-0.005388
17.045	-0.005423
17.050	-0.005422
17.055	-0.005392
17.060	-0.005427
17.065	-0.005413
17.070	-0.005441
17.075	-0.005427
17.080	-0.005462
17.085	-0.005428
17.090	-0.005455
17.095	-0.005461
17.100	-0.005441
17.105	-0.005469
17.110	-0.005449
17.115	-0.005463
17.120	-0.005476
17.125	-0.005469
17.130	-0.005475
17.135	-0.005502
17.140	-0.005495
17.145	-0.005487
17.150	-0.005509
17.155	-0.005523
17.160	-0.005530
17.165	-0.005523
17.170	-0.005523
17.175	-0.005517
17.180	-0.005476
17.185	-0.005509
17.190	-0.005543
17.195	-0.005543
17.200	-0.005543
17.205	-0.005523
17.210	-0.005544
17.215	-0.005537
17.220	-0.005557
17.225	-0.005550
17.230	-0.005578
17.235	-0.005599
17.240	-0.005614
17.245	-0.005567
17.250	-0.005601
17.255	-0.005585
17.260	-0.005606
17.265	-0.005620
17.270	-0.005593
17.275	-0.005613
17.280	-0.005593
17.285	-0.005627
17.290	-0.005648
17.295	-0.005648
17.300	-0.005641
17.305	-0.005621
17.310	-0.005657
17.315	-0.005663
17.320	-0.005669
17.325	-0.005648
17.330	-0.005641
17.335	-0.005641
17.340	-0.005656
17.345	-0.005670
17.350	-0.005670
17.355	-0.005691
17.360	-0.005698
17.365	-0.005691
17.370	-0.005705
17.375	-0.005686
17.380	-0.005720
17.385	-0.005692
17.390	-0.005732
17.395	-0.005705
17.400	-0.005705
17.405	-0.005691
17.410	-0.005712
17.415	-0.005760
17.420	-0.005767
17.425	-0.005759
17.430	-0.005752
17.435	-0.005753
17.440	-0.005747
17.445	-0.005775
17.450	-0.005781
17.455	-0.005773
17.460	-0.005801
17.465	-0.005773
17.470	-0.005773
17.475	-0.005808
17.480	-0.005781
17.485	-0.005842
17.490	-0.005808
17.495	-0.005807
17.500	-0.005842
17.505	-0.005822
17.510	-0.005837
17.515	-0.005837
17.520	-0.005856
17.525	-0.005828
17.530	-0.005848
17.535	-0.005821
17.540	-0.005842
17.545	-0.005863
17.550	-0.005870
17.555	-0.005884
17.560	-0.005891
17.565	-0.005919
17.570	-0.005912
17.575	-0.005914
17.580	-0.005914
17.585	-0.005920
17.590	-0.005933
17.595	-0.005947
17.600	-0.005934
17.605	-0.005961
17.610	-0.005947
17.615	-0.005947
17.620	-0.005960
17.625	-0.005953
17.630	-0.005981
17.635	-0.005967
17.640	-0.005996
17.645	-0.006011
17.650	-0.006003
17.655	-0.006015
17.660	-0.006015
17.665	-0.006002
17.670	-0.005987
17.675	-0.005987
17.680	-0.006008
17.685	-0.006069
17.690	-0.006021
17.695	-0.006007
17.700	-0.006042
17.705	-0.006057
17.710	-0.006064
17.715	-0.006091
17.720	-0.006055
17.725	-0.006055
17.730	-0.006062
17.735	-0.006076
17.740	-0.006056
17.745	-0.006076
17.750	-0.006104
17.755	-0.006125
17.760	-0.006104
17.765	-0.006117
17.770	-0.006124
17.775	-0.006125
17.780	-0.006111
17.785	-0.006150
17.790	-0.006150
17.795	-0.006150
17.800	-0.006143
17.805	-0.006163
17.810	-0.006204
17.815	-0.006183
17.820	-0.006175
17.825	-0.006175
17.830	-0.006195
17.835	-0.006154
17.840	-0.006203
17.845	-0.006217
17.850	-0.006250
17.855	-0.006242
17.860	-0.006242
17.865	-0.006256
17.870	-0.006223
17.875	-0.006249
17.880	-0.006249
17.885	-0.006235
17.890	-0.006241
17.895	-0.006282
17.900	-0.006254
17.905	-0.006268
17.910	-0.006277
17.915	-0.006269
17.920	-0.006310
17.925	-0.006288
17.930	-0.006309
17.935	-0.006322
17.940	-0.006302
17.945	-0.006322
17.950	-0.006322
17.955	-0.006336
17.960	-0.006350
17.965	-0.006351
17.970	-0.006365
17.975	-0.006360
17.980	-0.006366
17.985	-0.006352
17.990	-0.006373
17.995	-0.006415
18.000	-0.006421
18.005	-0.006393
18.010	-0.006422
18.015	-0.006421
18.020	-0.006401
18.025	-0.006435
18.030	-0.006442
18.035	-0.006456
18.040	-0.006444
18.045	-0.006418
18.050	-0.006452
18.055	-0.006471
18.060	-0.006450
18.065	-0.006464
18.070	-0.006478
18.075	-0.006472
18.080	-0.006479
18.085	-0.006458
18.090	-0.006512
18.095	-0.006492
18.100	-0.006493
18.105	-0.006522
18.110	-0.006502
18.115	-0.006522
18.120	-0.006547
18.125	-0.006533
18.130	-0.006548
18.135	-0.006521
18.140	-0.006535
18.145	-0.006520
18.150	-0.006569
18.155	-0.006602
18.160	-0.006562
18.165	-0.006590
18.170	-0.006584
18.175	-0.006572
18.180	-0.006606
18.185	-0.006597
18.190	-0.006638
18.195	-0.006625
18.200	-0.006598
18.205	-0.006647
18.210	-0.006661
18.215	-0.006653
18.220	-0.006694
18.225	-0.006680
18.230	-0.006654
18.235	-0.006688
18.240	-0.006698
18.245	-0.006718
18.250	-0.006738
18.255	-0.006689
18.260	-0.006724
18.265	-0.006703
18.270	-0.006725
18.275	-0.006732
18.280	-0.006745
18.285	-0.006766
18.290	-0.006774
18.295	-0.006801
18.300	-0.006765
18.305	-0.006766
18.310	-0.006782
18.315	-0.006775
18.320	-0.006816
18.325	-0.006815
18.330	-0.006787
18.335	-0.006815
18.340	-0.006828
18.345	-0.006828
18.350	-0.006806
18.355	-0.006856
18.360	-0.006828
18.365	-0.006862
18.370	-0.006877
18.375	-0.006899
18.380	-0.006879
18.385	-0.006883
18.390	-0.006898
18.395	-0.006905
18.400	-0.006919
18.405	-0.006920
18.410	-0.006907
18.415	-0.006954
18.420	-0.006927
18.425	-0.006962
18.430	-0.006982
18.435	-0.006961
18.440	-0.006964
18.445	-0.006999
18.450	-0.006979
18.455	-0.006983
18.460	-0.007005
18.465	-0.007018
18.470	-0.007033
18.475	-0.007039
18.480	-0.007047
18.485	-0.007033
18.490	-0.007048
18.495	-0.007056
18.500	-0.007063
18.505	-0.007058
18.510	-0.007100
18.515	-0.007078
18.520	-0.007098
18.525	-0.007078
18.530	-0.007100
18.535	-0.007094
18.540	-0.007108
18.545	-0.007157
18.550	-0.007149
18.555	-0.007135
18.560	-0.007156
18.565	-0.007191
18.570	-0.007172
18.575	-0.007174
18.580	-0.007215
18.585	-0.007185
18.590	-0.007206
18.595	-0.007212
18.600	-0.007179
18.605	-0.007227
18.610	-0.007248
18.615	-0.007262
18.620	-0.007240
18.625	-0.007268
18.630	-0.007234
18.635	-0.007262
18.640	-0.007278
18.645	-0.007320
18.650	-0.007290
18.655	-0.007311
18.660	-0.007298
18.665	-0.007284
18.670	-0.007334
18.675	-0.007326
18.680	-0.007340
18.685	-0.007361
18.690	-0.007362
18.695	-0.007361
18.700	-0.007376
18.705	-0.007398
18.710	-0.007421
18.715	-0.007435
18.720	-0.007411
18.725	-0.007452
18.730	-0.007396
18.735	-0.007444
18.740	-0.007431
18.745	-0.007452
18.750	-0.007473
18.755	-0.007467
18.760	-0.007487
18.765	-0.007522
18.770	-0.007522
18.775	-0.007497
18.780	-0.007531
18.785	-0.007529
18.790	-0.007501
18.795	-0.007557
18.800	-0.007550
18.805	-0.007558
18.810	-0.007551
18.815	-0.007579
18.820	-0.007593
18.825	-0.007629
18.830	-0.007644
18.835	-0.007622
18.840	-0.007632
18.845	-0.007645
18.850	-0.007638
18.855	-0.007656
18.860	-0.007685
18.865	-0.007644
18.870	-0.007694
18.875	-0.007695
18.880	-0.007696
18.885	-0.007725
18.890	-0.007753
18.895	-0.007740
18.900	-0.007748
18.905	-0.007729
18.910	-0.007773
18.915	-0.007793
18.920	-0.007778
18.925	-0.007793
18.930	-0.007815
18.935	-0.007822
18.940	-0.007807
18.945	-0.007791
18.950	-0.007796
18.955	-0.007832
18.960	-0.007847
18.965	-0.007854
18.970	-0.007849
18.975	-0.007851
18.980	-0.007851
18.985	-0.007881
18.990	-0.007913
18.995	-0.007884
19.000	-0.007911
19.005	-0.007924
19.010	-0.007921
19.015	-0.007920
19.020	-0.007941
19.025	-0.007963
19.030	-0.007949
19.035	-0.007984
19.040	-0.007992
19.045	-0.008005
19.050	-0.008004
19.055	-0.008016
19.060	-0.008052
19.065	-0.008058
19.070	-0.008066
19.075	-0.008099
19.080	-0.008099
19.085	-0.008126
19.090	-0.008106
19.095	-0.008126
19.100	-0.008140
19.105	-0.008127
19.110	-0.008191
19.115	-0.008183
19.120	-0.008181
19.125	-0.008167
19.130	-0.008182
19.135	-0.008197
19.140	-0.008211
19.145	-0.008230
19.150	-0.008232
19.155	-0.008266
19.160	-0.008273
19.165	-0.008293
19.170	-0.008293
19.175	-0.008295
19.180	-0.008322
19.185	-0.008328
19.190	-0.008323
19.195	-0.008330
19.200	-0.008359
19.205	-0.008395
19.210	-0.008368
19.215	-0.008397
19.220	-0.008439
19.225	-0.008406
19.230	-0.008449
19.235	-0.008457
19.240	-0.008469
19.245	-0.008497
19.250	-0.008497
19.255	-0.008546
19.260	-0.008491
19.265	-0.008553
19.270	-0.008553
19.275	-0.008566
19.280	-0.008559
19.285	-0.008566
19.290	-0.008587
19.295	-0.008628
19.300	-0.008635
19.305	-0.008629
19.310	-0.008624
19.315	-0.008636
19.320	-0.008661
19.325	-0.008689
19.330	-0.008647
19.335	-0.008687
19.340	-0.008638
19.345	-0.008672
19.350	-0.008687
19.355	-0.008755
19.360	-0.008726
19.365	-0.008751
19.370	-0.008765
19.375	-0.008780
19.380	-0.008792
19.385	-0.008789
19.390	-0.008767
19.395	-0.008816
19.400	-0.008858
19.405	-0.008844
19.410	-0.008872
19.415	-0.008886
19.420	-0.008907
19.425	-0.008913
19.430	-0.008955
19.435	-0.008913
19.440	-0.008937
19.445	-0.008962
19.450	-0.008975
19.455	-0.009008
19.460	-0.009030
19.465	-0.009023
19.470	-0.009031
19.475	-0.009031
19.480	-0.009045
19.485	-0.009079
19.490	-0.009052
19.495	-0.009128
19.500	-0.009074
19.505	-0.009117
19.510	-0.009112
19.515	-0.009160
19.520	-0.009187
19.525	-0.009173
19.530	-0.009203
19.535	-0.009224
19.540	-0.009218
19.545	-0.009246
19.550	-0.009261
19.555	-0.009274
19.560	-0.009282
19.565	-0.009309
19.570	-0.009325
19.575	-0.009306
19.580	-0.009341
19.585	-0.009345
19.590	-0.009395
19.595	-0.009382
19.600	-0.009377
19.605	-0.009406
19.610	-0.009414
19.615	-0.009427
19.620	-0.009448
19.625	-0.009476
19.630	-0.009484
19.635	-0.009492
19.640	-0.009536
19.645	-0.009513
19.650	-0.009545
19.655	-0.009564
19.660	-0.009558
19.665	-0.009572
19.670	-0.009569
19.675	-0.009598
19.680	-0.009640
19.685	-0.009633
19.690	-0.009656
19.695	-0.009669
19.700	-0.009684
19.705	-0.009715
19.710	-0.009691
19.715	-0.009752
19.720	-0.009772
19.725	-0.009793
19.730	-0.009781
19.735	-0.009803
19.740	-0.009804
19.745	-0.009832
19.750	-0.009865
19.755	-0.009904
19.760	-0.009913
19.765	-0.009915
19.770	-0.009981
19.775	-0.009962
19.780	-0.010007
19.785	-0.010011
19.790	-0.010011
19.795	-0.010000
19.800	-0.010032
19.805	-0.010087
19.810	-0.010075
19.815	-0.010102
19.820	-0.010117
19.825	-0.010152
19.830	-0.010167
19.835	-0.010204
19.840	-0.010185
19.845	-0.010213
19.850	-0.010259
19.855	-0.010273
19.860	-0.010296
19.865	-0.010296
19.870	-0.010346
19.875	-0.010337
19.880	-0.010385
19.885	-0.010349
19.890	-0.010402
19.895	-0.010421
19.900	-0.010433
19.905	-0.010468
19.910	-0.010474
19.915	-0.010527
19.920	-0.010509
19.925	-0.010563
19.930	-0.010554
19.935	-0.010592
19.940	-0.010591
19.945	-0.010631
19.950	-0.010638
19.955	-0.010659
19.960	-0.010687
19.965	-0.010713
19.970	-0.010751
19.975	-0.010766
19.980	-0.010792
19.985	-0.010787
19.990	-0.010850
19.995	-0.010857
20.000	-0.010842
20.005	-0.010904
20.010	-0.010869
20.015	-0.010896
20.020	-0.010966
20.025	-0.010981
20.030	-0.010987
20.035	-0.011022
20.040	-0.011069
20.045	-0.011096
20.050	-0.011123
20.055	-0.011128
20.060	-0.011150
20.065	-0.011172
20.070	-0.011187
20.075	-0.011229
20.080	-0.011258
20.085	-0.011295
20.090	-0.011330
20.095	-0.011323
20.100	-0.011380
20.105	-0.011398
20.110	-0.011433
20.115	-0.011438
20.120	-0.011463
20.125	-0.011456
20.130	-0.011492
20.135	-0.011500
20.140	-0.011550
20.145	-0.011556
20.150	-0.011625
20.155	-0.011647
20.160	-0.011641
20.165	-0.011691
20.170	-0.011695
20.175	-0.011726
20.180	-0.011761
20.185	-0.011787
20.190	-0.011817
20.195	-0.011811
20.200	-0.011876
20.205	-0.011913
20.210	-0.011902
20.215	-0.011952
20.220	-0.011966
20.225	-0.012022
20.230	-0.012049
20.235	-0.012052
20.240	-0.012081
20.245	-0.012145
20.250	-0.012129
20.255	-0.012165
20.260	-0.012189
20.265	-0.012238
20.270	-0.012243
20.275	-0.012262
20.280	-0.012296
20.285	-0.012363
20.290	-0.012362
20.295	-0.012397
20.300	-0.012439
20.305	-0.012470
20.310	-0.012506
20.315	-0.012539
20.320	-0.012565
20.325	-0.012568
20.330	-0.012646
20.335	-0.012682
20.340	-0.012700
20.345	-0.012736
20.350	-0.012805
20.355	-0.012804
20.360	-0.012844
20.365	-0.012883
20.370	-0.012907
20.375	-0.012938
20.380	-0.013026
20.385	-0.013017
20.390	-0.013056
20.395	-0.013096
20.400	-0.013143
20.405	-0.013168
20.410	-0.013185
20.415	-0.013211
20.420	-0.013279
20.425	-0.013319
20.430	-0.013339
20.435	-0.013386
20.440	-0.013411
20.445	-0.013484
20.450	-0.013508
20.455	-0.013583
20.460	-0.013580
20.465	-0.013659
20.470	-0.013706
20.475	-0.013740
20.480	-0.013791
20.485	-0.013849
20.490	-0.013921
20.495	-0.013970
20.500	-0.014030
20.505	-0.014073
20.510	-0.014099
20.515	-0.014109
20.520	-0.014132
20.525	-0.014205
20.530	-0.014239
20.535	-0.014256
20.540	-0.014266
20.545	-0.014326
20.550	-0.014393
20.555	-0.014463
20.560	-0.014457
20.565	-0.014548
20.570	-0.014573
20.575	-0.014620
20.580	-0.014643
20.585	-0.014712
20.590	-0.014725
20.595	-0.014773
20.600	-0.014793
20.605	-0.014840
20.610	-0.014909
20.615	-0.014954
20.620	-0.015041
20.625	-0.015105
20.630	-0.015166
20.635	-0.015226
20.640	-0.015308
20.645	-0.015351
20.650	-0.015423
20.655	-0.015456
20.660	-0.015529
20.665	-0.015619
20.670	-0.015640
20.675	-0.015724
20.680	-0.015754
20.685	-0.015824
20.690	-0.015884
20.695	-0.015978
20.700	-0.016017
20.705	-0.016087
20.710	-0.016137
20.715	-0.016213
20.720	-0.016279
20.725	-0.016364
20.730	-0.016396
20.735	-0.016485
20.740	-0.016528
20.745	-0.016621
20.750	-0.016635
20.755	-0.016695
20.760	-0.016784
20.765	-0.016867
20.770	-0.016954
20.775	-0.017048
20.780	-0.017209
20.785	-0.017268
20.790	-0.017380
20.795	-0.017483
20.800	-0.017570
20.805	-0.017648
20.810	-0.017717
20.815	-0.017799
20.820	-0.017889
20.825	-0.017996
20.830	-0.018103
20.835	-0.018170
20.840	-0.018285
20.845	-0.018388
20.850	-0.018497
20.855	-0.018536
20.860	-0.018652
20.865	-0.018730
20.870	-0.018837
20.875	-0.018967
20.880	-0.019082
20.885	-0.019224
20.890	-0.019329
20.895	-0.019430
20.900	-0.019538
20.905	-0.019615
20.910	-0.019735
20.915	-0.019796
20.920	-0.019889
20.925	-0.019964
20.930	-0.020086
20.935	-0.020163
20.940	-0.020303
20.945	-0.020434
20.950	-0.020574
20.955	-0.020718
20.960	-0.020830
20.965	-0.020964
20.970	-0.021080
20.975	-0.021241
20.980	-0.021342
20.985	-0.021464
20.990	-0.021545
20.995	-0.021688
21.000	-0.021903
21.005	-0.022064
21.010	-0.022234
21.015	-0.022354
21.020	-0.022528
21.025	-0.022693
21.030	-0.022890
21.035	-0.023074
21.040	-0.023266
21.045	-0.023507
21.050	-0.023730
21.055	-0.023952
21.060	-0.024113
21.065	-0.024286
21.070	-0.024503
21.075	-0.024735
21.080	-0.025003
21.085	-0.025235
21.090	-0.025455
21.095	-0.025672
21.100	-0.025932
21.105	-0.026217
21.110	-0.026511
21.115	-0.026803
21.120	-0.027074
21.125	-0.027368
21.130	-0.027760
21.135	-0.028146
21.140	-0.028543
21.145	-0.028916
21.150	-0.029051
21.155	-0.029256
21.160	-0.029700
21.165	-0.029851
21.170	-0.030146
21.175	-0.030829
21.180	-0.031339
21.185	-0.031808
21.190	-0.032428
21.195	-0.032979
21.200	-0.033435
21.205	-0.034154
21.210	-0.034657
21.215	-0.035170
21.220	-0.035858
21.225	-0.036913
21.230	-0.037709
21.235	-0.038833
21.240	-0.039641
21.245	-0.039781
21.250	-0.041023
21.255	-0.042614
21.260	-0.043020
21.265	-0.044063
21.270	-0.045209
21.275	-0.046422
21.280	-0.047402
21.285	-0.047910
21.290	-0.047916
21.295	-0.047894
21.300	-0.047419
21.305	-0.046464
21.310	-0.044942
21.315	-0.042697
21.320	-0.039882
21.325	-0.036413
21.330	-0.032541
21.335	-0.028605
21.340	-0.024757
21.345	-0.020652
21.350	-0.016158
21.355	-0.011644
21.360	-0.007719
21.365	-0.004728
21.370	-0.002699
21.375	-0.001463
21.380	-0.000809
21.385	-0.000408
21.390	-0.000266
21.395	-0.000198
21.400	-0.000110
21.405	-0.000055
21.410	-0.000049
21.415	-0.000022
21.420	-0.000015
21.425	-0.000001
21.430	-0.000008
21.435	-0.000001
21.440	-0.000001
21.445	-0.000022
21.450	0.000025
21.455	0.000032
21.460	0.000005
21.465	0.000012
21.470	0.000012
21.475	0.000012
21.480	0.000019
21.485	-0.000009
21.490	0.000032
21.495	0.000019
21.500	0.000032
21.505	0.000040
21.510	0.000053
21.515	0.000019
21.520	0.000018
21.525	0.000053
21.530	0.000032
21.535	0.000039
21.540	0.000059
21.545	0.000045
21.550	0.000032
21.555	0.000038
21.560	0.000052
21.565	0.000032
21.570	0.000019
21.575	0.000032
21.580	0.000039
21.585	0.000025
21.590	0.000032
21.595	0.000032
21.600	0.000059
21.605	0.000059
21.610	0.000018
21.615	0.000072
21.620	0.000038
21.625	0.000025
21.630	0.000065
21.635	0.000011
21.640	0.000019
21.645	0.000025
21.650	0.000031
21.655	0.000045
21.660	0.000038
21.665	0.000072
21.670	0.000058
21.675	0.000065
21.680	0.000045
21.685	0.000031
21.690	0.000045
21.695	0.000024
21.700	0.000038
21.705	0.000004
21.710	0.000025
21.715	0.000065
21.720	0.000044
21.725	0.000044
21.730	0.000058
21.735	0.000058
21.740	0.000017
21.745	0.000072
21.750	0.000065
21.755	0.000031
21.760	0.000038
21.765	0.000024
21.770	0.000024
21.775	0.000038
21.780	0.000031
21.785	0.000024
21.790	0.000037
21.795	0.000037
21.800	0.000037
21.805	0.000057
21.810	0.000044
21.815	0.000044
21.820	0.000078
21.825	0.000078
21.830	0.000010
21.835	0.000037
21.840	0.000051
21.845	0.000030
21.850	0.000071
21.855	0.000023
21.860	0.000085
21.865	0.000064
21.870	0.000044
21.875	0.000051
21.880	0.000030
21.885	0.000057
21.890	0.000064
21.895	0.000037
21.900	0.000050
21.905	0.000051
21.910	0.000044
21.915	0.000051
21.920	0.000064
21.925	0.000050
21.930	0.000043
21.935	0.000077
21.940	0.000057
21.945	0.000043
21.950	0.000050
21.955	0.000043
21.960	0.000077
21.965	0.000057
21.970	0.000071
21.975	0.000044
21.980	0.000057
21.985	0.000043
21.990	0.000036
21.995	0.000050
22.000	0.000064
22.005	0.000009
22.010	0.000030
22.015	0.000070
22.020	0.000050
22.025	0.000029
22.030	0.000084
22.035	0.000043
22.040	0.000044
22.045	0.000064
22.050	0.000063
22.055	0.000056
22.060	0.000036
22.065	0.000036
22.070	0.000043
22.075	0.000056
22.080	0.000049
22.085	0.000063
22.090	0.000022
22.095	0.000036
22.100	0.000036
22.105	0.000050
22.110	0.000056
22.115	0.000042
22.120	0.000022
22.125	0.000056
22.130	0.000063
22.135	0.000063
22.140	0.000042
22.145	0.000029
22.150	0.000063
22.155	0.000029
22.160	0.000056
22.165	0.000015
22.170	0.000029
22.175	0.000056
22.180	0.000063
22.185	0.000062
22.190	0.000056
22.195	0.000049
22.200	0.000090
22.205	0.000062
22.210	0.000076
22.215	0.000055
22.220	0.000089
22.225	0.000048
22.230	0.000028
22.235	0.000049
22.240	0.000077
22.245	0.000029
22.250	0.000082
22.255	0.000082
22.260	0.000035
22.265	0.000076
22.270	0.000069
22.275	0.000042
22.280	0.000035
22.285	0.000028
22.290	0.000042
22.295	0.000008
22.300	0.000062
22.305	0.000029
22.310	0.000028
22.315	0.000048
22.320	0.000069
22.325	0.000034
22.330	0.000055
22.335	0.000062
22.340	0.000041
22.345	0.000035
22.350	0.000021
22.355	0.000055
22.360	0.000048
22.365	0.000007
22.370	0.000042
22.375	0.000069
22.380	0.000055
22.385	0.000041
22.390	0.000055
22.395	0.000061
22.400	0.000055
22.405	0.000075
22.410	0.000062
22.415	0.000041
22.420	0.000075
22.425	0.000048
22.430	0.000034
22.435	0.000062
22.440	0.000035
22.445	0.000048
22.450	0.000068
22.455	0.000075
22.460	0.000068
22.465	0.000081
22.470	0.000075
22.475	0.000068
22.480	0.000061
22.485	0.000034
22.490	0.000047
22.495	0.000034
22.500	0.000068
22.505	0.000055
22.510	0.000048
22.515	0.000040
22.520	0.000040
22.525	0.000061
22.530	0.000068
22.535	0.000061
22.540	0.000047
22.545	0.000054
22.550	0.000061
22.555	0.000054
22.560	0.000061
22.565	0.000027
22.570	0.000068
22.575	0.000054
22.580	0.000054
22.585	0.000047
22.590	0.000060
22.595	0.000067
22.600	0.000047
22.605	0.000074
22.610	0.000060
22.615	0.000033
22.620	0.000026
22.625	0.000060
22.630	0.000060
22.635	0.000047
22.640	0.000068
22.645	0.000047
22.650	0.000053
22.655	0.000040
22.660	0.000054
22.665	0.000040
22.670	0.000033
22.675	0.000013
22.680	0.000019
22.685	0.000053
22.690	0.000053
22.695	0.000060
22.700	0.000060
22.705	0.000027
22.710	0.000040
22.715	0.000053
22.720	0.000060
22.725	0.000067
22.730	0.000053
22.735	0.000080
22.740	0.000033
22.745	0.000073
22.750	0.000066
22.755	0.000046
22.760	0.000039
22.765	0.000032
22.770	0.000047
22.775	0.000047
22.780	0.000087
22.785	0.000039
22.790	0.000053
22.795	0.000066
22.800	0.000060
22.805	0.000053
22.810	0.000046
22.815	0.000060
22.820	0.000060
22.825	0.000039
22.830	0.000080
22.835	0.000046
22.840	0.000040
22.845	0.000067
22.850	0.000012
22.855	-0.000009
22.860	0.000066
22.865	0.000053
22.870	0.000046
22.875	0.000039
22.880	0.000073
22.885	0.000073
22.890	0.000059
22.895	0.000052
22.900	0.000025
22.905	0.000039
22.910	0.000053
22.915	0.000052
22.920	0.000025
22.925	0.000038
22.930	0.000039
22.935	0.000079
22.940	0.000032
22.945	0.000059
22.950	0.000052
22.955	0.000052
22.960	0.000052
22.965	0.000079
22.970	0.000087
22.975	0.000039
22.980	0.000039
22.985	0.000038
22.990	0.000038
22.995	0.000058
23.000	0.000072
23.005	0.000086
23.010	0.000045
23.015	0.000038
23.020	0.000025
23.025	0.000024
23.030	0.000058
23.035	0.000079
23.040	0.000012
23.045	0.000059
23.050	0.000072
23.055	0.000045
23.060	0.000052
23.065	0.000045
23.070	0.000052
23.075	0.000038
23.080	0.000038
23.085	0.000038
23.090	0.000031
23.095	0.000058
23.100	0.000072
23.105	0.000045
23.110	0.000059
23.115	0.000045
23.120	0.000031
23.125	0.000058
23.130	0.000051
23.135	0.000078
23.140	0.000051
23.145	0.000017
23.150	0.000051
23.155	0.000065
23.160	0.000044
23.165	0.000058
23.170	0.000045
23.175	0.000018
23.180	0.000038
23.185	0.000030
23.190	0.000037
23.195	0.000071
23.200	0.000031
23.205	0.000058
23.210	0.000072
23.215	0.000030
23.220	0.000024
23.225	0.000051
23.230	0.000044
23.235	0.000044
23.240	0.000052
23.245	0.000051
23.250	0.000037
23.255	0.000051
23.260	0.000064
23.265	0.000030
23.270	0.000051
23.275	0.000010
23.280	0.000050
23.285	0.000044
23.290	0.000078
23.295	0.000030
23.300	0.000037
23.305	0.000038
23.310	0.000071
23.315	0.000037
23.320	0.000037
23.325	0.000071
23.330	0.000071
23.335	0.000030
23.340	0.000064
23.345	0.000044
23.350	0.000064
23.355	0.000050
23.360	0.000064
23.365	0.000064
23.370	0.000030
23.375	0.000064
23.380	0.000044
23.385	0.000057
23.390	0.000043
23.395	0.000050
23.400	0.000009
23.405	0.000043
23.410	0.000057
23.415	0.000063
23.420	0.000029
23.425	0.000063
23.430	0.000023
23.435	0.000023
23.440	0.000030
23.445	0.000023
23.450	0.000043
23.455	0.000036
23.460	0.000057
23.465	0.000063
23.470	0.000043
23.475	0.000043
23.480	0.000029
23.485	0.000063
23.490	0.000029
23.495	0.000050
23.500	0.000023
23.505	0.000023
23.510	0.000036
23.515	0.000056
23.520	0.000043
23.525	0.000036
23.530	0.000063
23.535	0.000056
23.540	0.000036
23.545	0.000029
23.550	0.000022
23.555	0.000049
23.560	0.000049
23.565	0.000015
23.570	0.000016
23.575	0.000056
23.580	0.000036
23.585	0.000049
23.590	0.000035
23.595	0.000022
23.600	0.000056
23.605	0.000063
23.610	0.000042
23.615	0.000035
23.620	0.000049
23.625	0.000069
23.630	0.000056
23.635	0.000043
23.640	0.000050
23.645	0.000049
23.650	0.000042
23.655	0.000042
23.660	0.000015
23.665	0.000028
23.670	0.000062
23.675	0.000042
23.680	0.000055
23.685	0.000048
23.690	0.000021
23.695	0.000028
23.700	0.000062
23.705	0.000029
23.710	0.000049
23.715	0.000076
23.720	0.000062
23.725	0.000048
23.730	0.000035
23.735	0.000083
23.740	0.000048
23.745	0.000062
23.750	0.000021
23.755	0.000055
23.760	0.000069
23.765	0.000035
23.770	0.000035
23.775	0.000035
23.780	0.000049
23.785	0.000034
23.790	0.000062
23.795	0.000028
23.800	0.000055
23.805	0.000028
23.810	0.000027
23.815	0.000041
23.820	0.000062
23.825	0.000055
23.830	0.000028
23.835	0.000042
23.840	0.000028
23.845	0.000034
23.850	0.000041
23.855	0.000034
23.860	0.000034
23.865	0.000041
23.870	0.000041
23.875	0.000027
23.880	0.000041
23.885	0.000007
23.890	0.000048
23.895	0.000007
23.900	0.000068
23.905	0.000014
23.910	0.000028
23.915	0.000048
23.920	0.000048
23.925	0.000013
23.930	0.000020
23.935	0.000047
23.940	0.000034
23.945	0.000061
23.950	0.000054
23.955	0.000041
23.960	0.000027
23.965	0.000047
23.970	0.000055
23.975	0.000007
23.980	0.000034
23.985	0.000034
23.990	0.000047
23.995	0.000020
24.000	0.000068
24.005	0.000020
24.010	0.000047
24.015	0.000034
24.020	0.000061
24.025	0.000047
24.030	0.000034
24.035	0.000068
24.040	0.000034
24.045	0.000034
24.050	0.000054
24.055	0.000040
24.060	0.000040
24.065	0.000047
24.070	0.000026
24.075	0.000040
24.080	0.000033
24.085	0.000047
24.090	0.000033
24.095	0.000013
24.100	0.000047
24.105	0.000047
24.110	0.000067
24.115	0.000046
24.120	0.000047
24.125	0.000040
24.130	0.000060
24.135	0.000053
24.140	0.000040
24.145	0.000060
24.150	0.000013
24.155	0.000060
24.160	0.000033
24.165	0.000053
24.170	0.000020
24.175	0.000033
24.180	0.000040
24.185	0.000012
24.190	0.000060
24.195	0.000012
24.200	0.000067
24.205	0.000053
24.210	0.000039
24.215	0.000046
24.220	0.000046
24.225	0.000026
24.230	0.000046
24.235	0.000053
24.240	0.000060
24.245	0.000046
24.250	0.000053
24.255	0.000019
24.260	0.000039
24.265	0.000039
24.270	-0.000002
24.275	0.000026
24.280	0.000046
24.285	0.000012
24.290	0.000046
24.295	0.000026
24.300	0.000039
24.305	0.000053
24.310	0.000026
24.315	0.000039
24.320	0.000039
24.325	0.000080
24.330	0.000059
24.335	-0.000002
24.340	0.000032
24.345	0.000045
24.350	0.000052
24.355	0.000045
24.360	0.000039
24.365	0.000032
24.370	0.000060
24.375	0.000039
24.380	0.000032
24.385	0.000039
24.390	0.000025
24.395	0.000018
24.400	0.000032
24.405	0.000052
24.410	0.000025
24.415	0.000025
24.420	0.000059
24.425	0.000045
24.430	0.000011
24.435	0.000046
24.440	0.000032
24.445	0.000025
24.450	0.000025
24.455	0.000031
24.460	0.000031
24.465	0.000038
24.470	0.000059
24.475	0.000045
24.480	0.000024
24.485	0.000031
24.490	0.000038
24.495	0.000058
24.500	0.000045
24.505	0.000032
24.510	0.000004
24.515	0.000024
24.520	0.000031
24.525	0.000045
24.530	0.000018
24.535	0.000045
24.540	0.000011
24.545	0.000038
24.550	0.000038
24.555	0.000024
24.560	0.000017
24.565	0.000011
24.570	0.000038
24.575	0.000038
24.580	0.000079
24.585	0.000044
24.590	0.000038
24.595	0.000031
24.600	0.000038
24.605	0.000031
24.610	0.000037
24.615	0.000044
24.620	0.000037
24.625	0.000017
24.630	0.000031
24.635	0.000011
24.640	0.000045
24.645	0.000037
24.650	0.000051
24.655	0.000044
24.660	0.000037
24.665	0.000030
24.670	0.000078
24.675	0.000010
24.680	0.000044
24.685	0.000044
24.690	0.000064
24.695	0.000044
24.700	0.000003
24.705	0.000004
24.710	0.000017
24.715	0.000050
24.720	0.000016
24.725	0.000064
24.730	0.000057
24.735	0.000078
24.740	0.000037
24.745	0.000023
24.750	0.000009
24.755	0.000043
24.760	0.000043
24.765	0.000016
24.770	0.000017
24.775	0.000017
24.780	0.000037
24.785	0.000043
24.790	0.000043
24.795	0.000043
24.800	0.000057
24.805	0.000043
24.810	0.000037
24.815	0.000050
24.820	0.000043
24.825	0.000023
24.830	0.000016
24.835	0.000016
24.840	0.000051
24.845	0.000064
24.850	-0.000005
24.855	0.000016
24.860	0.000043
24.865	0.000029
24.870	0.000029
24.875	0.000029
24.880	0.000029
24.885	0.000056
24.890	0.000022
24.895	0.000009
24.900	0.000016
24.905	0.000016
24.910	0.000057
24.915	0.000029
24.920	0.000036
24.925	0.000036
24.930	0.000029
24.935	0.000036
24.940	0.000036
24.945	0.000009
24.950	0.000022
24.955	0.000022
24.960	0.000036
24.965	0.000029
24.970	0.000057
24.975	0.000036
24.980	0.000043
24.985	0.000035
24.990	0.000029
24.995	0.000028
25.000	0.000049
25.005	0.000022
25.010	0.000042
25.015	0.000035
25.020	0.000049
25.025	0.000042
25.030	0.000015
25.035	0.000029
25.040	0.000056
25.045	0.000008
25.050	0.000015
25.055	0.000035
25.060	0.000028
25.065	0.000029
25.070	0.000035
25.075	0.000015
25.080	0.000035
25.085	0.000042
25.090	0.000055
25.095	0.000028
25.100	0.000015
25.105	0.000036
25.110	0.000015
25.115	0.000035
25.120	0.000008
25.125	0.000048
25.130	0.000042
25.135	0.000001
25.140	0.000014
25.145	0.000014
25.150	0.000014
25.155	0.000014
25.160	0.000048
25.165	0.000028
25.170	0.000028
25.175	0.000021
25.180	0.000034
25.185	0.000035
25.190	0.000001
25.195	0.000041
25.200	0.000014
25.205	0.000021
25.210	0.000048
25.215	0.000001
25.220	-0.000006
25.225	0.000034
25.230	0.000034
25.235	-0.000006
25.240	0.000008
25.245	0.000041
25.250	0.000034
25.255	0.000020
25.260	-0.000007
25.265	0.000034
25.270	0.000027
25.275	0.000027
25.280	0.000027
25.285	0.000013
25.290	-0.000007
25.295	0.000020
25.300	0.000028
25.305	0.000014
25.310	0.000041
25.315	0.000041
25.320	0.000020
25.325	0.000007
25.330	0.000068
25.335	0.000013
25.340	0.000014
25.345	0.000020
25.350	0.000013
25.355	-0.000007
25.360	0.000034
25.365	0.000034
25.370	0.000034
25.375	0.000007
25.380	0.000020
25.385	0.000006
25.390	0.000047
25.395	0.000027
25.400	0.000027
25.405	0.000027
25.410	0.000033
25.415	0.000040
25.420	0.000026
25.425	-0.000008
25.430	0.000020
25.435	-0.000007
25.440	0.000034
25.445	0.000013
25.450	0.000047
25.455	0.000026
25.460	0.000006
25.465	0.000006
25.470	0.000026
25.475	0.000026
25.480	0.000026
25.485	0.000033
25.490	0.000006
25.495	0.000012
25.500	0.000013
25.505	0.000006
25.510	-0.000001
25.515	-0.000001
25.520	0.000012
25.525	0.000012
25.530	0.000012
25.535	0.000026
25.540	0.000033
25.545	0.000033
25.550	0.000019
25.555	0.000026
25.560	0.000026
25.565	0.000026
25.570	0.000026
25.575	-0.000001
25.580	0.000012
25.585	0.000059
25.590	0.000019
25.595	0.000032
25.600	0.000026
25.605	0.000005
25.610	0.000025
25.615	0.000025
25.620	0.000012
25.625	0.000019
25.630	0.000012
25.635	0.000026
25.640	-0.000001
25.645	0.000019
25.650	0.000025
25.655	0.000005
25.660	0.000012
25.665	0.000012
25.670	-0.000002
25.675	0.000059
25.680	-0.000009
25.685	-0.000009
25.690	-0.000002
25.695	0.000045
25.700	0.000012
25.705	0.000012
25.710	0.000039
25.715	0.000018
25.720	-0.000002
25.725	-0.000023
25.730	0.000011
25.735	-0.000016
25.740	0.000018
25.745	0.000011
25.750	0.000011
25.755	0.000018
25.760	0.000004
25.765	0.000038
25.770	0.000025
25.775	0.000011
25.780	0.000025
25.785	0.000018
25.790	0.000038
25.795	-0.000003
25.800	-0.000003
25.805	0.000031
25.810	0.000024
25.815	-0.000010
25.820	0.000038
25.825	-0.000017
25.830	0.000011
25.835	0.000004
25.840	0.000045
25.845	0.000031
25.850	0.000004
25.855	0.000044
25.860	-0.000010
25.865	0.000011
25.870	0.000017
25.875	0.000031
25.880	0.000017
25.885	0.000010
25.890	0.000010
25.895	0.000010
25.900	0.000018
25.905	0.000004
25.910	0.000031
25.915	-0.000003
25.920	-0.000003
25.925	0.000017
25.930	-0.000010
25.935	0.000010
25.940	0.000031
25.945	0.000024
25.950	-0.000004
25.955	-0.000004
25.960	0.000003
25.965	0.000010
25.970	-0.000017
25.975	-0.000017
25.980	0.000010
25.985	0.000017
25.990	-0.000017
25.995	0.000030
26.000	-0.000017
26.005	0.000023
26.010	0.000003
26.015	0.000010
26.020	-0.000004
26.025	0.000023
26.030	-0.000031
26.035	0.000037
26.040	-0.000017
26.045	0.000023
26.050	-0.000024
26.055	0.000003
26.060	0.000003
26.065	0.000003
26.070	0.000003
26.075	-0.000011
26.080	0.000003
26.085	0.000009
26.090	0.000030
26.095	0.000009
26.100	0.000010
26.105	0.000017
26.110	0.000003
26.115	0.000036
26.120	0.000023
26.125	0.000023
26.130	0.000023
26.135	-0.000004
26.140	-0.000018
26.145	-0.000025
26.150	-0.000005
26.155	-0.000011
26.160	0.000016
26.165	-0.000011
26.170	-0.000011
26.175	-0.000004
26.180	-0.000032
26.185	0.000029
26.190	0.000002
26.195	0.000002
26.200	0.000015
26.205	0.000015
26.210	0.000016
26.215	-0.000012
26.220	-0.000012
26.225	-0.000005
26.230	0.000009
26.235	-0.000011
26.240	-0.000004
26.245	0.000022
26.250	-0.000005
26.255	0.000029
26.260	0.000002
26.265	0.000022
26.270	0.000008
26.275	0.000008
26.280	-0.000025
26.285	0.000022
26.290	-0.000019
26.295	-0.000012
26.300	-0.000005
26.305	-0.000018
26.310	0.000022
26.315	0.000001
26.320	0.000002
26.325	0.000015
26.330	0.000029
26.335	0.000015
26.340	-0.000012
26.345	0.000008
26.350	-0.000012
26.355	-0.000012
26.360	-0.000005
26.365	0.000009
26.370	-0.000011
26.375	-0.000004
26.380	0.000022
26.385	-0.000005
26.390	0.000029
26.395	0.000002
26.400	0.000022
26.405	0.000008
26.410	0.000008
26.415	-0.000025
26.420	0.000022
26.425	-0.000019
26.430	-0.000012
26.435	-0.000005
26.440	-0.000018
26.445	0.000022
26.450	0.000001
26.455	0.000002
26.460	0.000015
26.465	0.000029
26.470	0.000015
26.475	-0.000012
26.480	0.000008
