PK2650 Deflection Data
Z Position (mm)	100.000	W Position (deg)	144.00
Preform ID	Diameter (mm)	Time Stamp	Start Time	Operator	Serial Number
Test 1	25	03-Nov-22 18:05:01	03-Nov-22 18:06:03	[no user]	266007708
Radius (mm)	Deflection
-26.275	0.000002
-26.270	-0.000005
-26.265	-0.000005
-26.260	0.000009
-26.255	-0.000012
-26.250	0.000001
-26.245	-0.000012
-26.240	-0.000033
-26.235	-0.000026
-26.230	0.000008
-26.225	-0.000012
-26.220	-0.000012
-26.215	0.000015
-26.210	0.000028
-26.205	0.000008
-26.200	-0.000005
-26.195	0.000002
-26.190	0.000008
-26.185	-0.000013
-26.180	0.000014
-26.175	-0.000006
-26.170	-0.000013
-26.165	-0.000040
-26.160	0.000028
-26.155	0.000008
-26.150	-0.000013
-26.145	0.000014
-26.140	-0.000006
-26.135	0.000001
-26.130	0.000014
-26.125	0.000008
-26.120	-0.000006
-26.115	-0.000034
-26.110	0.000014
-26.105	-0.000020
-26.100	-0.000007
-26.095	0.000000
-26.090	-0.000020
-26.085	0.000027
-26.080	0.000061
-26.075	0.000014
-26.070	0.000014
-26.065	0.000007
-26.060	0.000021
-26.055	-0.000020
-26.050	-0.000021
-26.045	0.000007
-26.040	0.000007
-26.035	-0.000007
-26.030	0.000007
-26.025	-0.000007
-26.020	0.000006
-26.015	0.000027
-26.010	-0.000014
-26.005	0.000040
-26.000	0.000013
-25.995	-0.000007
-25.990	0.000000
-25.985	0.000013
-25.980	-0.000041
-25.975	0.000013
-25.970	-0.000008
-25.965	-0.000001
-25.960	0.000013
-25.955	0.000020
-25.950	0.000006
-25.945	-0.000001
-25.940	0.000006
-25.935	-0.000014
-25.930	0.000020
-25.925	0.000027
-25.920	-0.000035
-25.915	0.000006
-25.910	-0.000008
-25.905	-0.000015
-25.900	-0.000001
-25.895	0.000020
-25.890	0.000013
-25.885	0.000019
-25.880	-0.000001
-25.875	0.000006
-25.870	-0.000001
-25.865	0.000026
-25.860	0.000020
-25.855	0.000006
-25.850	-0.000008
-25.845	-0.000015
-25.840	0.000019
-25.835	0.000033
-25.830	0.000026
-25.825	-0.000008
-25.820	0.000005
-25.815	0.000012
-25.810	0.000026
-25.805	0.000005
-25.800	0.000012
-25.795	-0.000001
-25.790	0.000012
-25.785	-0.000029
-25.780	-0.000008
-25.775	0.000012
-25.770	-0.000002
-25.765	0.000019
-25.760	0.000005
-25.755	0.000026
-25.750	0.000032
-25.745	0.000012
-25.740	-0.000002
-25.735	-0.000009
-25.730	-0.000002
-25.725	-0.000035
-25.720	-0.000015
-25.715	0.000018
-25.710	0.000011
-25.705	0.000018
-25.700	0.000005
-25.695	0.000032
-25.690	0.000025
-25.685	0.000025
-25.680	0.000052
-25.675	0.000025
-25.670	0.000018
-25.665	0.000012
-25.660	0.000019
-25.655	-0.000036
-25.650	-0.000029
-25.645	-0.000016
-25.640	0.000011
-25.635	0.000005
-25.630	-0.000002
-25.625	0.000038
-25.620	0.000018
-25.615	0.000018
-25.610	0.000004
-25.605	0.000052
-25.600	-0.000002
-25.595	-0.000009
-25.590	0.000012
-25.585	-0.000023
-25.580	0.000011
-25.575	-0.000009
-25.570	0.000004
-25.565	0.000018
-25.560	0.000011
-25.555	0.000004
-25.550	0.000045
-25.545	0.000018
-25.540	-0.000010
-25.535	0.000024
-25.530	0.000011
-25.525	-0.000002
-25.520	-0.000023
-25.515	0.000011
-25.510	-0.000017
-25.505	0.000011
-25.500	-0.000003
-25.495	-0.000003
-25.490	0.000045
-25.485	0.000031
-25.480	0.000018
-25.475	0.000004
-25.470	0.000010
-25.465	0.000038
-25.460	-0.000003
-25.455	-0.000003
-25.450	-0.000003
-25.445	0.000010
-25.440	-0.000017
-25.435	0.000017
-25.430	0.000003
-25.425	0.000024
-25.420	0.000017
-25.415	0.000010
-25.410	0.000017
-25.405	0.000003
-25.400	0.000031
-25.395	0.000031
-25.390	-0.000016
-25.385	-0.000003
-25.380	0.000051
-25.375	0.000017
-25.370	0.000017
-25.365	0.000010
-25.360	0.000024
-25.355	0.000017
-25.350	0.000010
-25.345	0.000030
-25.340	-0.000004
-25.335	-0.000004
-25.330	-0.000003
-25.325	-0.000003
-25.320	-0.000017
-25.315	0.000003
-25.310	-0.000011
-25.305	0.000016
-25.300	0.000003
-25.295	0.000010
-25.290	0.000023
-25.285	0.000023
-25.280	-0.000011
-25.275	0.000010
-25.270	0.000010
-25.265	0.000031
-25.260	0.000003
-25.255	-0.000004
-25.250	0.000003
-25.245	0.000003
-25.240	0.000016
-25.235	0.000003
-25.230	0.000023
-25.225	0.000023
-25.220	0.000016
-25.215	0.000003
-25.210	0.000037
-25.205	0.000036
-25.200	0.000023
-25.195	-0.000004
-25.190	-0.000010
-25.185	0.000009
-25.180	0.000009
-25.175	0.000002
-25.170	-0.000011
-25.165	-0.000018
-25.160	-0.000025
-25.155	0.000009
-25.150	0.000016
-25.145	0.000016
-25.140	0.000043
-25.135	0.000003
-25.130	-0.000004
-25.125	-0.000004
-25.120	0.000023
-25.115	0.000009
-25.110	-0.000005
-25.105	0.000002
-25.100	-0.000004
-25.095	0.000023
-25.090	-0.000004
-25.085	0.000009
-25.080	0.000029
-25.075	0.000016
-25.070	-0.000005
-25.065	-0.000004
-25.060	0.000009
-25.055	0.000016
-25.050	-0.000005
-25.045	0.000002
-25.040	0.000009
-25.035	0.000036
-25.030	0.000002
-25.025	0.000009
-25.020	0.000016
-25.015	0.000029
-25.010	0.000002
-25.005	0.000009
-25.000	0.000009
-24.995	0.000043
-24.990	0.000016
-24.985	-0.000018
-24.980	-0.000005
-24.975	-0.000032
-24.970	-0.000005
-24.965	0.000036
-24.960	0.000022
-24.955	0.000016
-24.950	0.000049
-24.945	0.000009
-24.940	0.000002
-24.935	0.000015
-24.930	0.000016
-24.925	0.000009
-24.920	0.000002
-24.915	-0.000005
-24.910	0.000022
-24.905	-0.000019
-24.900	-0.000019
-24.895	0.000042
-24.890	0.000022
-24.885	0.000015
-24.880	-0.000012
-24.875	0.000022
-24.870	0.000022
-24.865	0.000036
-24.860	0.000036
-24.855	0.000009
-24.850	-0.000005
-24.845	-0.000005
-24.840	0.000002
-24.835	0.000002
-24.830	0.000009
-24.825	0.000029
-24.820	0.000036
-24.815	0.000022
-24.810	0.000035
-24.805	0.000022
-24.800	0.000042
-24.795	0.000022
-24.790	0.000009
-24.785	0.000022
-24.780	0.000008
-24.775	-0.000005
-24.770	0.000001
-24.765	0.000001
-24.760	0.000015
-24.755	0.000042
-24.750	0.000001
-24.745	0.000008
-24.740	0.000015
-24.735	0.000002
-24.730	0.000029
-24.725	0.000002
-24.720	0.000001
-24.715	-0.000012
-24.710	0.000001
-24.705	0.000035
-24.700	0.000035
-24.695	-0.000019
-24.690	0.000049
-24.685	-0.000012
-24.680	0.000062
-24.675	0.000015
-24.670	-0.000012
-24.665	0.000008
-24.660	-0.000005
-24.655	0.000015
-24.650	0.000008
-24.645	0.000001
-24.640	-0.000006
-24.635	0.000021
-24.630	0.000021
-24.625	-0.000006
-24.620	-0.000006
-24.615	0.000049
-24.610	0.000021
-24.605	0.000021
-24.600	0.000022
-24.595	0.000022
-24.590	0.000001
-24.585	-0.000019
-24.580	0.000008
-24.575	0.000028
-24.570	0.000001
-24.565	0.000021
-24.560	-0.000013
-24.555	0.000021
-24.550	0.000028
-24.545	0.000035
-24.540	-0.000006
-24.535	0.000008
-24.530	0.000015
-24.525	0.000008
-24.520	0.000014
-24.515	0.000028
-24.510	-0.000006
-24.505	0.000014
-24.500	0.000007
-24.495	0.000007
-24.490	0.000021
-24.485	0.000028
-24.480	0.000028
-24.475	0.000041
-24.470	0.000014
-24.465	0.000028
-24.460	-0.000012
-24.455	-0.000006
-24.450	-0.000013
-24.445	0.000034
-24.440	0.000014
-24.435	0.000021
-24.430	0.000035
-24.425	0.000062
-24.420	0.000014
-24.415	0.000035
-24.410	0.000007
-24.405	0.000007
-24.400	0.000007
-24.395	0.000028
-24.390	-0.000006
-24.385	0.000007
-24.380	0.000007
-24.375	0.000027
-24.370	0.000014
-24.365	0.000000
-24.360	0.000020
-24.355	0.000054
-24.350	0.000054
-24.345	0.000007
-24.340	0.000034
-24.335	0.000028
-24.330	0.000035
-24.325	0.000014
-24.320	-0.000000
-24.315	0.000047
-24.310	-0.000007
-24.305	0.000020
-24.300	0.000007
-24.295	0.000020
-24.290	0.000027
-24.285	0.000034
-24.280	0.000020
-24.275	0.000020
-24.270	0.000020
-24.265	0.000034
-24.260	0.000014
-24.255	0.000027
-24.250	0.000006
-24.245	0.000006
-24.240	0.000013
-24.235	0.000040
-24.230	0.000020
-24.225	0.000027
-24.220	0.000040
-24.215	0.000027
-24.210	0.000006
-24.205	0.000040
-24.200	0.000027
-24.195	0.000054
-24.190	0.000013
-24.185	0.000006
-24.180	0.000020
-24.175	0.000026
-24.170	0.000026
-24.165	0.000040
-24.160	0.000020
-24.155	0.000040
-24.150	0.000040
-24.145	0.000013
-24.140	0.000026
-24.135	0.000033
-24.130	0.000047
-24.125	0.000020
-24.120	0.000006
-24.115	0.000019
-24.110	0.000046
-24.105	0.000033
-24.100	0.000026
-24.095	0.000026
-24.090	0.000006
-24.085	0.000040
-24.080	0.000012
-24.075	0.000019
-24.070	0.000026
-24.065	-0.000001
-24.060	0.000027
-24.055	0.000046
-24.050	-0.000008
-24.045	0.000019
-24.040	0.000012
-24.035	0.000019
-24.030	0.000040
-24.025	0.000033
-24.020	0.000006
-24.015	0.000053
-24.010	0.000032
-24.005	0.000012
-24.000	0.000026
-23.995	0.000026
-23.990	0.000006
-23.985	0.000039
-23.980	-0.000015
-23.975	0.000018
-23.970	0.000005
-23.965	-0.000015
-23.960	0.000005
-23.955	0.000019
-23.950	0.000025
-23.945	0.000039
-23.940	0.000039
-23.935	0.000012
-23.930	0.000019
-23.925	0.000033
-23.920	0.000005
-23.915	0.000005
-23.910	-0.000009
-23.905	0.000005
-23.900	0.000011
-23.895	0.000018
-23.890	0.000025
-23.885	0.000025
-23.880	0.000032
-23.875	0.000011
-23.870	0.000011
-23.865	-0.000002
-23.860	0.000005
-23.855	-0.000002
-23.850	0.000004
-23.845	-0.000003
-23.840	0.000024
-23.835	0.000031
-23.830	-0.000010
-23.825	0.000031
-23.820	0.000018
-23.815	0.000031
-23.810	0.000031
-23.805	-0.000003
-23.800	0.000032
-23.795	0.000018
-23.790	-0.000003
-23.785	0.000024
-23.780	0.000011
-23.775	0.000011
-23.770	0.000024
-23.765	-0.000003
-23.760	0.000011
-23.755	0.000004
-23.750	-0.000003
-23.745	0.000024
-23.740	0.000037
-23.735	0.000024
-23.730	0.000004
-23.725	-0.000003
-23.720	-0.000024
-23.715	0.000010
-23.710	-0.000017
-23.705	-0.000010
-23.700	0.000037
-23.695	-0.000010
-23.690	0.000024
-23.685	0.000017
-23.680	-0.000004
-23.675	-0.000010
-23.670	0.000010
-23.665	0.000004
-23.660	0.000031
-23.655	-0.000010
-23.650	0.000037
-23.645	0.000003
-23.640	-0.000004
-23.635	0.000024
-23.630	0.000023
-23.625	0.000024
-23.620	0.000023
-23.615	0.000017
-23.610	0.000016
-23.605	0.000016
-23.600	0.000017
-23.595	0.000004
-23.590	0.000030
-23.585	0.000003
-23.580	0.000016
-23.575	-0.000018
-23.570	0.000009
-23.565	-0.000018
-23.560	-0.000011
-23.555	0.000016
-23.550	-0.000018
-23.545	0.000003
-23.540	-0.000011
-23.535	0.000010
-23.530	-0.000031
-23.525	-0.000038
-23.520	0.000002
-23.515	-0.000018
-23.510	-0.000045
-23.505	-0.000032
-23.500	-0.000018
-23.495	-0.000032
-23.490	-0.000018
-23.485	-0.000045
-23.480	-0.000045
-23.475	-0.000032
-23.470	-0.000045
-23.465	-0.000038
-23.460	-0.000011
-23.455	-0.000052
-23.450	-0.000066
-23.445	-0.000052
-23.440	-0.000012
-23.435	0.000002
-23.430	-0.000032
-23.425	-0.000005
-23.420	0.000002
-23.415	-0.000012
-23.410	0.000008
-23.405	0.000002
-23.400	-0.000045
-23.395	-0.000038
-23.390	-0.000012
-23.385	-0.000005
-23.380	-0.000012
-23.375	-0.000005
-23.370	-0.000012
-23.365	-0.000005
-23.360	0.000015
-23.355	0.000008
-23.350	-0.000033
-23.345	-0.000026
-23.340	-0.000026
-23.335	-0.000033
-23.330	-0.000012
-23.325	-0.000012
-23.320	-0.000033
-23.315	-0.000040
-23.310	-0.000013
-23.305	-0.000026
-23.300	-0.000026
-23.295	-0.000006
-23.290	-0.000006
-23.285	-0.000026
-23.280	-0.000026
-23.275	0.000014
-23.270	0.000001
-23.265	0.000008
-23.260	-0.000006
-23.255	0.000007
-23.250	-0.000027
-23.245	0.000007
-23.240	-0.000020
-23.235	0.000034
-23.230	-0.000006
-23.225	-0.000006
-23.220	-0.000027
-23.215	-0.000020
-23.210	-0.000027
-23.205	-0.000007
-23.200	-0.000013
-23.195	-0.000006
-23.190	-0.000027
-23.185	-0.000034
-23.180	-0.000007
-23.175	-0.000027
-23.170	-0.000034
-23.165	-0.000020
-23.160	-0.000020
-23.155	-0.000027
-23.150	0.000000
-23.145	0.000000
-23.140	-0.000000
-23.135	-0.000033
-23.130	-0.000020
-23.125	-0.000006
-23.120	-0.000028
-23.115	-0.000014
-23.110	-0.000027
-23.105	-0.000020
-23.100	-0.000034
-23.095	-0.000013
-23.090	0.000013
-23.085	-0.000034
-23.080	0.000007
-23.075	-0.000007
-23.070	-0.000014
-23.065	-0.000020
-23.060	-0.000027
-23.055	-0.000028
-23.050	0.000013
-23.045	-0.000041
-23.040	-0.000035
-23.035	-0.000028
-23.030	-0.000028
-23.025	-0.000007
-23.020	-0.000014
-23.015	-0.000007
-23.010	-0.000014
-23.005	-0.000028
-23.000	-0.000020
-22.995	-0.000027
-22.990	-0.000021
-22.985	-0.000042
-22.980	-0.000042
-22.975	-0.000014
-22.970	-0.000028
-22.965	-0.000021
-22.960	-0.000014
-22.955	-0.000021
-22.950	-0.000001
-22.945	-0.000015
-22.940	-0.000008
-22.935	0.000013
-22.930	-0.000007
-22.925	-0.000034
-22.920	-0.000028
-22.915	-0.000015
-22.910	-0.000022
-22.905	-0.000022
-22.900	-0.000015
-22.895	-0.000021
-22.890	-0.000021
-22.885	0.000006
-22.880	-0.000035
-22.875	0.000006
-22.870	-0.000015
-22.865	-0.000021
-22.860	-0.000007
-22.855	-0.000029
-22.850	-0.000029
-22.845	-0.000035
-22.840	-0.000028
-22.835	-0.000001
-22.830	-0.000015
-22.825	-0.000021
-22.820	-0.000022
-22.815	-0.000008
-22.810	-0.000008
-22.805	-0.000036
-22.800	-0.000001
-22.795	-0.000028
-22.790	-0.000035
-22.785	-0.000029
-22.780	-0.000022
-22.775	-0.000042
-22.770	-0.000016
-22.765	-0.000015
-22.760	-0.000002
-22.755	-0.000015
-22.750	-0.000009
-22.745	-0.000022
-22.740	-0.000029
-22.735	-0.000035
-22.730	-0.000028
-22.725	-0.000063
-22.720	-0.000009
-22.715	-0.000002
-22.710	-0.000043
-22.705	-0.000042
-22.700	-0.000002
-22.695	-0.000009
-22.690	-0.000009
-22.685	-0.000015
-22.680	-0.000016
-22.675	-0.000029
-22.670	-0.000022
-22.665	-0.000029
-22.660	-0.000036
-22.655	-0.000023
-22.650	-0.000009
-22.645	-0.000016
-22.640	-0.000030
-22.635	-0.000023
-22.630	0.000011
-22.625	-0.000009
-22.620	-0.000043
-22.615	-0.000029
-22.610	-0.000003
-22.605	-0.000029
-22.600	-0.000043
-22.595	-0.000022
-22.590	-0.000009
-22.585	-0.000023
-22.580	-0.000043
-22.575	-0.000016
-22.570	-0.000023
-22.565	-0.000009
-22.560	-0.000023
-22.555	-0.000030
-22.550	-0.000030
-22.545	-0.000037
-22.540	-0.000037
-22.535	-0.000016
-22.530	-0.000029
-22.525	-0.000016
-22.520	-0.000023
-22.515	-0.000071
-22.510	-0.000037
-22.505	-0.000017
-22.500	-0.000030
-22.495	-0.000010
-22.490	-0.000017
-22.485	-0.000017
-22.480	-0.000003
-22.475	-0.000037
-22.470	-0.000023
-22.465	-0.000064
-22.460	-0.000009
-22.455	-0.000044
-22.450	-0.000037
-22.445	-0.000017
-22.440	-0.000024
-22.435	-0.000037
-22.430	-0.000051
-22.425	-0.000003
-22.420	-0.000010
-22.415	-0.000030
-22.410	-0.000017
-22.405	-0.000031
-22.400	-0.000017
-22.395	-0.000043
-22.390	-0.000044
-22.385	-0.000044
-22.380	-0.000045
-22.375	-0.000044
-22.370	-0.000017
-22.365	-0.000024
-22.360	-0.000011
-22.355	-0.000017
-22.350	0.000017
-22.345	-0.000004
-22.340	-0.000038
-22.335	-0.000023
-22.330	-0.000044
-22.325	-0.000037
-22.320	-0.000045
-22.315	-0.000038
-22.310	-0.000031
-22.305	-0.000051
-22.300	-0.000051
-22.295	-0.000024
-22.290	0.000003
-22.285	-0.000004
-22.280	-0.000031
-22.275	-0.000018
-22.270	-0.000031
-22.265	-0.000051
-22.260	-0.000024
-22.255	-0.000011
-22.250	-0.000058
-22.245	-0.000025
-22.240	-0.000045
-22.235	-0.000017
-22.230	-0.000011
-22.225	0.000003
-22.220	-0.000018
-22.215	-0.000011
-22.210	-0.000018
-22.205	0.000009
-22.200	-0.000004
-22.195	-0.000058
-22.190	-0.000045
-22.185	-0.000025
-22.180	-0.000031
-22.175	-0.000052
-22.170	-0.000058
-22.165	0.000003
-22.160	-0.000045
-22.155	-0.000018
-22.150	-0.000052
-22.145	-0.000025
-22.140	-0.000052
-22.135	-0.000024
-22.130	-0.000038
-22.125	-0.000038
-22.120	-0.000032
-22.115	-0.000038
-22.110	-0.000011
-22.105	-0.000025
-22.100	-0.000025
-22.095	0.000002
-22.090	-0.000038
-22.085	-0.000045
-22.080	-0.000025
-22.075	-0.000025
-22.070	-0.000025
-22.065	-0.000045
-22.060	-0.000018
-22.055	-0.000005
-22.050	-0.000046
-22.045	-0.000018
-22.040	-0.000039
-22.035	-0.000025
-22.030	-0.000038
-22.025	-0.000018
-22.020	-0.000045
-22.015	-0.000038
-22.010	-0.000019
-22.005	-0.000018
-22.000	-0.000045
-21.995	-0.000025
-21.990	-0.000059
-21.985	-0.000039
-21.980	-0.000032
-21.975	-0.000039
-21.970	-0.000019
-21.965	0.000002
-21.960	-0.000032
-21.955	-0.000025
-21.950	0.000008
-21.945	-0.000032
-21.940	-0.000032
-21.935	-0.000018
-21.930	-0.000038
-21.925	-0.000025
-21.920	-0.000053
-21.915	-0.000032
-21.910	-0.000059
-21.905	-0.000032
-21.900	-0.000012
-21.895	-0.000046
-21.890	-0.000032
-21.885	-0.000012
-21.880	-0.000039
-21.875	-0.000039
-21.870	-0.000026
-21.865	-0.000012
-21.860	-0.000052
-21.855	-0.000039
-21.850	-0.000039
-21.845	-0.000026
-21.840	-0.000060
-21.835	-0.000026
-21.830	-0.000046
-21.825	-0.000026
-21.820	0.000001
-21.815	-0.000012
-21.810	-0.000012
-21.805	-0.000012
-21.800	-0.000032
-21.795	-0.000025
-21.790	-0.000067
-21.785	-0.000019
-21.780	-0.000039
-21.775	-0.000026
-21.770	-0.000033
-21.765	0.000008
-21.760	-0.000012
-21.755	0.000001
-21.750	0.000001
-21.745	-0.000033
-21.740	-0.000020
-21.735	-0.000032
-21.730	-0.000026
-21.725	-0.000019
-21.720	-0.000040
-21.715	-0.000006
-21.710	-0.000047
-21.705	-0.000026
-21.700	-0.000026
-21.695	-0.000006
-21.690	0.000007
-21.685	0.000001
-21.680	0.000008
-21.675	-0.000013
-21.670	-0.000026
-21.665	-0.000019
-21.660	-0.000053
-21.655	-0.000047
-21.650	-0.000006
-21.645	-0.000033
-21.640	-0.000047
-21.635	-0.000013
-21.630	-0.000026
-21.625	-0.000033
-21.620	-0.000033
-21.615	0.000021
-21.610	-0.000020
-21.605	-0.000013
-21.600	-0.000026
-21.595	-0.000006
-21.590	-0.000040
-21.585	-0.000027
-21.580	0.000000
-21.575	-0.000047
-21.570	-0.000013
-21.565	-0.000020
-21.560	-0.000007
-21.555	-0.000006
-21.550	0.000007
-21.545	-0.000013
-21.540	-0.000007
-21.535	-0.000013
-21.530	-0.000026
-21.525	-0.000006
-21.520	0.000014
-21.515	-0.000007
-21.510	-0.000020
-21.505	0.000000
-21.500	-0.000013
-21.495	0.000041
-21.490	-0.000020
-21.485	0.000028
-21.480	0.000054
-21.475	0.000021
-21.470	0.000034
-21.465	0.000042
-21.460	0.000021
-21.455	0.000068
-21.450	0.000095
-21.445	0.000143
-21.440	0.000205
-21.435	0.000403
-21.430	0.000636
-21.425	0.000964
-21.420	0.001445
-21.415	0.002039
-21.410	0.002884
-21.405	0.003940
-21.400	0.005236
-21.395	0.006821
-21.390	0.008607
-21.385	0.010666
-21.380	0.013122
-21.375	0.015965
-21.370	0.018966
-21.365	0.022240
-21.360	0.025749
-21.355	0.029343
-21.350	0.032926
-21.345	0.036478
-21.340	0.040174
-21.335	0.043828
-21.330	0.047323
-21.325	0.050084
-21.320	0.050237
-21.315	0.049339
-21.310	0.048639
-21.305	0.046748
-21.300	0.045103
-21.295	0.044238
-21.290	0.043371
-21.285	0.042382
-21.280	0.041684
-21.275	0.041041
-21.270	0.039822
-21.265	0.038770
-21.260	0.037785
-21.255	0.036692
-21.250	0.036041
-21.245	0.035613
-21.240	0.034721
-21.235	0.034182
-21.230	0.033899
-21.225	0.033185
-21.220	0.032652
-21.215	0.032169
-21.210	0.031725
-21.205	0.031309
-21.200	0.030956
-21.195	0.030655
-21.190	0.030369
-21.185	0.030459
-21.180	0.030005
-21.175	0.028992
-21.170	0.028369
-21.165	0.028145
-21.160	0.027843
-21.155	0.027381
-21.150	0.027117
-21.145	0.026953
-21.140	0.026914
-21.135	0.027102
-21.130	0.026994
-21.125	0.026147
-21.120	0.025637
-21.115	0.025466
-21.110	0.025262
-21.105	0.025051
-21.100	0.024865
-21.095	0.024762
-21.090	0.024463
-21.085	0.024143
-21.080	0.023923
-21.075	0.023763
-21.070	0.023541
-21.065	0.023299
-21.060	0.023039
-21.055	0.022815
-21.050	0.022651
-21.045	0.022571
-21.040	0.022464
-21.035	0.022336
-21.030	0.022173
-21.025	0.021981
-21.020	0.021858
-21.015	0.021720
-21.010	0.021655
-21.005	0.021566
-21.000	0.021510
-20.995	0.021378
-20.990	0.021194
-20.985	0.020954
-20.980	0.020770
-20.975	0.020677
-20.970	0.020573
-20.965	0.020435
-20.960	0.020285
-20.955	0.020177
-20.950	0.020063
-20.945	0.019940
-20.940	0.019852
-20.935	0.019716
-20.930	0.019569
-20.925	0.019498
-20.920	0.019369
-20.915	0.019251
-20.910	0.019145
-20.905	0.019064
-20.900	0.018945
-20.895	0.018846
-20.890	0.018751
-20.885	0.018640
-20.880	0.018599
-20.875	0.018504
-20.870	0.018424
-20.865	0.018348
-20.860	0.018261
-20.855	0.018153
-20.850	0.018069
-20.845	0.017909
-20.840	0.017818
-20.835	0.017687
-20.830	0.017633
-20.825	0.017534
-20.820	0.017444
-20.815	0.017380
-20.810	0.017262
-20.805	0.017218
-20.800	0.017149
-20.795	0.017050
-20.790	0.016982
-20.785	0.016938
-20.780	0.016864
-20.775	0.016837
-20.770	0.016726
-20.765	0.016707
-20.760	0.016617
-20.755	0.016532
-20.750	0.016406
-20.745	0.016310
-20.740	0.016280
-20.735	0.016211
-20.730	0.016108
-20.725	0.016056
-20.720	0.015996
-20.715	0.015912
-20.710	0.015868
-20.705	0.015779
-20.700	0.015727
-20.695	0.015651
-20.690	0.015629
-20.685	0.015575
-20.680	0.015524
-20.675	0.015466
-20.670	0.015413
-20.665	0.015358
-20.660	0.015307
-20.655	0.015277
-20.650	0.015150
-20.645	0.015123
-20.640	0.015090
-20.635	0.015051
-20.630	0.014979
-20.625	0.014958
-20.620	0.014915
-20.615	0.014848
-20.610	0.014789
-20.605	0.014747
-20.600	0.014705
-20.595	0.014669
-20.590	0.014633
-20.585	0.014529
-20.580	0.014512
-20.575	0.014429
-20.570	0.014429
-20.565	0.014336
-20.560	0.014294
-20.555	0.014235
-20.550	0.014200
-20.545	0.014128
-20.540	0.014109
-20.535	0.014064
-20.530	0.013979
-20.525	0.013961
-20.520	0.013935
-20.515	0.013898
-20.510	0.013834
-20.505	0.013818
-20.500	0.013788
-20.495	0.013745
-20.490	0.013716
-20.485	0.013688
-20.480	0.013655
-20.475	0.013604
-20.470	0.013563
-20.465	0.013538
-20.460	0.013510
-20.455	0.013444
-20.450	0.013408
-20.445	0.013334
-20.440	0.013304
-20.435	0.013277
-20.430	0.013238
-20.425	0.013229
-20.420	0.013143
-20.415	0.013147
-20.410	0.013044
-20.405	0.013033
-20.400	0.013033
-20.395	0.012980
-20.390	0.012929
-20.385	0.012902
-20.380	0.012895
-20.375	0.012812
-20.370	0.012809
-20.365	0.012800
-20.360	0.012762
-20.355	0.012699
-20.350	0.012693
-20.345	0.012689
-20.340	0.012598
-20.335	0.012596
-20.330	0.012541
-20.325	0.012468
-20.320	0.012448
-20.315	0.012436
-20.310	0.012382
-20.305	0.012360
-20.300	0.012320
-20.295	0.012269
-20.290	0.012273
-20.285	0.012243
-20.280	0.012218
-20.275	0.012166
-20.270	0.012137
-20.265	0.012099
-20.260	0.012064
-20.255	0.012010
-20.250	0.012015
-20.245	0.011967
-20.240	0.011988
-20.235	0.011965
-20.230	0.011928
-20.225	0.011908
-20.220	0.011876
-20.215	0.011833
-20.210	0.011839
-20.205	0.011808
-20.200	0.011783
-20.195	0.011715
-20.190	0.011701
-20.185	0.011686
-20.180	0.011671
-20.175	0.011633
-20.170	0.011634
-20.165	0.011612
-20.160	0.011586
-20.155	0.011557
-20.150	0.011505
-20.145	0.011489
-20.140	0.011468
-20.135	0.011429
-20.130	0.011393
-20.125	0.011363
-20.120	0.011322
-20.115	0.011326
-20.110	0.011324
-20.105	0.011292
-20.100	0.011240
-20.095	0.011246
-20.090	0.011201
-20.085	0.011165
-20.080	0.011187
-20.075	0.011118
-20.070	0.011074
-20.065	0.011047
-20.060	0.011038
-20.055	0.011001
-20.050	0.010959
-20.045	0.010958
-20.040	0.010937
-20.035	0.010923
-20.030	0.010909
-20.025	0.010938
-20.020	0.010868
-20.015	0.010868
-20.010	0.010811
-20.005	0.010800
-20.000	0.010787
-19.995	0.010717
-19.990	0.010706
-19.985	0.010697
-19.980	0.010682
-19.975	0.010693
-19.970	0.010644
-19.965	0.010667
-19.960	0.010620
-19.955	0.010587
-19.950	0.010569
-19.945	0.010540
-19.940	0.010507
-19.935	0.010477
-19.930	0.010492
-19.925	0.010481
-19.920	0.010460
-19.915	0.010428
-19.910	0.010432
-19.905	0.010415
-19.900	0.010383
-19.895	0.010358
-19.890	0.010365
-19.885	0.010333
-19.880	0.010317
-19.875	0.010291
-19.870	0.010275
-19.865	0.010231
-19.860	0.010208
-19.855	0.010215
-19.850	0.010210
-19.845	0.010150
-19.840	0.010147
-19.835	0.010148
-19.830	0.010141
-19.825	0.010091
-19.820	0.010082
-19.815	0.010057
-19.810	0.010037
-19.805	0.009991
-19.800	0.009990
-19.795	0.009989
-19.790	0.009949
-19.785	0.009913
-19.780	0.009871
-19.775	0.009892
-19.770	0.009857
-19.765	0.009843
-19.760	0.009844
-19.755	0.009797
-19.750	0.009774
-19.745	0.009775
-19.740	0.009755
-19.735	0.009714
-19.730	0.009665
-19.725	0.009669
-19.720	0.009641
-19.715	0.009627
-19.710	0.009619
-19.705	0.009605
-19.700	0.009600
-19.695	0.009538
-19.690	0.009533
-19.685	0.009533
-19.680	0.009520
-19.675	0.009464
-19.670	0.009459
-19.665	0.009445
-19.660	0.009440
-19.655	0.009398
-19.650	0.009380
-19.645	0.009395
-19.640	0.009347
-19.635	0.009360
-19.630	0.009332
-19.625	0.009327
-19.620	0.009300
-19.615	0.009272
-19.610	0.009275
-19.605	0.009277
-19.600	0.009235
-19.595	0.009238
-19.590	0.009232
-19.585	0.009182
-19.580	0.009227
-19.575	0.009189
-19.570	0.009199
-19.565	0.009159
-19.560	0.009187
-19.555	0.009174
-19.550	0.009140
-19.545	0.009132
-19.540	0.009115
-19.535	0.009109
-19.530	0.009052
-19.525	0.009040
-19.520	0.009039
-19.515	0.009059
-19.510	0.009041
-19.505	0.009011
-19.500	0.009009
-19.495	0.009007
-19.490	0.009020
-19.485	0.009025
-19.480	0.008975
-19.475	0.008968
-19.470	0.008972
-19.465	0.008926
-19.460	0.008917
-19.455	0.008882
-19.450	0.008888
-19.445	0.008897
-19.440	0.008835
-19.435	0.008866
-19.430	0.008846
-19.425	0.008840
-19.420	0.008787
-19.415	0.008789
-19.410	0.008753
-19.405	0.008739
-19.400	0.008760
-19.395	0.008738
-19.390	0.008749
-19.385	0.008716
-19.380	0.008736
-19.375	0.008677
-19.370	0.008650
-19.365	0.008661
-19.360	0.008681
-19.355	0.008646
-19.350	0.008678
-19.345	0.008668
-19.340	0.008598
-19.335	0.008632
-19.330	0.008570
-19.325	0.008570
-19.320	0.008559
-19.315	0.008570
-19.310	0.008548
-19.305	0.008547
-19.300	0.008567
-19.295	0.008532
-19.290	0.008529
-19.285	0.008488
-19.280	0.008531
-19.275	0.008468
-19.270	0.008466
-19.265	0.008458
-19.260	0.008446
-19.255	0.008389
-19.250	0.008422
-19.245	0.008420
-19.240	0.008398
-19.235	0.008375
-19.230	0.008359
-19.225	0.008338
-19.220	0.008378
-19.215	0.008342
-19.210	0.008333
-19.205	0.008309
-19.200	0.008304
-19.195	0.008291
-19.190	0.008268
-19.185	0.008262
-19.180	0.008226
-19.175	0.008256
-19.170	0.008228
-19.165	0.008250
-19.160	0.008266
-19.155	0.008253
-19.150	0.008213
-19.145	0.008216
-19.140	0.008191
-19.135	0.008187
-19.130	0.008179
-19.125	0.008150
-19.120	0.008165
-19.115	0.008139
-19.110	0.008139
-19.105	0.008150
-19.100	0.008124
-19.095	0.008135
-19.090	0.008113
-19.085	0.008125
-19.080	0.008088
-19.075	0.008102
-19.070	0.008069
-19.065	0.008072
-19.060	0.008043
-19.055	0.008055
-19.050	0.008033
-19.045	0.008025
-19.040	0.007998
-19.035	0.007991
-19.030	0.008019
-19.025	0.007984
-19.020	0.007984
-19.015	0.007942
-19.010	0.007954
-19.005	0.007923
-19.000	0.007912
-18.995	0.007891
-18.990	0.007889
-18.985	0.007876
-18.980	0.007883
-18.975	0.007856
-18.970	0.007836
-18.965	0.007843
-18.960	0.007828
-18.955	0.007815
-18.950	0.007807
-18.945	0.007777
-18.940	0.007763
-18.935	0.007753
-18.930	0.007733
-18.925	0.007737
-18.920	0.007702
-18.915	0.007712
-18.910	0.007697
-18.905	0.007683
-18.900	0.007662
-18.895	0.007670
-18.890	0.007676
-18.885	0.007630
-18.880	0.007611
-18.875	0.007585
-18.870	0.007606
-18.865	0.007587
-18.860	0.007541
-18.855	0.007574
-18.850	0.007565
-18.845	0.007579
-18.840	0.007573
-18.835	0.007553
-18.830	0.007553
-18.825	0.007511
-18.820	0.007531
-18.815	0.007489
-18.810	0.007502
-18.805	0.007482
-18.800	0.007419
-18.795	0.007417
-18.790	0.007432
-18.785	0.007452
-18.780	0.007436
-18.775	0.007447
-18.770	0.007443
-18.765	0.007428
-18.760	0.007441
-18.755	0.007420
-18.750	0.007378
-18.745	0.007382
-18.740	0.007375
-18.735	0.007371
-18.730	0.007369
-18.725	0.007352
-18.720	0.007345
-18.715	0.007304
-18.710	0.007309
-18.705	0.007322
-18.700	0.007341
-18.695	0.007308
-18.690	0.007313
-18.685	0.007265
-18.680	0.007284
-18.675	0.007248
-18.670	0.007265
-18.665	0.007245
-18.660	0.007254
-18.655	0.007218
-18.650	0.007203
-18.645	0.007209
-18.640	0.007202
-18.635	0.007188
-18.630	0.007174
-18.625	0.007194
-18.620	0.007193
-18.615	0.007193
-18.610	0.007199
-18.605	0.007146
-18.600	0.007133
-18.595	0.007117
-18.590	0.007142
-18.585	0.007094
-18.580	0.007115
-18.575	0.007102
-18.570	0.007103
-18.565	0.007089
-18.560	0.007094
-18.555	0.007087
-18.550	0.007093
-18.545	0.007085
-18.540	0.007053
-18.535	0.007033
-18.530	0.007054
-18.525	0.007039
-18.520	0.007030
-18.515	0.007023
-18.510	0.006996
-18.505	0.007017
-18.500	0.006996
-18.495	0.007025
-18.490	0.007018
-18.485	0.006977
-18.480	0.006956
-18.475	0.006984
-18.470	0.006972
-18.465	0.006967
-18.460	0.006881
-18.455	0.006929
-18.450	0.006927
-18.445	0.006928
-18.440	0.006927
-18.435	0.006920
-18.430	0.006899
-18.425	0.006934
-18.420	0.006905
-18.415	0.006870
-18.410	0.006863
-18.405	0.006879
-18.400	0.006860
-18.395	0.006845
-18.390	0.006835
-18.385	0.006822
-18.380	0.006849
-18.375	0.006829
-18.370	0.006788
-18.365	0.006809
-18.360	0.006836
-18.355	0.006794
-18.350	0.006808
-18.345	0.006794
-18.340	0.006775
-18.335	0.006777
-18.330	0.006777
-18.325	0.006739
-18.320	0.006738
-18.315	0.006723
-18.310	0.006729
-18.305	0.006763
-18.300	0.006724
-18.295	0.006697
-18.290	0.006695
-18.285	0.006668
-18.280	0.006661
-18.275	0.006709
-18.270	0.006676
-18.265	0.006664
-18.260	0.006639
-18.255	0.006660
-18.250	0.006672
-18.245	0.006653
-18.240	0.006632
-18.235	0.006613
-18.230	0.006594
-18.225	0.006595
-18.220	0.006637
-18.215	0.006603
-18.210	0.006624
-18.205	0.006566
-18.200	0.006603
-18.195	0.006546
-18.190	0.006578
-18.185	0.006553
-18.180	0.006532
-18.175	0.006528
-18.170	0.006563
-18.165	0.006537
-18.160	0.006571
-18.155	0.006537
-18.150	0.006523
-18.145	0.006529
-18.140	0.006524
-18.135	0.006472
-18.130	0.006513
-18.125	0.006497
-18.120	0.006519
-18.115	0.006485
-18.110	0.006494
-18.105	0.006489
-18.100	0.006489
-18.095	0.006485
-18.090	0.006485
-18.085	0.006483
-18.080	0.006463
-18.075	0.006492
-18.070	0.006460
-18.065	0.006481
-18.060	0.006470
-18.055	0.006456
-18.050	0.006456
-18.045	0.006420
-18.040	0.006419
-18.035	0.006425
-18.030	0.006451
-18.025	0.006417
-18.020	0.006410
-18.015	0.006443
-18.010	0.006365
-18.005	0.006381
-18.000	0.006367
-17.995	0.006365
-17.990	0.006354
-17.985	0.006333
-17.980	0.006339
-17.975	0.006318
-17.970	0.006318
-17.965	0.006352
-17.960	0.006338
-17.955	0.006317
-17.950	0.006309
-17.945	0.006295
-17.940	0.006283
-17.935	0.006291
-17.930	0.006240
-17.925	0.006279
-17.920	0.006259
-17.915	0.006259
-17.910	0.006238
-17.905	0.006259
-17.900	0.006251
-17.895	0.006224
-17.890	0.006286
-17.885	0.006251
-17.880	0.006222
-17.875	0.006202
-17.870	0.006211
-17.865	0.006218
-17.860	0.006215
-17.855	0.006187
-17.850	0.006207
-17.845	0.006207
-17.840	0.006159
-17.835	0.006208
-17.830	0.006193
-17.825	0.006179
-17.820	0.006200
-17.815	0.006180
-17.810	0.006159
-17.805	0.006162
-17.800	0.006134
-17.795	0.006139
-17.790	0.006150
-17.785	0.006121
-17.780	0.006121
-17.775	0.006135
-17.770	0.006121
-17.765	0.006135
-17.760	0.006154
-17.755	0.006107
-17.750	0.006084
-17.745	0.006083
-17.740	0.006070
-17.735	0.006065
-17.730	0.006057
-17.725	0.006061
-17.720	0.006034
-17.715	0.006027
-17.710	0.006040
-17.705	0.006054
-17.700	0.006019
-17.695	0.006027
-17.690	0.006018
-17.685	0.005991
-17.680	0.005991
-17.675	0.005978
-17.670	0.005965
-17.665	0.005952
-17.660	0.005949
-17.655	0.005923
-17.650	0.005930
-17.645	0.005943
-17.640	0.005924
-17.635	0.005932
-17.630	0.005945
-17.625	0.005932
-17.620	0.005953
-17.615	0.005939
-17.610	0.005931
-17.605	0.005899
-17.600	0.005887
-17.595	0.005900
-17.590	0.005878
-17.585	0.005878
-17.580	0.005857
-17.575	0.005870
-17.570	0.005877
-17.565	0.005878
-17.560	0.005892
-17.555	0.005891
-17.550	0.005856
-17.545	0.005843
-17.540	0.005858
-17.535	0.005838
-17.530	0.005857
-17.525	0.005814
-17.520	0.005827
-17.515	0.005820
-17.510	0.005815
-17.505	0.005808
-17.500	0.005793
-17.495	0.005793
-17.490	0.005813
-17.485	0.005765
-17.480	0.005797
-17.475	0.005763
-17.470	0.005770
-17.465	0.005791
-17.460	0.005717
-17.455	0.005732
-17.450	0.005725
-17.445	0.005711
-17.440	0.005732
-17.435	0.005753
-17.430	0.005738
-17.425	0.005725
-17.420	0.005719
-17.415	0.005746
-17.410	0.005718
-17.405	0.005707
-17.400	0.005700
-17.395	0.005698
-17.390	0.005683
-17.385	0.005690
-17.380	0.005669
-17.375	0.005676
-17.370	0.005668
-17.365	0.005689
-17.360	0.005634
-17.355	0.005687
-17.350	0.005673
-17.345	0.005631
-17.340	0.005667
-17.335	0.005647
-17.330	0.005639
-17.325	0.005622
-17.320	0.005629
-17.315	0.005609
-17.310	0.005642
-17.305	0.005608
-17.300	0.005629
-17.295	0.005622
-17.290	0.005614
-17.285	0.005579
-17.280	0.005578
-17.275	0.005608
-17.270	0.005554
-17.265	0.005582
-17.260	0.005578
-17.255	0.005572
-17.250	0.005558
-17.245	0.005524
-17.240	0.005579
-17.235	0.005579
-17.230	0.005572
-17.225	0.005523
-17.220	0.005544
-17.215	0.005543
-17.210	0.005516
-17.205	0.005511
-17.200	0.005492
-17.195	0.005512
-17.190	0.005483
-17.185	0.005484
-17.180	0.005504
-17.175	0.005485
-17.170	0.005541
-17.165	0.005472
-17.160	0.005526
-17.155	0.005492
-17.150	0.005471
-17.145	0.005476
-17.140	0.005465
-17.135	0.005480
-17.130	0.005432
-17.125	0.005456
-17.120	0.005464
-17.115	0.005436
-17.110	0.005442
-17.105	0.005428
-17.100	0.005448
-17.095	0.005448
-17.090	0.005420
-17.085	0.005420
-17.080	0.005398
-17.075	0.005414
-17.070	0.005470
-17.065	0.005395
-17.060	0.005399
-17.055	0.005391
-17.050	0.005412
-17.045	0.005391
-17.040	0.005390
-17.035	0.005356
-17.030	0.005398
-17.025	0.005384
-17.020	0.005390
-17.015	0.005377
-17.010	0.005371
-17.005	0.005387
-17.000	0.005366
-16.995	0.005350
-16.990	0.005321
-16.985	0.005315
-16.980	0.005349
-16.975	0.005350
-16.970	0.005316
-16.965	0.005330
-16.960	0.005337
-16.955	0.005331
-16.950	0.005336
-16.945	0.005336
-16.940	0.005290
-16.935	0.005345
-16.930	0.005289
-16.925	0.005301
-16.920	0.005274
-16.915	0.005267
-16.910	0.005281
-16.905	0.005309
-16.900	0.005288
-16.895	0.005296
-16.890	0.005275
-16.885	0.005220
-16.880	0.005274
-16.875	0.005277
-16.870	0.005244
-16.865	0.005279
-16.860	0.005263
-16.855	0.005229
-16.850	0.005237
-16.845	0.005231
-16.840	0.005245
-16.835	0.005226
-16.830	0.005212
-16.825	0.005240
-16.820	0.005233
-16.815	0.005214
-16.810	0.005213
-16.805	0.005200
-16.800	0.005235
-16.795	0.005199
-16.790	0.005184
-16.785	0.005198
-16.780	0.005191
-16.775	0.005192
-16.770	0.005172
-16.765	0.005213
-16.760	0.005172
-16.755	0.005159
-16.750	0.005164
-16.745	0.005192
-16.740	0.005138
-16.735	0.005154
-16.730	0.005187
-16.725	0.005117
-16.720	0.005137
-16.715	0.005138
-16.710	0.005118
-16.705	0.005138
-16.700	0.005124
-16.695	0.005090
-16.690	0.005075
-16.685	0.005109
-16.680	0.005108
-16.675	0.005102
-16.670	0.005096
-16.665	0.005063
-16.660	0.005041
-16.655	0.005055
-16.650	0.005069
-16.645	0.005055
-16.640	0.005042
-16.635	0.005055
-16.630	0.005055
-16.625	0.005043
-16.620	0.005042
-16.615	0.005063
-16.610	0.005016
-16.605	0.005018
-16.600	0.005032
-16.595	0.005003
-16.590	0.004975
-16.585	0.005010
-16.580	0.004982
-16.575	0.004975
-16.570	0.005009
-16.565	0.004975
-16.560	0.004968
-16.555	0.004982
-16.550	0.004988
-16.545	0.004967
-16.540	0.004949
-16.535	0.004944
-16.530	0.004963
-16.525	0.004940
-16.520	0.004961
-16.515	0.004920
-16.510	0.004948
-16.505	0.004928
-16.500	0.004942
-16.495	0.004950
-16.490	0.004921
-16.485	0.004934
-16.480	0.004946
-16.475	0.004914
-16.470	0.004894
-16.465	0.004907
-16.460	0.004911
-16.455	0.004869
-16.450	0.004905
-16.445	0.004898
-16.440	0.004877
-16.435	0.004871
-16.430	0.004932
-16.425	0.004883
-16.420	0.004889
-16.415	0.004882
-16.410	0.004860
-16.405	0.004855
-16.400	0.004876
-16.395	0.004874
-16.390	0.004880
-16.385	0.004866
-16.380	0.004859
-16.375	0.004846
-16.370	0.004859
-16.365	0.004838
-16.360	0.004858
-16.355	0.004811
-16.350	0.004830
-16.345	0.004823
-16.340	0.004838
-16.335	0.004798
-16.330	0.004864
-16.325	0.004808
-16.320	0.004808
-16.315	0.004835
-16.310	0.004814
-16.305	0.004802
-16.300	0.004823
-16.295	0.004802
-16.290	0.004809
-16.285	0.004808
-16.280	0.004766
-16.275	0.004774
-16.270	0.004768
-16.265	0.004788
-16.260	0.004745
-16.255	0.004745
-16.250	0.004752
-16.245	0.004780
-16.240	0.004732
-16.235	0.004788
-16.230	0.004775
-16.225	0.004741
-16.220	0.004749
-16.215	0.004742
-16.210	0.004728
-16.205	0.004723
-16.200	0.004730
-16.195	0.004708
-16.190	0.004728
-16.185	0.004701
-16.180	0.004687
-16.175	0.004723
-16.170	0.004716
-16.165	0.004745
-16.160	0.004711
-16.155	0.004705
-16.150	0.004725
-16.145	0.004703
-16.140	0.004685
-16.135	0.004681
-16.130	0.004694
-16.125	0.004659
-16.120	0.004693
-16.115	0.004707
-16.110	0.004687
-16.105	0.004674
-16.100	0.004675
-16.095	0.004663
-16.090	0.004677
-16.085	0.004662
-16.080	0.004668
-16.075	0.004657
-16.070	0.004650
-16.065	0.004623
-16.060	0.004607
-16.055	0.004648
-16.050	0.004641
-16.045	0.004627
-16.040	0.004641
-16.035	0.004633
-16.030	0.004640
-16.025	0.004661
-16.020	0.004647
-16.015	0.004646
-16.010	0.004633
-16.005	0.004635
-16.000	0.004614
-15.995	0.004618
-15.990	0.004590
-15.985	0.004589
-15.980	0.004609
-15.975	0.004588
-15.970	0.004602
-15.965	0.004589
-15.960	0.004595
-15.955	0.004595
-15.950	0.004594
-15.945	0.004545
-15.940	0.004554
-15.935	0.004555
-15.930	0.004553
-15.925	0.004558
-15.920	0.004556
-15.915	0.004542
-15.910	0.004569
-15.905	0.004557
-15.900	0.004542
-15.895	0.004556
-15.890	0.004548
-15.885	0.004527
-15.880	0.004533
-15.875	0.004513
-15.870	0.004514
-15.865	0.004505
-15.860	0.004510
-15.855	0.004523
-15.850	0.004522
-15.845	0.004509
-15.840	0.004494
-15.835	0.004508
-15.830	0.004480
-15.825	0.004500
-15.820	0.004500
-15.815	0.004486
-15.810	0.004480
-15.805	0.004516
-15.800	0.004467
-15.795	0.004444
-15.790	0.004471
-15.785	0.004478
-15.780	0.004437
-15.775	0.004444
-15.770	0.004465
-15.765	0.004458
-15.760	0.004430
-15.755	0.004471
-15.750	0.004457
-15.745	0.004463
-15.740	0.004437
-15.735	0.004411
-15.730	0.004457
-15.725	0.004415
-15.720	0.004421
-15.715	0.004449
-15.710	0.004396
-15.705	0.004417
-15.700	0.004423
-15.695	0.004403
-15.690	0.004396
-15.685	0.004417
-15.680	0.004403
-15.675	0.004377
-15.670	0.004392
-15.665	0.004384
-15.660	0.004362
-15.655	0.004397
-15.650	0.004390
-15.645	0.004363
-15.640	0.004356
-15.635	0.004405
-15.630	0.004377
-15.625	0.004371
-15.620	0.004392
-15.615	0.004363
-15.610	0.004351
-15.605	0.004346
-15.600	0.004325
-15.595	0.004344
-15.590	0.004302
-15.585	0.004364
-15.580	0.004323
-15.575	0.004330
-15.570	0.004316
-15.565	0.004337
-15.560	0.004336
-15.555	0.004344
-15.550	0.004323
-15.545	0.004309
-15.540	0.004305
-15.535	0.004291
-15.530	0.004269
-15.525	0.004336
-15.520	0.004309
-15.515	0.004316
-15.510	0.004309
-15.505	0.004296
-15.500	0.004323
-15.495	0.004296
-15.490	0.004296
-15.485	0.004262
-15.480	0.004296
-15.475	0.004256
-15.470	0.004298
-15.465	0.004250
-15.460	0.004268
-15.455	0.004261
-15.450	0.004240
-15.445	0.004253
-15.440	0.004275
-15.435	0.004275
-15.430	0.004281
-15.425	0.004253
-15.420	0.004246
-15.415	0.004254
-15.410	0.004240
-15.405	0.004228
-15.400	0.004234
-15.395	0.004218
-15.390	0.004184
-15.385	0.004205
-15.380	0.004212
-15.375	0.004232
-15.370	0.004219
-15.365	0.004218
-15.360	0.004203
-15.355	0.004203
-15.350	0.004237
-15.345	0.004223
-15.340	0.004192
-15.335	0.004220
-15.330	0.004183
-15.325	0.004162
-15.320	0.004175
-15.315	0.004211
-15.310	0.004162
-15.305	0.004190
-15.300	0.004191
-15.295	0.004176
-15.290	0.004204
-15.285	0.004163
-15.280	0.004164
-15.275	0.004158
-15.270	0.004173
-15.265	0.004118
-15.260	0.004144
-15.255	0.004131
-15.250	0.004132
-15.245	0.004146
-15.240	0.004140
-15.235	0.004119
-15.230	0.004118
-15.225	0.004133
-15.220	0.004132
-15.215	0.004133
-15.210	0.004106
-15.205	0.004110
-15.200	0.004076
-15.195	0.004068
-15.190	0.004095
-15.185	0.004090
-15.180	0.004084
-15.175	0.004120
-15.170	0.004079
-15.165	0.004101
-15.160	0.004102
-15.155	0.004103
-15.150	0.004091
-15.145	0.004066
-15.140	0.004102
-15.135	0.004042
-15.130	0.004054
-15.125	0.004060
-15.120	0.004053
-15.115	0.004075
-15.110	0.004034
-15.105	0.004055
-15.100	0.004062
-15.095	0.004110
-15.090	0.004082
-15.085	0.004089
-15.080	0.004060
-15.075	0.004034
-15.070	0.004043
-15.065	0.004055
-15.060	0.004088
-15.055	0.004068
-15.050	0.004082
-15.045	0.004090
-15.040	0.004068
-15.035	0.004083
-15.030	0.004083
-15.025	0.004076
-15.020	0.004075
-15.015	0.004054
-15.010	0.004014
-15.005	0.004042
-15.000	0.004054
-14.995	0.004025
-14.990	0.004030
-14.985	0.004030
-14.980	0.004015
-14.975	0.004008
-14.970	0.004069
-14.965	0.004034
-14.960	0.004019
-14.955	0.004052
-14.950	0.004030
-14.945	0.004023
-14.940	0.004023
-14.935	0.004003
-14.930	0.003994
-14.925	0.004007
-14.920	0.004013
-14.915	0.004027
-14.910	0.004011
-14.905	0.003997
-14.900	0.003976
-14.895	0.003997
-14.890	0.004009
-14.885	0.003975
-14.880	0.003995
-14.875	0.003975
-14.870	0.003948
-14.865	0.003967
-14.860	0.003965
-14.855	0.003958
-14.850	0.003944
-14.845	0.003985
-14.840	0.003957
-14.835	0.003943
-14.830	0.003949
-14.825	0.003963
-14.820	0.003948
-14.815	0.003962
-14.810	0.003921
-14.805	0.003923
-14.800	0.003922
-14.795	0.003920
-14.790	0.003920
-14.785	0.003907
-14.780	0.003900
-14.775	0.003927
-14.770	0.003899
-14.765	0.003927
-14.760	0.003920
-14.755	0.003914
-14.750	0.003914
-14.745	0.003901
-14.740	0.003888
-14.735	0.003889
-14.730	0.003867
-14.725	0.003894
-14.720	0.003873
-14.715	0.003854
-14.710	0.003860
-14.705	0.003888
-14.700	0.003860
-14.695	0.003894
-14.690	0.003852
-14.685	0.003866
-14.680	0.003873
-14.675	0.003862
-14.670	0.003856
-14.665	0.003868
-14.660	0.003853
-14.655	0.003818
-14.650	0.003832
-14.645	0.003881
-14.640	0.003854
-14.635	0.003847
-14.630	0.003854
-14.625	0.003833
-14.620	0.003860
-14.615	0.003853
-14.610	0.003826
-14.605	0.003841
-14.600	0.003812
-14.595	0.003818
-14.590	0.003818
-14.585	0.003838
-14.580	0.003824
-14.575	0.003783
-14.570	0.003824
-14.565	0.003839
-14.560	0.003817
-14.555	0.003824
-14.550	0.003802
-14.545	0.003768
-14.540	0.003802
-14.535	0.003810
-14.530	0.003780
-14.525	0.003794
-14.520	0.003786
-14.515	0.003780
-14.510	0.003787
-14.505	0.003787
-14.500	0.003759
-14.495	0.003787
-14.490	0.003779
-14.485	0.003772
-14.480	0.003771
-14.475	0.003773
-14.470	0.003794
-14.465	0.003745
-14.460	0.003757
-14.455	0.003764
-14.450	0.003764
-14.445	0.003758
-14.440	0.003730
-14.435	0.003743
-14.430	0.003750
-14.425	0.003735
-14.420	0.003748
-14.415	0.003734
-14.410	0.003768
-14.405	0.003701
-14.400	0.003729
-14.395	0.003726
-14.390	0.003713
-14.385	0.003726
-14.380	0.003725
-14.375	0.003678
-14.370	0.003719
-14.365	0.003747
-14.360	0.003713
-14.355	0.003733
-14.350	0.003705
-14.345	0.003713
-14.340	0.003714
-14.335	0.003693
-14.330	0.003691
-14.325	0.003691
-14.320	0.003684
-14.315	0.003698
-14.310	0.003698
-14.305	0.003705
-14.300	0.003677
-14.295	0.003671
-14.290	0.003711
-14.285	0.003691
-14.280	0.003683
-14.275	0.003692
-14.270	0.003686
-14.265	0.003650
-14.260	0.003629
-14.255	0.003656
-14.250	0.003656
-14.245	0.003656
-14.240	0.003669
-14.235	0.003642
-14.230	0.003684
-14.225	0.003656
-14.220	0.003663
-14.215	0.003649
-14.210	0.003657
-14.205	0.003639
-14.200	0.003624
-14.195	0.003636
-14.190	0.003621
-14.185	0.003622
-14.180	0.003629
-14.175	0.003615
-14.170	0.003648
-14.165	0.003608
-14.160	0.003635
-14.155	0.003641
-14.150	0.003641
-14.145	0.003635
-14.140	0.003615
-14.135	0.003609
-14.130	0.003560
-14.125	0.003573
-14.120	0.003593
-14.115	0.003620
-14.110	0.003552
-14.105	0.003600
-14.100	0.003599
-14.095	0.003600
-14.090	0.003586
-14.085	0.003592
-14.080	0.003565
-14.075	0.003594
-14.070	0.003561
-14.065	0.003560
-14.060	0.003565
-14.055	0.003565
-14.050	0.003552
-14.045	0.003572
-14.040	0.003572
-14.035	0.003552
-14.030	0.003579
-14.025	0.003558
-14.020	0.003550
-14.015	0.003543
-14.010	0.003544
-14.005	0.003531
-14.000	0.003531
-13.995	0.003537
-13.990	0.003516
-13.985	0.003537
-13.980	0.003536
-13.975	0.003523
-13.970	0.003530
-13.965	0.003557
-13.960	0.003502
-13.955	0.003516
-13.950	0.003515
-13.945	0.003476
-13.940	0.003497
-13.935	0.003518
-13.930	0.003515
-13.925	0.003496
-13.920	0.003502
-13.915	0.003510
-13.910	0.003530
-13.905	0.003503
-13.900	0.003503
-13.895	0.003495
-13.890	0.003523
-13.885	0.003503
-13.880	0.003468
-13.875	0.003462
-13.870	0.003477
-13.865	0.003497
-13.860	0.003474
-13.855	0.003447
-13.850	0.003453
-13.845	0.003487
-13.840	0.003480
-13.835	0.003481
-13.830	0.003502
-13.825	0.003501
-13.820	0.003481
-13.815	0.003453
-13.810	0.003467
-13.805	0.003469
-13.800	0.003447
-13.795	0.003459
-13.790	0.003439
-13.785	0.003446
-13.780	0.003445
-13.775	0.003445
-13.770	0.003486
-13.765	0.003472
-13.760	0.003424
-13.755	0.003451
-13.750	0.003444
-13.745	0.003445
-13.740	0.003431
-13.735	0.003446
-13.730	0.003444
-13.725	0.003423
-13.720	0.003436
-13.715	0.003457
-13.710	0.003415
-13.705	0.003429
-13.700	0.003430
-13.695	0.003450
-13.690	0.003457
-13.685	0.003415
-13.680	0.003429
-13.675	0.003396
-13.670	0.003403
-13.665	0.003436
-13.660	0.003394
-13.655	0.003381
-13.650	0.003422
-13.645	0.003408
-13.640	0.003401
-13.635	0.003402
-13.630	0.003395
-13.625	0.003416
-13.620	0.003401
-13.615	0.003409
-13.610	0.003402
-13.605	0.003362
-13.600	0.003356
-13.595	0.003319
-13.590	0.003388
-13.585	0.003347
-13.580	0.003368
-13.575	0.003348
-13.570	0.003354
-13.565	0.003382
-13.560	0.003369
-13.555	0.003342
-13.550	0.003369
-13.545	0.003377
-13.540	0.003357
-13.535	0.003330
-13.530	0.003342
-13.525	0.003343
-13.520	0.003316
-13.515	0.003344
-13.510	0.003351
-13.505	0.003344
-13.500	0.003310
-13.495	0.003372
-13.490	0.003351
-13.485	0.003331
-13.480	0.003304
-13.475	0.003306
-13.470	0.003334
-13.465	0.003306
-13.460	0.003326
-13.455	0.003319
-13.450	0.003292
-13.445	0.003300
-13.440	0.003321
-13.435	0.003322
-13.430	0.003294
-13.425	0.003309
-13.420	0.003315
-13.415	0.003316
-13.410	0.003290
-13.405	0.003318
-13.400	0.003297
-13.395	0.003289
-13.390	0.003268
-13.385	0.003309
-13.380	0.003303
-13.375	0.003288
-13.370	0.003275
-13.365	0.003295
-13.360	0.003295
-13.355	0.003282
-13.350	0.003288
-13.345	0.003281
-13.340	0.003276
-13.335	0.003276
-13.330	0.003274
-13.325	0.003274
-13.320	0.003253
-13.315	0.003274
-13.310	0.003260
-13.305	0.003267
-13.300	0.003301
-13.295	0.003259
-13.290	0.003273
-13.285	0.003259
-13.280	0.003267
-13.275	0.003289
-13.270	0.003274
-13.265	0.003259
-13.260	0.003251
-13.255	0.003258
-13.250	0.003230
-13.245	0.003224
-13.240	0.003293
-13.235	0.003279
-13.230	0.003251
-13.225	0.003243
-13.220	0.003270
-13.215	0.003223
-13.210	0.003243
-13.205	0.003217
-13.200	0.003223
-13.195	0.003200
-13.190	0.003228
-13.185	0.003200
-13.180	0.003206
-13.175	0.003214
-13.170	0.003207
-13.165	0.003234
-13.160	0.003228
-13.155	0.003214
-13.150	0.003227
-13.145	0.003221
-13.140	0.003187
-13.135	0.003153
-13.130	0.003192
-13.125	0.003192
-13.120	0.003213
-13.115	0.003186
-13.110	0.003185
-13.105	0.003193
-13.100	0.003186
-13.095	0.003206
-13.090	0.003185
-13.085	0.003171
-13.080	0.003151
-13.075	0.003180
-13.070	0.003180
-13.065	0.003131
-13.060	0.003151
-13.055	0.003150
-13.050	0.003123
-13.045	0.003144
-13.040	0.003165
-13.035	0.003172
-13.030	0.003179
-13.025	0.003124
-13.020	0.003137
-13.015	0.003138
-13.010	0.003153
-13.005	0.003134
-13.000	0.003111
-12.995	0.003131
-12.990	0.003118
-12.985	0.003132
-12.980	0.003125
-12.975	0.003084
-12.970	0.003139
-12.965	0.003125
-12.960	0.003118
-12.955	0.003111
-12.950	0.003110
-12.945	0.003118
-12.940	0.003105
-12.935	0.003078
-12.930	0.003104
-12.925	0.003090
-12.920	0.003090
-12.915	0.003138
-12.910	0.003104
-12.905	0.003111
-12.900	0.003090
-12.895	0.003118
-12.890	0.003083
-12.885	0.003097
-12.880	0.003077
-12.875	0.003078
-12.870	0.003085
-12.865	0.003056
-12.860	0.003042
-12.855	0.003076
-12.850	0.003083
-12.845	0.003069
-12.840	0.003082
-12.835	0.003048
-12.830	0.003096
-12.825	0.003075
-12.820	0.003088
-12.815	0.003095
-12.810	0.003075
-12.805	0.003042
-12.800	0.003068
-12.795	0.003046
-12.790	0.003066
-12.785	0.003046
-12.780	0.003053
-12.775	0.003053
-12.770	0.003046
-12.765	0.003067
-12.760	0.003032
-12.755	0.003039
-12.750	0.003052
-12.745	0.003054
-12.740	0.003039
-12.735	0.003013
-12.730	0.003004
-12.725	0.003004
-12.720	0.003025
-12.715	0.003039
-12.710	0.003012
-12.705	0.003026
-12.700	0.003040
-12.695	0.003031
-12.690	0.003024
-12.685	0.003004
-12.680	0.003017
-12.675	0.003019
-12.670	0.003026
-12.665	0.003004
-12.660	0.003023
-12.655	0.003002
-12.650	0.003002
-12.645	0.003016
-12.640	0.003009
-12.635	0.002981
-12.630	0.002996
-12.625	0.003010
-12.620	0.002995
-12.615	0.003030
-12.610	0.002990
-12.605	0.003004
-12.600	0.002989
-12.595	0.002968
-12.590	0.002995
-12.585	0.002988
-12.580	0.002988
-12.575	0.002967
-12.570	0.002968
-12.565	0.002968
-12.560	0.002975
-12.555	0.002995
-12.550	0.002960
-12.545	0.002961
-12.540	0.002934
-12.535	0.002969
-12.530	0.002980
-12.525	0.002926
-12.520	0.002966
-12.515	0.002960
-12.510	0.002939
-12.505	0.002953
-12.500	0.002953
-12.495	0.002939
-12.490	0.002953
-12.485	0.002953
-12.480	0.002954
-12.475	0.002934
-12.470	0.002914
-12.465	0.002940
-12.460	0.002953
-12.455	0.002912
-12.450	0.002946
-12.445	0.002919
-12.440	0.002939
-12.435	0.002926
-12.430	0.002926
-12.425	0.002924
-12.420	0.002945
-12.415	0.002924
-12.410	0.002919
-12.405	0.002905
-12.400	0.002912
-12.395	0.002884
-12.390	0.002870
-12.385	0.002897
-12.380	0.002890
-12.375	0.002891
-12.370	0.002896
-12.365	0.002924
-12.360	0.002903
-12.355	0.002917
-12.350	0.002896
-12.345	0.002884
-12.340	0.002871
-12.335	0.002884
-12.330	0.002841
-12.325	0.002855
-12.320	0.002896
-12.315	0.002876
-12.310	0.002889
-12.305	0.002849
-12.300	0.002896
-12.295	0.002916
-12.290	0.002868
-12.285	0.002895
-12.280	0.002854
-12.275	0.002855
-12.270	0.002869
-12.265	0.002861
-12.260	0.002874
-12.255	0.002853
-12.250	0.002825
-12.245	0.002860
-12.240	0.002839
-12.235	0.002867
-12.230	0.002867
-12.225	0.002826
-12.220	0.002846
-12.215	0.002839
-12.210	0.002833
-12.205	0.002807
-12.200	0.002819
-12.195	0.002845
-12.190	0.002845
-12.185	0.002825
-12.180	0.002824
-12.175	0.002825
-12.170	0.002838
-12.165	0.002824
-12.160	0.002852
-12.155	0.002817
-12.150	0.002782
-12.145	0.002803
-12.140	0.002811
-12.135	0.002817
-12.130	0.002809
-12.125	0.002788
-12.120	0.002808
-12.115	0.002795
-12.110	0.002774
-12.105	0.002822
-12.100	0.002802
-12.095	0.002821
-12.090	0.002808
-12.085	0.002801
-12.080	0.002795
-12.075	0.002775
-12.070	0.002803
-12.065	0.002801
-12.060	0.002773
-12.055	0.002773
-12.050	0.002787
-12.045	0.002787
-12.040	0.002794
-12.035	0.002794
-12.030	0.002786
-12.025	0.002759
-12.020	0.002799
-12.015	0.002745
-12.010	0.002752
-12.005	0.002753
-12.000	0.002766
-11.995	0.002758
-11.990	0.002744
-11.985	0.002751
-11.980	0.002751
-11.975	0.002785
-11.970	0.002744
-11.965	0.002771
-11.960	0.002737
-11.955	0.002751
-11.950	0.002731
-11.945	0.002752
-11.940	0.002753
-11.935	0.002705
-11.930	0.002758
-11.925	0.002696
-11.920	0.002724
-11.915	0.002751
-11.910	0.002751
-11.905	0.002724
-11.900	0.002764
-11.895	0.002751
-11.890	0.002723
-11.885	0.002750
-11.880	0.002730
-11.875	0.002737
-11.870	0.002731
-11.865	0.002701
-11.860	0.002729
-11.855	0.002722
-11.850	0.002708
-11.845	0.002736
-11.840	0.002715
-11.835	0.002723
-11.830	0.002729
-11.825	0.002729
-11.820	0.002729
-11.815	0.002709
-11.810	0.002696
-11.805	0.002725
-11.800	0.002689
-11.795	0.002723
-11.790	0.002730
-11.785	0.002695
-11.780	0.002688
-11.775	0.002675
-11.770	0.002702
-11.765	0.002709
-11.760	0.002696
-11.755	0.002709
-11.750	0.002681
-11.745	0.002662
-11.740	0.002676
-11.735	0.002656
-11.730	0.002688
-11.725	0.002668
-11.720	0.002681
-11.715	0.002668
-11.710	0.002675
-11.705	0.002716
-11.700	0.002696
-11.695	0.002682
-11.690	0.002682
-11.685	0.002668
-11.680	0.002662
-11.675	0.002643
-11.670	0.002684
-11.665	0.002662
-11.660	0.002634
-11.655	0.002641
-11.650	0.002641
-11.645	0.002655
-11.640	0.002627
-11.635	0.002662
-11.630	0.002655
-11.625	0.002642
-11.620	0.002641
-11.615	0.002635
-11.610	0.002649
-11.605	0.002623
-11.600	0.002676
-11.595	0.002593
-11.590	0.002640
-11.585	0.002620
-11.580	0.002620
-11.575	0.002634
-11.570	0.002620
-11.565	0.002621
-11.560	0.002620
-11.555	0.002642
-11.550	0.002607
-11.545	0.002616
-11.540	0.002616
-11.535	0.002630
-11.530	0.002601
-11.525	0.002608
-11.520	0.002587
-11.515	0.002615
-11.510	0.002615
-11.505	0.002609
-11.500	0.002595
-11.495	0.002622
-11.490	0.002615
-11.485	0.002594
-11.480	0.002629
-11.475	0.002588
-11.470	0.002575
-11.465	0.002587
-11.460	0.002587
-11.455	0.002580
-11.450	0.002607
-11.445	0.002566
-11.440	0.002588
-11.435	0.002636
-11.430	0.002588
-11.425	0.002567
-11.420	0.002567
-11.415	0.002574
-11.410	0.002568
-11.405	0.002609
-11.400	0.002608
-11.395	0.002566
-11.390	0.002567
-11.385	0.002594
-11.380	0.002587
-11.375	0.002553
-11.370	0.002587
-11.365	0.002567
-11.360	0.002588
-11.355	0.002575
-11.350	0.002532
-11.345	0.002540
-11.340	0.002540
-11.335	0.002560
-11.330	0.002552
-11.325	0.002559
-11.320	0.002538
-11.315	0.002573
-11.310	0.002538
-11.305	0.002553
-11.300	0.002566
-11.295	0.002580
-11.290	0.002566
-11.285	0.002573
-11.280	0.002567
-11.275	0.002533
-11.270	0.002533
-11.265	0.002539
-11.260	0.002518
-11.255	0.002525
-11.250	0.002532
-11.245	0.002519
-11.240	0.002560
-11.235	0.002539
-11.230	0.002525
-11.225	0.002518
-11.220	0.002545
-11.215	0.002490
-11.210	0.002512
-11.205	0.002534
-11.200	0.002504
-11.195	0.002476
-11.190	0.002551
-11.185	0.002524
-11.180	0.002476
-11.175	0.002531
-11.170	0.002531
-11.165	0.002518
-11.160	0.002504
-11.155	0.002504
-11.150	0.002510
-11.145	0.002492
-11.140	0.002499
-11.135	0.002491
-11.130	0.002489
-11.125	0.002503
-11.120	0.002510
-11.115	0.002477
-11.110	0.002490
-11.105	0.002490
-11.100	0.002497
-11.095	0.002497
-11.090	0.002476
-11.085	0.002489
-11.080	0.002483
-11.075	0.002457
-11.070	0.002484
-11.065	0.002455
-11.060	0.002469
-11.055	0.002462
-11.050	0.002482
-11.045	0.002476
-11.040	0.002469
-11.035	0.002476
-11.030	0.002476
-11.025	0.002455
-11.020	0.002455
-11.015	0.002476
-11.010	0.002436
-11.005	0.002463
-11.000	0.002455
-10.995	0.002448
-10.990	0.002482
-10.985	0.002434
-10.980	0.002483
-10.975	0.002455
-10.970	0.002482
-10.965	0.002455
-10.960	0.002475
-10.955	0.002447
-10.950	0.002454
-10.945	0.002435
-10.940	0.002449
-10.935	0.002407
-10.930	0.002434
-10.925	0.002461
-10.920	0.002413
-10.915	0.002420
-10.910	0.002420
-10.905	0.002441
-10.900	0.002420
-10.895	0.002427
-10.890	0.002440
-10.885	0.002398
-10.880	0.002413
-10.875	0.002414
-10.870	0.002420
-10.865	0.002425
-10.860	0.002411
-10.855	0.002397
-10.850	0.002445
-10.845	0.002418
-10.840	0.002417
-10.835	0.002445
-10.830	0.002424
-10.825	0.002403
-10.820	0.002410
-10.815	0.002389
-10.810	0.002404
-10.805	0.002411
-10.800	0.002410
-10.795	0.002417
-10.790	0.002423
-10.785	0.002402
-10.780	0.002416
-10.775	0.002402
-10.770	0.002381
-10.765	0.002402
-10.760	0.002402
-10.755	0.002423
-10.750	0.002402
-10.745	0.002383
-10.740	0.002383
-10.735	0.002368
-10.730	0.002375
-10.725	0.002375
-10.720	0.002388
-10.715	0.002389
-10.710	0.002375
-10.705	0.002382
-10.700	0.002388
-10.695	0.002368
-10.690	0.002381
-10.685	0.002381
-10.680	0.002368
-10.675	0.002376
-10.670	0.002342
-10.665	0.002355
-10.660	0.002347
-10.655	0.002368
-10.650	0.002354
-10.645	0.002382
-10.640	0.002375
-10.635	0.002355
-10.630	0.002354
-10.625	0.002354
-10.620	0.002327
-10.615	0.002341
-10.610	0.002363
-10.605	0.002349
-10.600	0.002334
-10.595	0.002361
-10.590	0.002361
-10.585	0.002320
-10.580	0.002341
-10.575	0.002349
-10.570	0.002348
-10.565	0.002369
-10.560	0.002335
-10.555	0.002335
-10.550	0.002341
-10.545	0.002322
-10.540	0.002310
-10.535	0.002315
-10.530	0.002335
-10.525	0.002314
-10.520	0.002328
-10.515	0.002342
-10.510	0.002315
-10.505	0.002335
-10.500	0.002328
-10.495	0.002343
-10.490	0.002322
-10.485	0.002349
-10.480	0.002309
-10.475	0.002351
-10.470	0.002329
-10.465	0.002328
-10.460	0.002294
-10.455	0.002301
-10.450	0.002314
-10.445	0.002314
-10.440	0.002322
-10.435	0.002321
-10.430	0.002328
-10.425	0.002308
-10.420	0.002327
-10.415	0.002328
-10.410	0.002295
-10.405	0.002308
-10.400	0.002300
-10.395	0.002320
-10.390	0.002286
-10.385	0.002293
-10.380	0.002328
-10.375	0.002327
-10.370	0.002341
-10.365	0.002300
-10.360	0.002300
-10.355	0.002314
-10.350	0.002321
-10.345	0.002295
-10.340	0.002281
-10.335	0.002288
-10.330	0.002313
-10.325	0.002286
-10.320	0.002300
-10.315	0.002280
-10.310	0.002280
-10.305	0.002300
-10.300	0.002252
-10.295	0.002258
-10.290	0.002312
-10.285	0.002264
-10.280	0.002251
-10.275	0.002266
-10.270	0.002266
-10.265	0.002271
-10.260	0.002271
-10.255	0.002285
-10.250	0.002271
-10.245	0.002258
-10.240	0.002264
-10.235	0.002271
-10.230	0.002258
-10.225	0.002264
-10.220	0.002264
-10.215	0.002237
-10.210	0.002252
-10.205	0.002245
-10.200	0.002257
-10.195	0.002250
-10.190	0.002257
-10.185	0.002237
-10.180	0.002237
-10.175	0.002216
-10.170	0.002243
-10.165	0.002250
-10.160	0.002264
-10.155	0.002250
-10.150	0.002229
-10.145	0.002217
-10.140	0.002217
-10.135	0.002237
-10.130	0.002249
-10.125	0.002229
-10.120	0.002229
-10.115	0.002250
-10.110	0.002229
-10.105	0.002229
-10.100	0.002222
-10.095	0.002202
-10.090	0.002243
-10.085	0.002222
-10.080	0.002189
-10.075	0.002197
-10.070	0.002196
-10.065	0.002174
-10.060	0.002229
-10.055	0.002181
-10.050	0.002201
-10.045	0.002195
-10.040	0.002209
-10.035	0.002243
-10.030	0.002215
-10.025	0.002208
-10.020	0.002221
-10.015	0.002215
-10.010	0.002203
-10.005	0.002216
-10.000	0.002174
-9.995	0.002208
-9.990	0.002174
-9.985	0.002194
-9.980	0.002208
-9.975	0.002202
-9.970	0.002215
-9.965	0.002202
-9.960	0.002147
-9.955	0.002208
-9.950	0.002201
-9.945	0.002175
-9.940	0.002175
-9.935	0.002168
-9.930	0.002187
-9.925	0.002201
-9.920	0.002187
-9.915	0.002168
-9.910	0.002188
-9.905	0.002160
-9.900	0.002208
-9.895	0.002174
-9.890	0.002160
-9.885	0.002153
-9.880	0.002168
-9.875	0.002175
-9.870	0.002155
-9.865	0.002153
-9.860	0.002146
-9.855	0.002126
-9.850	0.002174
-9.845	0.002174
-9.840	0.002140
-9.835	0.002174
-9.830	0.002154
-9.825	0.002140
-9.820	0.002167
-9.815	0.002113
-9.810	0.002134
-9.805	0.002134
-9.800	0.002132
-9.795	0.002132
-9.790	0.002126
-9.785	0.002119
-9.780	0.002112
-9.775	0.002119
-9.770	0.002132
-9.765	0.002132
-9.760	0.002118
-9.755	0.002139
-9.750	0.002111
-9.745	0.002127
-9.740	0.002106
-9.735	0.002105
-9.730	0.002118
-9.725	0.002118
-9.720	0.002084
-9.715	0.002091
-9.710	0.002118
-9.705	0.002112
-9.700	0.002112
-9.695	0.002098
-9.690	0.002103
-9.685	0.002124
-9.680	0.002096
-9.675	0.002112
-9.670	0.002091
-9.665	0.002090
-9.660	0.002103
-9.655	0.002103
-9.650	0.002069
-9.645	0.002076
-9.640	0.002103
-9.635	0.002097
-9.630	0.002097
-9.625	0.002083
-9.620	0.002055
-9.615	0.002103
-9.610	0.002063
-9.605	0.002063
-9.600	0.002056
-9.595	0.002089
-9.590	0.002068
-9.585	0.002049
-9.580	0.002027
-9.575	0.002069
-9.570	0.002034
-9.565	0.002008
-9.560	0.002041
-9.555	0.002007
-9.550	0.002007
-9.545	0.001966
-9.540	0.001939
-9.535	0.001850
-9.530	0.001705
-9.525	0.001429
-9.520	0.000935
-9.515	0.000269
-9.510	-0.000740
-9.505	-0.002109
-9.500	-0.003907
-9.495	-0.006145
-9.490	-0.008776
-9.485	-0.011736
-9.480	-0.015088
-9.475	-0.018543
-9.470	-0.022278
-9.465	-0.026382
-9.460	-0.030627
-9.455	-0.034922
-9.450	-0.039372
-9.445	-0.043860
-9.440	-0.048153
-9.435	-0.051610
-9.430	-0.053371
-9.425	-0.052687
-9.420	-0.049905
-9.415	-0.046036
-9.410	-0.041994
-9.405	-0.038238
-9.400	-0.035035
-9.395	-0.032564
-9.390	-0.030755
-9.385	-0.029334
-9.380	-0.028141
-9.375	-0.027028
-9.370	-0.026004
-9.365	-0.025058
-9.360	-0.024227
-9.355	-0.023540
-9.350	-0.022887
-9.345	-0.022255
-9.340	-0.021689
-9.335	-0.021153
-9.330	-0.020616
-9.325	-0.020152
-9.320	-0.019677
-9.315	-0.019233
-9.310	-0.018857
-9.305	-0.018473
-9.300	-0.018159
-9.295	-0.017793
-9.290	-0.017497
-9.285	-0.017192
-9.280	-0.016808
-9.275	-0.016498
-9.270	-0.016177
-9.265	-0.015947
-9.260	-0.015703
-9.255	-0.015471
-9.250	-0.015260
-9.245	-0.015033
-9.240	-0.014804
-9.235	-0.014618
-9.230	-0.014375
-9.225	-0.014134
-9.220	-0.013951
-9.215	-0.013761
-9.210	-0.013598
-9.205	-0.013426
-9.200	-0.013237
-9.195	-0.013090
-9.190	-0.012932
-9.185	-0.012768
-9.180	-0.012595
-9.175	-0.012479
-9.170	-0.012327
-9.165	-0.012161
-9.160	-0.012093
-9.155	-0.011926
-9.150	-0.011789
-9.145	-0.011696
-9.140	-0.011514
-9.135	-0.011416
-9.130	-0.011351
-9.125	-0.011260
-9.120	-0.011123
-9.115	-0.011039
-9.110	-0.010893
-9.105	-0.010776
-9.100	-0.010693
-9.095	-0.010596
-9.090	-0.010483
-9.085	-0.010375
-9.080	-0.010271
-9.075	-0.010201
-9.070	-0.010129
-9.065	-0.010030
-9.060	-0.009930
-9.055	-0.009856
-9.050	-0.009749
-9.045	-0.009692
-9.040	-0.009562
-9.035	-0.009483
-9.030	-0.009348
-9.025	-0.009345
-9.020	-0.009347
-9.015	-0.009215
-9.010	-0.009155
-9.005	-0.009080
-9.000	-0.008969
-8.995	-0.008912
-8.990	-0.008912
-8.985	-0.008828
-8.980	-0.008751
-8.975	-0.008670
-8.970	-0.008609
-8.965	-0.008547
-8.960	-0.008505
-8.955	-0.008443
-8.950	-0.008373
-8.945	-0.008285
-8.940	-0.008274
-8.935	-0.008197
-8.930	-0.008188
-8.925	-0.008098
-8.920	-0.008050
-8.915	-0.007954
-8.910	-0.007975
-8.905	-0.007920
-8.900	-0.007823
-8.895	-0.007776
-8.890	-0.007726
-8.885	-0.007684
-8.880	-0.007657
-8.875	-0.007590
-8.870	-0.007535
-8.865	-0.007485
-8.860	-0.007457
-8.855	-0.007381
-8.850	-0.007311
-8.845	-0.007271
-8.840	-0.007249
-8.835	-0.007167
-8.830	-0.007167
-8.825	-0.007133
-8.820	-0.007065
-8.815	-0.007071
-8.810	-0.007031
-8.805	-0.006991
-8.800	-0.006982
-8.795	-0.006905
-8.790	-0.006899
-8.785	-0.006823
-8.780	-0.006829
-8.775	-0.006768
-8.770	-0.006685
-8.765	-0.006670
-8.760	-0.006671
-8.755	-0.006602
-8.750	-0.006581
-8.745	-0.006506
-8.740	-0.006500
-8.735	-0.006480
-8.730	-0.006457
-8.725	-0.006416
-8.720	-0.006382
-8.715	-0.006368
-8.710	-0.006292
-8.705	-0.006258
-8.700	-0.006238
-8.695	-0.006176
-8.690	-0.006134
-8.685	-0.006142
-8.680	-0.006130
-8.675	-0.006079
-8.670	-0.006076
-8.665	-0.006090
-8.660	-0.006058
-8.655	-0.006034
-8.650	-0.005963
-8.645	-0.005906
-8.640	-0.005849
-8.635	-0.005804
-8.630	-0.005771
-8.625	-0.005756
-8.620	-0.005693
-8.615	-0.005720
-8.610	-0.005659
-8.605	-0.005654
-8.600	-0.005625
-8.595	-0.005590
-8.590	-0.005561
-8.585	-0.005534
-8.580	-0.005500
-8.575	-0.005486
-8.570	-0.005452
-8.565	-0.005432
-8.560	-0.005404
-8.555	-0.005335
-8.550	-0.005355
-8.545	-0.005363
-8.540	-0.005322
-8.535	-0.005247
-8.530	-0.005253
-8.525	-0.005231
-8.520	-0.005218
-8.515	-0.005211
-8.510	-0.005156
-8.505	-0.005122
-8.500	-0.005101
-8.495	-0.005094
-8.490	-0.005059
-8.485	-0.005046
-8.480	-0.005012
-8.475	-0.005006
-8.470	-0.004992
-8.465	-0.004991
-8.460	-0.004970
-8.455	-0.004922
-8.450	-0.004936
-8.445	-0.004881
-8.440	-0.004846
-8.435	-0.004840
-8.430	-0.004819
-8.425	-0.004840
-8.420	-0.004812
-8.415	-0.004806
-8.410	-0.004772
-8.405	-0.004766
-8.400	-0.004737
-8.395	-0.004723
-8.390	-0.004730
-8.385	-0.004709
-8.380	-0.004675
-8.375	-0.004654
-8.370	-0.004633
-8.365	-0.004558
-8.360	-0.004585
-8.355	-0.004544
-8.350	-0.004543
-8.345	-0.004538
-8.340	-0.004545
-8.335	-0.004511
-8.330	-0.004503
-8.325	-0.004476
-8.320	-0.004455
-8.315	-0.004448
-8.310	-0.004413
-8.305	-0.004414
-8.300	-0.004352
-8.295	-0.004345
-8.290	-0.004325
-8.285	-0.004297
-8.280	-0.004304
-8.275	-0.004271
-8.270	-0.004237
-8.265	-0.004249
-8.260	-0.004229
-8.255	-0.004229
-8.250	-0.004202
-8.245	-0.004181
-8.240	-0.004167
-8.235	-0.004126
-8.230	-0.004133
-8.225	-0.004071
-8.220	-0.004057
-8.215	-0.004091
-8.210	-0.004064
-8.205	-0.004065
-8.200	-0.004071
-8.195	-0.004044
-8.190	-0.004016
-8.185	-0.003989
-8.180	-0.003982
-8.175	-0.003968
-8.170	-0.003955
-8.165	-0.003927
-8.160	-0.003934
-8.155	-0.003907
-8.150	-0.003907
-8.145	-0.003873
-8.140	-0.003880
-8.135	-0.003894
-8.130	-0.003859
-8.125	-0.003852
-8.120	-0.003825
-8.115	-0.003804
-8.110	-0.003797
-8.105	-0.003777
-8.100	-0.003756
-8.095	-0.003749
-8.090	-0.003736
-8.085	-0.003708
-8.080	-0.003722
-8.075	-0.003716
-8.070	-0.003695
-8.065	-0.003715
-8.060	-0.003681
-8.055	-0.003681
-8.050	-0.003639
-8.045	-0.003632
-8.040	-0.003640
-8.035	-0.003619
-8.030	-0.003626
-8.025	-0.003606
-8.020	-0.003578
-8.015	-0.003585
-8.010	-0.003572
-8.005	-0.003572
-8.000	-0.003551
-7.995	-0.003516
-7.990	-0.003551
-7.985	-0.003482
-7.980	-0.003517
-7.975	-0.003489
-7.970	-0.003475
-7.965	-0.003469
-7.960	-0.003441
-7.955	-0.003441
-7.950	-0.003448
-7.945	-0.003448
-7.940	-0.003435
-7.935	-0.003428
-7.930	-0.003400
-7.925	-0.003427
-7.920	-0.003366
-7.915	-0.003366
-7.910	-0.003373
-7.905	-0.003359
-7.900	-0.003332
-7.895	-0.003345
-7.890	-0.003325
-7.885	-0.003325
-7.880	-0.003284
-7.875	-0.003291
-7.870	-0.003298
-7.865	-0.003290
-7.860	-0.003283
-7.855	-0.003297
-7.850	-0.003243
-7.845	-0.003250
-7.840	-0.003250
-7.835	-0.003222
-7.830	-0.003208
-7.825	-0.003236
-7.820	-0.003215
-7.815	-0.003181
-7.810	-0.003174
-7.805	-0.003181
-7.800	-0.003174
-7.795	-0.003167
-7.790	-0.003147
-7.785	-0.003133
-7.780	-0.003147
-7.775	-0.003112
-7.770	-0.003126
-7.765	-0.003133
-7.760	-0.003071
-7.755	-0.003092
-7.750	-0.003064
-7.745	-0.003079
-7.740	-0.003065
-7.735	-0.003058
-7.730	-0.003064
-7.725	-0.003037
-7.720	-0.003057
-7.715	-0.002996
-7.710	-0.002989
-7.705	-0.002982
-7.700	-0.002975
-7.695	-0.002955
-7.690	-0.002962
-7.685	-0.002962
-7.680	-0.002962
-7.675	-0.002963
-7.670	-0.002908
-7.665	-0.002915
-7.660	-0.002922
-7.655	-0.002916
-7.650	-0.002903
-7.645	-0.002821
-7.640	-0.002842
-7.635	-0.002856
-7.630	-0.002864
-7.625	-0.002843
-7.620	-0.002809
-7.615	-0.002836
-7.610	-0.002843
-7.605	-0.002836
-7.600	-0.002842
-7.595	-0.002848
-7.590	-0.002834
-7.585	-0.002820
-7.580	-0.002792
-7.575	-0.002778
-7.570	-0.002778
-7.565	-0.002750
-7.560	-0.002736
-7.555	-0.002743
-7.550	-0.002730
-7.545	-0.002723
-7.540	-0.002703
-7.535	-0.002703
-7.530	-0.002696
-7.525	-0.002682
-7.520	-0.002668
-7.515	-0.002655
-7.510	-0.002648
-7.505	-0.002655
-7.500	-0.002634
-7.495	-0.002607
-7.490	-0.002613
-7.485	-0.002614
-7.480	-0.002600
-7.475	-0.002641
-7.470	-0.002600
-7.465	-0.002600
-7.460	-0.002593
-7.455	-0.002593
-7.450	-0.002614
-7.445	-0.002586
-7.440	-0.002593
-7.435	-0.002593
-7.430	-0.002552
-7.425	-0.002559
-7.420	-0.002552
-7.415	-0.002545
-7.410	-0.002586
-7.405	-0.002538
-7.400	-0.002552
-7.395	-0.002552
-7.390	-0.002579
-7.385	-0.002524
-7.380	-0.002490
-7.375	-0.002531
-7.370	-0.002490
-7.365	-0.002483
-7.360	-0.002476
-7.355	-0.002490
-7.350	-0.002504
-7.345	-0.002484
-7.340	-0.002449
-7.335	-0.002497
-7.330	-0.002490
-7.325	-0.002477
-7.320	-0.002484
-7.315	-0.002484
-7.310	-0.002449
-7.305	-0.002477
-7.300	-0.002422
-7.295	-0.002436
-7.290	-0.002463
-7.285	-0.002429
-7.280	-0.002408
-7.275	-0.002470
-7.270	-0.002442
-7.265	-0.002415
-7.260	-0.002415
-7.255	-0.002387
-7.250	-0.002394
-7.245	-0.002373
-7.240	-0.002346
-7.235	-0.002353
-7.230	-0.002346
-7.225	-0.002311
-7.220	-0.002284
-7.215	-0.002277
-7.210	-0.002312
-7.205	-0.002270
-7.200	-0.002298
-7.195	-0.002284
-7.190	-0.002291
-7.185	-0.002305
-7.180	-0.002243
-7.175	-0.002257
-7.170	-0.002264
-7.165	-0.002222
-7.160	-0.002250
-7.155	-0.002257
-7.150	-0.002243
-7.145	-0.002209
-7.140	-0.002216
-7.135	-0.002243
-7.130	-0.002229
-7.125	-0.002195
-7.120	-0.002229
-7.115	-0.002209
-7.110	-0.002188
-7.105	-0.002154
-7.100	-0.002174
-7.095	-0.002181
-7.090	-0.002161
-7.085	-0.002181
-7.080	-0.002168
-7.075	-0.002126
-7.070	-0.002161
-7.065	-0.002147
-7.060	-0.002140
-7.055	-0.002154
-7.050	-0.002133
-7.045	-0.002120
-7.040	-0.002120
-7.035	-0.002113
-7.030	-0.002133
-7.025	-0.002113
-7.020	-0.002113
-7.015	-0.002065
-7.010	-0.002099
-7.005	-0.002106
-7.000	-0.002127
-6.995	-0.002099
-6.990	-0.002078
-6.985	-0.002072
-6.980	-0.002092
-6.975	-0.002058
-6.970	-0.002065
-6.965	-0.002065
-6.960	-0.002072
-6.955	-0.002065
-6.950	-0.002072
-6.945	-0.002058
-6.940	-0.002065
-6.935	-0.002037
-6.930	-0.002031
-6.925	-0.002051
-6.920	-0.002072
-6.915	-0.002024
-6.910	-0.002044
-6.905	-0.002058
-6.900	-0.002044
-6.895	-0.002031
-6.890	-0.002024
-6.885	-0.002031
-6.880	-0.002017
-6.875	-0.002045
-6.870	-0.002038
-6.865	-0.001997
-6.860	-0.001997
-6.855	-0.002017
-6.850	-0.002017
-6.845	-0.001997
-6.840	-0.002017
-6.835	-0.002017
-6.830	-0.002004
-6.825	-0.001997
-6.820	-0.002017
-6.815	-0.002031
-6.810	-0.002004
-6.805	-0.002024
-6.800	-0.002045
-6.795	-0.002059
-6.790	-0.002066
-6.785	-0.002038
-6.780	-0.002031
-6.775	-0.002052
-6.770	-0.002052
-6.765	-0.002038
-6.760	-0.002025
-6.755	-0.002031
-6.750	-0.002038
-6.745	-0.002025
-6.740	-0.002018
-6.735	-0.002004
-6.730	-0.002025
-6.725	-0.002011
-6.720	-0.001997
-6.715	-0.002004
-6.710	-0.001977
-6.705	-0.001956
-6.700	-0.001956
-6.695	-0.001984
-6.690	-0.001956
-6.685	-0.001977
-6.680	-0.001956
-6.675	-0.001963
-6.670	-0.001922
-6.665	-0.001970
-6.660	-0.001984
-6.655	-0.001950
-6.650	-0.001943
-6.645	-0.001867
-6.640	-0.001922
-6.635	-0.001902
-6.630	-0.001902
-6.625	-0.001909
-6.620	-0.001902
-6.615	-0.001881
-6.610	-0.001881
-6.605	-0.001861
-6.600	-0.001854
-6.595	-0.001868
-6.590	-0.001854
-6.585	-0.001854
-6.580	-0.001820
-6.575	-0.001806
-6.570	-0.001806
-6.565	-0.001820
-6.560	-0.001820
-6.555	-0.001799
-6.550	-0.001847
-6.545	-0.001806
-6.540	-0.001820
-6.535	-0.001806
-6.530	-0.001820
-6.525	-0.001806
-6.520	-0.001806
-6.515	-0.001779
-6.510	-0.001792
-6.505	-0.001772
-6.500	-0.001799
-6.495	-0.001779
-6.490	-0.001793
-6.485	-0.001751
-6.480	-0.001806
-6.475	-0.001772
-6.470	-0.001758
-6.465	-0.001745
-6.460	-0.001731
-6.455	-0.001738
-6.450	-0.001731
-6.445	-0.001724
-6.440	-0.001731
-6.435	-0.001703
-6.430	-0.001710
-6.425	-0.001690
-6.420	-0.001683
-6.415	-0.001697
-6.410	-0.001724
-6.405	-0.001717
-6.400	-0.001717
-6.395	-0.001745
-6.390	-0.001697
-6.385	-0.001704
-6.380	-0.001683
-6.375	-0.001676
-6.370	-0.001669
-6.365	-0.001676
-6.360	-0.001683
-6.355	-0.001669
-6.350	-0.001690
-6.345	-0.001676
-6.340	-0.001704
-6.335	-0.001690
-6.330	-0.001718
-6.325	-0.001690
-6.320	-0.001670
-6.315	-0.001697
-6.310	-0.001711
-6.305	-0.001663
-6.300	-0.001677
-6.295	-0.001649
-6.290	-0.001670
-6.285	-0.001656
-6.280	-0.001649
-6.275	-0.001649
-6.270	-0.001677
-6.265	-0.001649
-6.260	-0.001642
-6.255	-0.001635
-6.250	-0.001635
-6.245	-0.001615
-6.240	-0.001636
-6.235	-0.001622
-6.230	-0.001622
-6.225	-0.001608
-6.220	-0.001615
-6.215	-0.001608
-6.210	-0.001601
-6.205	-0.001594
-6.200	-0.001608
-6.195	-0.001615
-6.190	-0.001601
-6.185	-0.001601
-6.180	-0.001601
-6.175	-0.001574
-6.170	-0.001602
-6.165	-0.001608
-6.160	-0.001588
-6.155	-0.001581
-6.150	-0.001581
-6.145	-0.001567
-6.140	-0.001581
-6.135	-0.001609
-6.130	-0.001574
-6.125	-0.001581
-6.120	-0.001595
-6.115	-0.001567
-6.110	-0.001547
-6.105	-0.001567
-6.100	-0.001568
-6.095	-0.001554
-6.090	-0.001568
-6.085	-0.001568
-6.080	-0.001561
-6.075	-0.001540
-6.070	-0.001561
-6.065	-0.001554
-6.060	-0.001554
-6.055	-0.001540
-6.050	-0.001520
-6.045	-0.001520
-6.040	-0.001513
-6.035	-0.001478
-6.030	-0.001499
-6.025	-0.001472
-6.020	-0.001499
-6.015	-0.001479
-6.010	-0.001472
-6.005	-0.001479
-6.000	-0.001458
-5.995	-0.001492
-5.990	-0.001465
-5.985	-0.001465
-5.980	-0.001444
-5.975	-0.001417
-5.970	-0.001431
-5.965	-0.001410
-5.960	-0.001403
-5.955	-0.001424
-5.950	-0.001410
-5.945	-0.001403
-5.940	-0.001390
-5.935	-0.001390
-5.930	-0.001390
-5.925	-0.001390
-5.920	-0.001383
-5.915	-0.001349
-5.910	-0.001349
-5.905	-0.001328
-5.900	-0.001362
-5.895	-0.001307
-5.890	-0.001328
-5.885	-0.001287
-5.880	-0.001314
-5.875	-0.001328
-5.870	-0.001280
-5.865	-0.001280
-5.860	-0.001280
-5.855	-0.001280
-5.850	-0.001267
-5.845	-0.001253
-5.840	-0.001267
-5.835	-0.001253
-5.830	-0.001253
-5.825	-0.001239
-5.820	-0.001246
-5.815	-0.001253
-5.810	-0.001273
-5.805	-0.001294
-5.800	-0.001280
-5.795	-0.001301
-5.790	-0.001342
-5.785	-0.001342
-5.780	-0.001418
-5.775	-0.001418
-5.770	-0.001452
-5.765	-0.001535
-5.760	-0.001624
-5.755	-0.001672
-5.750	-0.001782
-5.745	-0.001878
-5.740	-0.001961
-5.735	-0.002078
-5.730	-0.002174
-5.725	-0.002312
-5.720	-0.002380
-5.715	-0.002449
-5.710	-0.002511
-5.705	-0.002580
-5.700	-0.002635
-5.695	-0.002628
-5.690	-0.002600
-5.685	-0.002566
-5.680	-0.002497
-5.675	-0.002381
-5.670	-0.002291
-5.665	-0.002147
-5.660	-0.002030
-5.655	-0.001893
-5.650	-0.001735
-5.645	-0.001583
-5.640	-0.001480
-5.635	-0.001343
-5.630	-0.001260
-5.625	-0.001219
-5.620	-0.001157
-5.615	-0.001123
-5.610	-0.001089
-5.605	-0.001089
-5.600	-0.001082
-5.595	-0.001089
-5.590	-0.001068
-5.585	-0.001089
-5.580	-0.001103
-5.575	-0.001089
-5.570	-0.001075
-5.565	-0.001103
-5.560	-0.001110
-5.555	-0.001096
-5.550	-0.001117
-5.545	-0.001103
-5.540	-0.001089
-5.535	-0.001110
-5.530	-0.001130
-5.525	-0.001103
-5.520	-0.001096
-5.515	-0.001096
-5.510	-0.001089
-5.505	-0.001048
-5.500	-0.001103
-5.495	-0.001089
-5.490	-0.001089
-5.485	-0.001130
-5.480	-0.001137
-5.475	-0.001130
-5.470	-0.001130
-5.465	-0.001151
-5.460	-0.001172
-5.455	-0.001144
-5.450	-0.001130
-5.445	-0.001048
-5.440	-0.000862
-5.435	-0.000442
-5.430	0.000301
-5.425	0.001231
-5.420	0.002794
-5.415	0.004850
-5.410	0.007544
-5.405	0.010987
-5.400	0.014558
-5.395	0.018709
-5.390	0.023710
-5.385	0.028774
-5.380	0.034346
-5.375	0.040888
-5.370	0.047276
-5.365	0.052818
-5.360	0.058386
-5.355	0.064639
-5.350	0.070337
-5.345	0.073493
-5.340	0.073253
-5.335	0.070425
-5.330	0.066467
-5.325	0.062218
-5.320	0.058217
-5.315	0.054704
-5.310	0.051662
-5.305	0.049207
-5.300	0.047068
-5.295	0.045233
-5.290	0.043540
-5.285	0.042026
-5.280	0.040668
-5.275	0.039413
-5.270	0.038303
-5.265	0.037305
-5.260	0.036378
-5.255	0.035550
-5.250	0.034754
-5.245	0.033995
-5.240	0.033248
-5.235	0.032656
-5.230	0.032027
-5.225	0.031399
-5.220	0.030846
-5.215	0.030236
-5.210	0.029719
-5.205	0.029249
-5.200	0.028744
-5.195	0.028278
-5.190	0.027797
-5.185	0.027307
-5.180	0.026803
-5.175	0.026274
-5.170	0.025832
-5.165	0.025496
-5.160	0.025159
-5.155	0.024874
-5.150	0.024546
-5.145	0.024236
-5.140	0.023957
-5.135	0.023671
-5.130	0.023469
-5.125	0.023096
-5.120	0.022865
-5.115	0.022613
-5.110	0.022389
-5.105	0.022185
-5.100	0.022028
-5.095	0.021883
-5.090	0.021601
-5.085	0.021392
-5.080	0.021191
-5.075	0.020981
-5.070	0.020823
-5.065	0.020699
-5.060	0.020562
-5.055	0.020385
-5.050	0.020175
-5.045	0.019947
-5.040	0.019731
-5.035	0.019519
-5.030	0.019318
-5.025	0.019087
-5.020	0.018828
-5.015	0.018654
-5.010	0.018541
-5.005	0.018411
-5.000	0.018350
-4.995	0.018208
-4.990	0.018037
-4.985	0.017914
-4.980	0.017745
-4.975	0.017575
-4.970	0.017426
-4.965	0.017315
-4.960	0.017226
-4.955	0.017061
-4.950	0.016864
-4.945	0.016730
-4.940	0.016619
-4.935	0.016476
-4.930	0.016434
-4.925	0.016306
-4.920	0.016156
-4.915	0.016032
-4.910	0.015903
-4.905	0.015801
-4.900	0.015742
-4.895	0.015698
-4.890	0.015645
-4.885	0.015583
-4.880	0.015488
-4.875	0.015403
-4.870	0.015338
-4.865	0.015329
-4.860	0.015295
-4.855	0.015187
-4.850	0.015151
-4.845	0.015071
-4.840	0.015011
-4.835	0.014937
-4.830	0.014947
-4.825	0.014866
-4.820	0.014754
-4.815	0.014615
-4.810	0.014470
-4.805	0.014266
-4.800	0.014193
-4.795	0.014042
-4.790	0.014034
-4.785	0.013933
-4.780	0.013903
-4.775	0.013857
-4.770	0.013801
-4.765	0.013716
-4.760	0.013672
-4.755	0.013573
-4.750	0.013450
-4.745	0.013317
-4.740	0.013187
-4.735	0.013093
-4.730	0.013033
-4.725	0.013047
-4.720	0.013061
-4.715	0.013041
-4.710	0.012966
-4.705	0.012985
-4.700	0.013003
-4.695	0.012993
-4.690	0.012939
-4.685	0.012891
-4.680	0.012791
-4.675	0.012697
-4.670	0.012644
-4.665	0.012499
-4.660	0.012397
-4.655	0.012308
-4.650	0.012232
-4.645	0.012155
-4.640	0.012067
-4.635	0.011995
-4.630	0.011898
-4.625	0.011802
-4.620	0.011738
-4.615	0.011677
-4.610	0.011652
-4.605	0.011592
-4.600	0.011511
-4.595	0.011497
-4.590	0.011434
-4.585	0.011462
-4.580	0.011448
-4.575	0.011498
-4.570	0.011469
-4.565	0.011428
-4.560	0.011344
-4.555	0.011337
-4.550	0.011362
-4.545	0.011381
-4.540	0.011317
-4.535	0.011180
-4.530	0.011183
-4.525	0.011191
-4.520	0.011116
-4.515	0.010888
-4.510	0.010712
-4.505	0.010685
-4.500	0.010667
-4.495	0.010632
-4.490	0.010587
-4.485	0.010505
-4.480	0.010542
-4.475	0.010564
-4.470	0.010554
-4.465	0.010533
-4.460	0.010479
-4.455	0.010423
-4.450	0.010341
-4.445	0.010293
-4.440	0.010195
-4.435	0.010174
-4.430	0.010099
-4.425	0.010108
-4.420	0.010012
-4.415	0.010011
-4.410	0.009925
-4.405	0.009892
-4.400	0.009833
-4.395	0.009875
-4.390	0.009836
-4.385	0.009833
-4.380	0.009807
-4.375	0.009776
-4.370	0.009713
-4.365	0.009679
-4.360	0.009640
-4.355	0.009651
-4.350	0.009623
-4.345	0.009565
-4.340	0.009537
-4.335	0.009517
-4.330	0.009453
-4.325	0.009401
-4.320	0.009412
-4.315	0.009462
-4.310	0.009499
-4.305	0.009518
-4.300	0.009472
-4.295	0.009372
-4.290	0.009290
-4.285	0.009221
-4.280	0.009160
-4.275	0.009060
-4.270	0.009020
-4.265	0.009005
-4.260	0.008980
-4.255	0.008972
-4.250	0.008911
-4.245	0.008835
-4.240	0.008874
-4.235	0.008982
-4.230	0.009004
-4.225	0.008988
-4.220	0.009010
-4.215	0.008985
-4.210	0.008974
-4.205	0.008978
-4.200	0.008980
-4.195	0.008909
-4.190	0.008849
-4.185	0.008761
-4.180	0.008650
-4.175	0.008568
-4.170	0.008429
-4.165	0.008270
-4.160	0.008159
-4.155	0.008064
-4.150	0.007868
-4.145	0.007582
-4.140	0.007122
-4.135	0.006379
-4.130	0.005303
-4.125	0.003803
-4.120	0.001889
-4.115	-0.000650
-4.110	-0.003747
-4.105	-0.007429
-4.100	-0.011700
-4.095	-0.016548
-4.090	-0.021898
-4.085	-0.027744
-4.080	-0.033954
-4.075	-0.040267
-4.070	-0.046677
-4.065	-0.053015
-4.060	-0.059121
-4.055	-0.064551
-4.050	-0.068809
-4.045	-0.071486
-4.040	-0.072319
-4.035	-0.071144
-4.030	-0.068250
-4.025	-0.064155
-4.020	-0.059740
-4.015	-0.055516
-4.010	-0.051735
-4.005	-0.048551
-4.000	-0.045862
-3.995	-0.043556
-3.990	-0.041595
-3.985	-0.039872
-3.980	-0.038343
-3.975	-0.036921
-3.970	-0.035637
-3.965	-0.034473
-3.960	-0.033408
-3.955	-0.032483
-3.950	-0.031672
-3.945	-0.030843
-3.940	-0.030072
-3.935	-0.029401
-3.930	-0.028764
-3.925	-0.028170
-3.920	-0.027566
-3.915	-0.027067
-3.910	-0.026517
-3.905	-0.026028
-3.900	-0.025564
-3.895	-0.025104
-3.890	-0.024667
-3.885	-0.024231
-3.880	-0.023806
-3.875	-0.023430
-3.870	-0.023019
-3.865	-0.022632
-3.860	-0.022295
-3.855	-0.021896
-3.850	-0.021562
-3.845	-0.021171
-3.840	-0.020804
-3.835	-0.020440
-3.830	-0.020121
-3.825	-0.019815
-3.820	-0.019519
-3.815	-0.019217
-3.810	-0.018915
-3.805	-0.018673
-3.800	-0.018408
-3.795	-0.018155
-3.790	-0.017940
-3.785	-0.017663
-3.780	-0.017461
-3.775	-0.017213
-3.770	-0.016992
-3.765	-0.016758
-3.760	-0.016524
-3.755	-0.016333
-3.750	-0.016150
-3.745	-0.015965
-3.740	-0.015771
-3.735	-0.015593
-3.730	-0.015401
-3.725	-0.015216
-3.720	-0.015073
-3.715	-0.014935
-3.710	-0.014751
-3.705	-0.014602
-3.700	-0.014452
-3.695	-0.014317
-3.690	-0.014158
-3.685	-0.014021
-3.680	-0.013912
-3.675	-0.013776
-3.670	-0.013620
-3.665	-0.013490
-3.660	-0.013312
-3.655	-0.013189
-3.650	-0.013045
-3.645	-0.012963
-3.640	-0.012860
-3.635	-0.012777
-3.630	-0.012616
-3.625	-0.012554
-3.620	-0.012397
-3.615	-0.012279
-3.610	-0.012130
-3.605	-0.011964
-3.600	-0.011815
-3.595	-0.011656
-3.590	-0.011470
-3.585	-0.011292
-3.580	-0.011047
-3.575	-0.010784
-3.570	-0.010497
-3.565	-0.010201
-3.560	-0.009849
-3.555	-0.009477
-3.550	-0.009026
-3.545	-0.008547
-3.540	-0.008071
-3.535	-0.007539
-3.530	-0.006979
-3.525	-0.006410
-3.520	-0.005796
-3.515	-0.005176
-3.510	-0.004482
-3.505	-0.003824
-3.500	-0.003165
-3.495	-0.002507
-3.490	-0.001909
-3.485	-0.001394
-3.480	-0.000900
-3.475	-0.000419
-3.470	-0.000036
-3.465	0.000321
-3.460	0.000568
-3.455	0.000725
-3.450	0.000800
-3.445	0.000876
-3.440	0.000896
-3.435	0.000896
-3.430	0.000787
-3.425	0.000828
-3.420	0.000875
-3.415	0.000985
-3.410	0.001122
-3.405	0.001424
-3.400	0.001871
-3.395	0.002435
-3.390	0.003042
-3.385	0.003791
-3.380	0.004564
-3.375	0.005498
-3.370	0.006529
-3.365	0.007618
-3.360	0.008705
-3.355	0.009770
-3.350	0.010848
-3.345	0.011855
-3.340	0.012473
-3.335	0.012615
-3.330	0.012346
-3.325	0.011848
-3.320	0.011253
-3.315	0.010732
-3.310	0.010298
-3.305	0.009983
-3.300	0.009763
-3.295	0.009497
-3.290	0.009353
-3.285	0.009220
-3.280	0.009102
-3.275	0.008958
-3.270	0.008870
-3.265	0.008937
-3.260	0.009005
-3.255	0.008998
-3.250	0.008945
-3.245	0.009003
-3.240	0.009019
-3.235	0.009067
-3.230	0.009128
-3.225	0.009167
-3.220	0.009242
-3.215	0.009327
-3.210	0.009373
-3.205	0.009445
-3.200	0.009519
-3.195	0.009638
-3.190	0.009775
-3.185	0.009907
-3.180	0.010097
-3.175	0.010255
-3.170	0.010391
-3.165	0.010502
-3.160	0.010571
-3.155	0.010632
-3.150	0.010666
-3.145	0.010762
-3.140	0.010915
-3.135	0.010978
-3.130	0.010993
-3.125	0.011001
-3.120	0.011083
-3.115	0.011207
-3.110	0.011294
-3.105	0.011338
-3.100	0.011352
-3.095	0.011428
-3.090	0.011516
-3.085	0.011558
-3.080	0.011583
-3.075	0.011683
-3.070	0.011775
-3.065	0.011859
-3.060	0.011929
-3.055	0.011979
-3.050	0.012046
-3.045	0.012109
-3.040	0.012133
-3.035	0.012245
-3.030	0.012322
-3.025	0.012424
-3.020	0.012508
-3.015	0.012716
-3.010	0.012796
-3.005	0.012912
-3.000	0.012967
-2.995	0.012991
-2.990	0.013095
-2.985	0.013194
-2.980	0.013317
-2.975	0.013390
-2.970	0.013445
-2.965	0.013570
-2.960	0.013681
-2.955	0.013759
-2.950	0.013784
-2.945	0.013851
-2.940	0.013925
-2.935	0.014015
-2.930	0.014131
-2.925	0.014291
-2.920	0.014447
-2.915	0.014494
-2.910	0.014494
-2.905	0.014518
-2.900	0.014585
-2.895	0.014676
-2.890	0.014838
-2.885	0.014985
-2.880	0.015027
-2.875	0.015008
-2.870	0.015110
-2.865	0.015293
-2.860	0.015572
-2.855	0.015728
-2.850	0.015832
-2.845	0.015878
-2.840	0.015931
-2.835	0.015964
-2.830	0.015870
-2.825	0.015879
-2.820	0.015828
-2.815	0.015795
-2.810	0.015743
-2.805	0.015703
-2.800	0.015665
-2.795	0.015640
-2.790	0.015669
-2.785	0.015657
-2.780	0.015651
-2.775	0.015700
-2.770	0.015808
-2.765	0.015986
-2.760	0.016144
-2.755	0.016261
-2.750	0.016364
-2.745	0.016480
-2.740	0.016534
-2.735	0.016669
-2.730	0.016766
-2.725	0.016924
-2.720	0.017042
-2.715	0.017101
-2.710	0.017175
-2.705	0.017256
-2.700	0.017324
-2.695	0.017439
-2.690	0.017453
-2.685	0.017382
-2.680	0.017393
-2.675	0.017439
-2.670	0.017553
-2.665	0.017589
-2.660	0.017673
-2.655	0.017795
-2.650	0.017894
-2.645	0.017998
-2.640	0.018110
-2.635	0.018230
-2.630	0.018368
-2.625	0.018408
-2.620	0.018429
-2.615	0.018434
-2.610	0.018418
-2.605	0.018462
-2.600	0.018543
-2.595	0.018529
-2.590	0.018453
-2.585	0.018379
-2.580	0.018321
-2.575	0.018347
-2.570	0.018294
-2.565	0.018257
-2.560	0.018284
-2.555	0.018313
-2.550	0.018373
-2.545	0.018427
-2.540	0.018431
-2.535	0.018486
-2.530	0.018523
-2.525	0.018544
-2.520	0.018528
-2.515	0.018615
-2.510	0.018739
-2.505	0.018875
-2.500	0.018933
-2.495	0.019011
-2.490	0.019024
-2.485	0.019035
-2.480	0.019074
-2.475	0.019130
-2.470	0.019123
-2.465	0.019126
-2.460	0.019116
-2.455	0.019139
-2.450	0.019084
-2.445	0.018954
-2.440	0.018840
-2.435	0.018665
-2.430	0.018694
-2.425	0.018993
-2.420	0.019232
-2.415	0.019198
-2.410	0.019055
-2.405	0.019003
-2.400	0.019085
-2.395	0.019247
-2.390	0.019398
-2.385	0.019574
-2.380	0.019781
-2.375	0.019956
-2.370	0.020057
-2.365	0.020123
-2.360	0.020203
-2.355	0.020173
-2.350	0.020194
-2.345	0.020205
-2.340	0.020242
-2.335	0.020245
-2.330	0.020283
-2.325	0.020279
-2.320	0.020254
-2.315	0.020171
-2.310	0.020077
-2.305	0.019967
-2.300	0.019847
-2.295	0.019762
-2.290	0.019642
-2.285	0.019503
-2.280	0.019438
-2.275	0.019411
-2.270	0.019448
-2.265	0.019530
-2.260	0.019556
-2.255	0.019612
-2.250	0.019636
-2.245	0.019709
-2.240	0.019770
-2.235	0.019824
-2.230	0.019832
-2.225	0.019875
-2.220	0.019873
-2.215	0.019890
-2.210	0.019975
-2.205	0.020007
-2.200	0.020026
-2.195	0.020092
-2.190	0.020006
-2.185	0.020002
-2.180	0.019963
-2.175	0.019924
-2.170	0.019809
-2.165	0.019671
-2.160	0.019551
-2.155	0.019443
-2.150	0.019332
-2.145	0.019296
-2.140	0.019297
-2.135	0.019307
-2.130	0.019301
-2.125	0.019416
-2.120	0.019552
-2.115	0.019759
-2.110	0.019941
-2.105	0.020075
-2.100	0.020207
-2.095	0.020367
-2.090	0.020428
-2.085	0.020499
-2.080	0.020456
-2.075	0.020399
-2.070	0.020391
-2.065	0.020376
-2.060	0.020434
-2.055	0.020455
-2.050	0.020458
-2.045	0.020436
-2.040	0.020395
-2.035	0.020331
-2.030	0.020310
-2.025	0.020270
-2.020	0.020202
-2.015	0.020100
-2.010	0.019986
-2.005	0.019920
-2.000	0.019862
-1.995	0.019855
-1.990	0.019830
-1.985	0.019791
-1.980	0.019817
-1.975	0.019775
-1.970	0.019825
-1.965	0.019842
-1.960	0.019872
-1.955	0.019811
-1.950	0.019837
-1.945	0.019823
-1.940	0.019794
-1.935	0.019789
-1.930	0.019814
-1.925	0.019768
-1.920	0.019693
-1.915	0.019638
-1.910	0.019571
-1.905	0.019524
-1.900	0.019530
-1.895	0.019530
-1.890	0.019531
-1.885	0.019547
-1.880	0.019603
-1.875	0.019617
-1.870	0.019634
-1.865	0.019607
-1.860	0.019580
-1.855	0.019505
-1.850	0.019437
-1.845	0.019337
-1.840	0.019200
-1.835	0.019066
-1.830	0.018984
-1.825	0.018910
-1.820	0.018896
-1.815	0.018894
-1.810	0.018896
-1.805	0.018937
-1.800	0.019049
-1.795	0.019153
-1.790	0.019213
-1.785	0.019267
-1.780	0.019273
-1.775	0.019239
-1.770	0.019196
-1.765	0.019112
-1.760	0.019031
-1.755	0.018933
-1.750	0.018795
-1.745	0.018680
-1.740	0.018554
-1.735	0.018448
-1.730	0.018410
-1.725	0.018321
-1.720	0.018307
-1.715	0.018311
-1.710	0.018342
-1.705	0.018425
-1.700	0.018432
-1.695	0.018503
-1.690	0.018574
-1.685	0.018651
-1.680	0.018720
-1.675	0.018733
-1.670	0.018701
-1.665	0.018654
-1.660	0.018640
-1.655	0.018582
-1.650	0.018581
-1.645	0.018608
-1.640	0.018605
-1.635	0.018532
-1.630	0.018542
-1.625	0.018473
-1.620	0.018460
-1.615	0.018446
-1.610	0.018429
-1.605	0.018457
-1.600	0.018422
-1.595	0.018371
-1.590	0.018296
-1.585	0.018215
-1.580	0.018113
-1.575	0.018018
-1.570	0.017921
-1.565	0.017830
-1.560	0.017717
-1.555	0.017623
-1.550	0.017490
-1.545	0.017368
-1.540	0.017307
-1.535	0.017282
-1.530	0.017275
-1.525	0.017272
-1.520	0.017264
-1.515	0.017301
-1.510	0.017351
-1.505	0.017411
-1.500	0.017454
-1.495	0.017447
-1.490	0.017452
-1.485	0.017358
-1.480	0.017256
-1.475	0.017114
-1.470	0.016963
-1.465	0.016797
-1.460	0.016642
-1.455	0.016507
-1.450	0.016427
-1.445	0.016371
-1.440	0.016341
-1.435	0.016355
-1.430	0.016304
-1.425	0.016364
-1.420	0.016362
-1.415	0.016303
-1.410	0.016276
-1.405	0.016247
-1.400	0.016235
-1.395	0.016206
-1.390	0.016169
-1.385	0.016098
-1.380	0.015982
-1.375	0.015955
-1.370	0.015885
-1.365	0.015756
-1.360	0.015674
-1.355	0.015580
-1.350	0.015518
-1.345	0.015438
-1.340	0.015330
-1.335	0.015240
-1.330	0.015160
-1.325	0.015030
-1.320	0.014940
-1.315	0.014879
-1.310	0.014845
-1.305	0.014825
-1.300	0.014778
-1.295	0.014839
-1.290	0.014867
-1.285	0.014934
-1.280	0.014973
-1.275	0.015020
-1.270	0.015081
-1.265	0.015102
-1.260	0.015131
-1.255	0.015153
-1.250	0.015168
-1.245	0.015152
-1.240	0.015064
-1.235	0.015051
-1.230	0.015004
-1.225	0.014933
-1.220	0.014894
-1.215	0.014835
-1.210	0.014804
-1.205	0.014804
-1.200	0.014754
-1.195	0.014734
-1.190	0.014714
-1.185	0.014676
-1.180	0.014655
-1.175	0.014593
-1.170	0.014531
-1.165	0.014476
-1.160	0.014359
-1.155	0.014351
-1.150	0.014254
-1.145	0.014188
-1.140	0.014143
-1.135	0.014079
-1.130	0.013976
-1.125	0.013879
-1.120	0.013772
-1.115	0.013646
-1.110	0.013517
-1.105	0.013435
-1.100	0.013277
-1.095	0.013182
-1.090	0.013074
-1.085	0.012964
-1.080	0.012864
-1.075	0.012740
-1.070	0.012646
-1.065	0.012544
-1.060	0.012508
-1.055	0.012440
-1.050	0.012395
-1.045	0.012368
-1.040	0.012421
-1.035	0.012436
-1.030	0.012490
-1.025	0.012570
-1.020	0.012636
-1.015	0.012744
-1.010	0.012806
-1.005	0.012940
-1.000	0.012947
-0.995	0.013024
-0.990	0.013065
-0.985	0.013103
-0.980	0.013102
-0.975	0.013084
-0.970	0.013050
-0.965	0.013016
-0.960	0.012922
-0.955	0.012814
-0.950	0.012662
-0.945	0.012512
-0.940	0.012393
-0.935	0.012261
-0.930	0.012070
-0.925	0.011982
-0.920	0.011873
-0.915	0.011778
-0.910	0.011656
-0.905	0.011553
-0.900	0.011517
-0.895	0.011440
-0.890	0.011351
-0.885	0.011320
-0.880	0.011255
-0.875	0.011180
-0.870	0.011108
-0.865	0.011032
-0.860	0.010951
-0.855	0.010884
-0.850	0.010817
-0.845	0.010735
-0.840	0.010659
-0.835	0.010564
-0.830	0.010476
-0.825	0.010427
-0.820	0.010319
-0.815	0.010226
-0.810	0.010136
-0.805	0.010044
-0.800	0.009948
-0.795	0.009834
-0.790	0.009682
-0.785	0.009573
-0.780	0.009483
-0.775	0.009383
-0.770	0.009245
-0.765	0.009158
-0.760	0.009047
-0.755	0.008960
-0.750	0.008879
-0.745	0.008814
-0.740	0.008741
-0.735	0.008679
-0.730	0.008637
-0.725	0.008651
-0.720	0.008643
-0.715	0.008628
-0.710	0.008593
-0.705	0.008581
-0.700	0.008594
-0.695	0.008587
-0.690	0.008551
-0.685	0.008494
-0.680	0.008483
-0.675	0.008463
-0.670	0.008412
-0.665	0.008374
-0.660	0.008382
-0.655	0.008328
-0.650	0.008309
-0.645	0.008276
-0.640	0.008248
-0.635	0.008215
-0.630	0.008193
-0.625	0.008171
-0.620	0.008122
-0.615	0.008049
-0.610	0.007998
-0.605	0.007938
-0.600	0.007881
-0.595	0.007881
-0.590	0.007762
-0.585	0.007749
-0.580	0.007652
-0.575	0.007612
-0.570	0.007557
-0.565	0.007468
-0.560	0.007392
-0.555	0.007322
-0.550	0.007240
-0.545	0.007173
-0.540	0.007086
-0.535	0.006954
-0.530	0.006898
-0.525	0.006796
-0.520	0.006774
-0.515	0.006650
-0.510	0.006540
-0.505	0.006477
-0.500	0.006373
-0.495	0.006303
-0.490	0.006225
-0.485	0.006131
-0.480	0.006028
-0.475	0.005951
-0.470	0.005886
-0.465	0.005761
-0.460	0.005691
-0.455	0.005677
-0.450	0.005588
-0.445	0.005534
-0.440	0.005465
-0.435	0.005397
-0.430	0.005342
-0.425	0.005280
-0.420	0.005267
-0.415	0.005201
-0.410	0.005199
-0.405	0.005178
-0.400	0.005122
-0.395	0.005061
-0.390	0.005054
-0.385	0.004992
-0.380	0.004972
-0.375	0.004945
-0.370	0.004917
-0.365	0.004880
-0.360	0.004845
-0.355	0.004824
-0.350	0.004778
-0.345	0.004711
-0.340	0.004647
-0.335	0.004599
-0.330	0.004502
-0.325	0.004447
-0.320	0.004412
-0.315	0.004336
-0.310	0.004275
-0.305	0.004229
-0.300	0.004107
-0.295	0.003971
-0.290	0.003902
-0.285	0.003802
-0.280	0.003686
-0.275	0.003582
-0.270	0.003525
-0.265	0.003476
-0.260	0.003508
-0.255	0.003458
-0.250	0.003450
-0.245	0.003410
-0.240	0.003315
-0.235	0.003240
-0.230	0.003163
-0.225	0.003101
-0.220	0.003000
-0.215	0.002852
-0.210	0.002769
-0.205	0.002650
-0.200	0.002601
-0.195	0.002519
-0.190	0.002449
-0.185	0.002422
-0.180	0.002299
-0.175	0.002196
-0.170	0.002128
-0.165	0.002052
-0.160	0.002030
-0.155	0.001955
-0.150	0.001922
-0.145	0.001928
-0.140	0.001899
-0.135	0.001933
-0.130	0.002139
-0.125	0.002427
-0.120	0.002714
-0.115	0.002737
-0.110	0.002806
-0.105	0.002970
-0.100	0.003093
-0.095	0.003066
-0.090	0.002908
-0.085	0.002586
-0.080	0.002030
-0.075	0.001342
-0.070	0.000599
-0.065	-0.000255
-0.060	-0.001245
-0.055	-0.002414
-0.050	-0.003481
-0.045	-0.004396
-0.040	-0.005218
-0.035	-0.005737
-0.030	-0.005776
-0.025	-0.005323
-0.020	-0.004352
-0.015	-0.002985
-0.010	-0.001279
-0.005	0.000602
0.000	0.002458
0.005	0.004219
0.010	0.005631
0.015	0.006500
0.020	0.006734
0.025	0.006267
0.030	0.005300
0.035	0.004057
0.040	0.002510
0.045	0.000888
0.050	-0.000715
0.055	-0.002132
0.060	-0.003189
0.065	-0.003800
0.070	-0.004137
0.075	-0.004151
0.080	-0.003904
0.085	-0.003410
0.090	-0.002792
0.095	-0.002318
0.100	-0.002015
0.105	-0.001789
0.110	-0.001603
0.115	-0.001521
0.120	-0.001431
0.125	-0.001431
0.130	-0.001438
0.135	-0.001555
0.140	-0.001603
0.145	-0.001693
0.150	-0.001892
0.155	-0.001947
0.160	-0.002057
0.165	-0.002160
0.170	-0.002311
0.175	-0.002372
0.180	-0.002359
0.185	-0.002360
0.190	-0.002401
0.195	-0.002518
0.200	-0.002703
0.205	-0.002806
0.210	-0.002950
0.215	-0.003053
0.220	-0.003081
0.225	-0.003136
0.230	-0.003205
0.235	-0.003239
0.240	-0.003329
0.245	-0.003364
0.250	-0.003440
0.255	-0.003536
0.260	-0.003611
0.265	-0.003748
0.270	-0.003823
0.275	-0.003885
0.280	-0.003967
0.285	-0.004029
0.290	-0.004138
0.295	-0.004180
0.300	-0.004228
0.305	-0.004289
0.310	-0.004385
0.315	-0.004434
0.320	-0.004523
0.325	-0.004571
0.330	-0.004659
0.335	-0.004735
0.340	-0.004757
0.345	-0.004813
0.350	-0.004834
0.355	-0.004877
0.360	-0.004966
0.365	-0.004994
0.370	-0.005083
0.375	-0.005165
0.380	-0.005241
0.385	-0.005289
0.390	-0.005426
0.395	-0.005514
0.400	-0.005588
0.405	-0.005609
0.410	-0.005691
0.415	-0.005671
0.420	-0.005733
0.425	-0.005789
0.430	-0.005815
0.435	-0.005843
0.440	-0.005870
0.445	-0.005953
0.450	-0.005988
0.455	-0.006023
0.460	-0.006049
0.465	-0.006090
0.470	-0.006157
0.475	-0.006199
0.480	-0.006213
0.485	-0.006241
0.490	-0.006275
0.495	-0.006365
0.500	-0.006406
0.505	-0.006440
0.510	-0.006544
0.515	-0.006608
0.520	-0.006692
0.525	-0.006751
0.530	-0.006880
0.535	-0.006922
0.540	-0.006983
0.545	-0.007079
0.550	-0.007180
0.555	-0.007193
0.560	-0.007260
0.565	-0.007294
0.570	-0.007396
0.575	-0.007486
0.580	-0.007571
0.585	-0.007609
0.590	-0.007639
0.595	-0.007646
0.600	-0.007648
0.605	-0.007746
0.610	-0.007761
0.615	-0.007810
0.620	-0.007893
0.625	-0.007908
0.630	-0.007984
0.635	-0.008038
0.640	-0.008043
0.645	-0.008113
0.650	-0.008148
0.655	-0.008195
0.660	-0.008267
0.665	-0.008279
0.670	-0.008332
0.675	-0.008378
0.680	-0.008440
0.685	-0.008460
0.690	-0.008516
0.695	-0.008579
0.700	-0.008635
0.705	-0.008657
0.710	-0.008754
0.715	-0.008813
0.720	-0.008897
0.725	-0.008999
0.730	-0.009080
0.735	-0.009231
0.740	-0.009381
0.745	-0.009516
0.750	-0.009638
0.755	-0.009774
0.760	-0.009897
0.765	-0.010048
0.770	-0.010157
0.775	-0.010336
0.780	-0.010475
0.785	-0.010552
0.790	-0.010590
0.795	-0.010679
0.800	-0.010756
0.805	-0.010780
0.810	-0.010810
0.815	-0.010832
0.820	-0.010861
0.825	-0.010823
0.830	-0.010798
0.835	-0.010786
0.840	-0.010747
0.845	-0.010769
0.850	-0.010793
0.855	-0.010843
0.860	-0.010817
0.865	-0.010864
0.870	-0.010903
0.875	-0.010997
0.880	-0.011084
0.885	-0.011117
0.890	-0.011198
0.895	-0.011259
0.900	-0.011393
0.905	-0.011462
0.910	-0.011496
0.915	-0.011609
0.920	-0.011659
0.925	-0.011744
0.930	-0.011832
0.935	-0.011907
0.940	-0.011984
0.945	-0.012007
0.950	-0.012084
0.955	-0.012165
0.960	-0.012281
0.965	-0.012365
0.970	-0.012412
0.975	-0.012413
0.980	-0.012442
0.985	-0.012479
0.990	-0.012577
0.995	-0.012648
1.000	-0.012644
1.005	-0.012690
1.010	-0.012759
1.015	-0.012855
1.020	-0.012822
1.025	-0.012837
1.030	-0.012941
1.035	-0.012977
1.040	-0.013020
1.045	-0.013023
1.050	-0.013179
1.055	-0.013242
1.060	-0.013301
1.065	-0.013372
1.070	-0.013470
1.075	-0.013627
1.080	-0.013690
1.085	-0.013823
1.090	-0.013977
1.095	-0.014129
1.100	-0.014205
1.105	-0.014237
1.110	-0.014335
1.115	-0.014389
1.120	-0.014431
1.125	-0.014390
1.130	-0.014356
1.135	-0.014314
1.140	-0.014221
1.145	-0.014097
1.150	-0.013933
1.155	-0.013875
1.160	-0.013843
1.165	-0.013840
1.170	-0.013805
1.175	-0.013777
1.180	-0.013847
1.185	-0.013878
1.190	-0.013998
1.195	-0.014052
1.200	-0.014147
1.205	-0.014271
1.210	-0.014340
1.215	-0.014418
1.220	-0.014518
1.225	-0.014636
1.230	-0.014713
1.235	-0.014721
1.240	-0.014684
1.245	-0.014643
1.250	-0.014670
1.255	-0.014721
1.260	-0.014814
1.265	-0.014864
1.270	-0.014891
1.275	-0.015007
1.280	-0.015091
1.285	-0.015176
1.290	-0.015271
1.295	-0.015360
1.300	-0.015375
1.305	-0.015452
1.310	-0.015554
1.315	-0.015663
1.320	-0.015700
1.325	-0.015701
1.330	-0.015765
1.335	-0.015847
1.340	-0.015924
1.345	-0.015927
1.350	-0.015941
1.355	-0.016033
1.360	-0.016121
1.365	-0.016198
1.370	-0.016235
1.375	-0.016223
1.380	-0.016215
1.385	-0.016170
1.390	-0.016134
1.395	-0.016006
1.400	-0.015940
1.405	-0.015854
1.410	-0.015784
1.415	-0.015653
1.420	-0.015461
1.425	-0.015428
1.430	-0.015466
1.435	-0.015589
1.440	-0.015844
1.445	-0.016131
1.450	-0.016384
1.455	-0.016573
1.460	-0.016815
1.465	-0.016894
1.470	-0.016853
1.475	-0.016881
1.480	-0.016979
1.485	-0.017016
1.490	-0.017135
1.495	-0.017227
1.500	-0.017324
1.505	-0.017313
1.510	-0.017374
1.515	-0.017525
1.520	-0.017721
1.525	-0.017791
1.530	-0.017889
1.535	-0.017954
1.540	-0.018018
1.545	-0.018033
1.550	-0.018096
1.555	-0.018177
1.560	-0.018291
1.565	-0.018349
1.570	-0.018435
1.575	-0.018543
1.580	-0.018583
1.585	-0.018610
1.590	-0.018592
1.595	-0.018558
1.600	-0.018505
1.605	-0.018375
1.610	-0.018304
1.615	-0.018219
1.620	-0.018097
1.625	-0.018059
1.630	-0.017988
1.635	-0.017934
1.640	-0.017977
1.645	-0.018026
1.650	-0.018120
1.655	-0.018236
1.660	-0.018277
1.665	-0.018330
1.670	-0.018402
1.675	-0.018400
1.680	-0.018374
1.685	-0.018343
1.690	-0.018335
1.695	-0.018351
1.700	-0.018303
1.705	-0.018346
1.710	-0.018442
1.715	-0.018755
1.720	-0.019028
1.725	-0.019331
1.730	-0.019549
1.735	-0.019591
1.740	-0.019453
1.745	-0.019198
1.750	-0.018801
1.755	-0.018488
1.760	-0.018465
1.765	-0.018839
1.770	-0.019435
1.775	-0.019559
1.780	-0.019239
1.785	-0.019033
1.790	-0.019142
1.795	-0.019499
1.800	-0.019432
1.805	-0.018968
1.810	-0.018422
1.815	-0.018170
1.820	-0.018155
1.825	-0.018274
1.830	-0.018440
1.835	-0.018602
1.840	-0.018765
1.845	-0.018844
1.850	-0.018938
1.855	-0.019007
1.860	-0.019109
1.865	-0.019204
1.870	-0.019299
1.875	-0.019325
1.880	-0.019227
1.885	-0.019094
1.890	-0.019052
1.895	-0.019104
1.900	-0.019156
1.905	-0.019240
1.910	-0.019352
1.915	-0.019490
1.920	-0.019483
1.925	-0.019579
1.930	-0.019711
1.935	-0.019886
1.940	-0.020002
1.945	-0.020020
1.950	-0.019995
1.955	-0.019965
1.960	-0.019980
1.965	-0.020011
1.970	-0.019945
1.975	-0.019852
1.980	-0.019781
1.985	-0.019777
1.990	-0.019825
1.995	-0.019808
2.000	-0.019791
2.005	-0.019754
2.010	-0.019693
2.015	-0.019601
2.020	-0.019535
2.025	-0.019615
2.030	-0.019739
2.035	-0.019869
2.040	-0.019884
2.045	-0.019836
2.050	-0.019869
2.055	-0.019944
2.060	-0.020018
2.065	-0.019975
2.070	-0.020016
2.075	-0.020017
2.080	-0.020016
2.085	-0.020022
2.090	-0.020058
2.095	-0.020153
2.100	-0.020254
2.105	-0.020232
2.110	-0.020072
2.115	-0.019931
2.120	-0.019728
2.125	-0.019644
2.130	-0.019616
2.135	-0.019557
2.140	-0.019495
2.145	-0.019442
2.150	-0.019470
2.155	-0.019537
2.160	-0.019559
2.165	-0.019602
2.170	-0.019466
2.175	-0.019315
2.180	-0.019367
2.185	-0.019589
2.190	-0.019676
2.195	-0.019628
2.200	-0.019427
2.205	-0.019385
2.210	-0.019378
2.215	-0.019360
2.220	-0.019227
2.225	-0.019147
2.230	-0.019156
2.235	-0.019327
2.240	-0.019573
2.245	-0.019755
2.250	-0.019613
2.255	-0.019394
2.260	-0.019292
2.265	-0.019398
2.270	-0.019526
2.275	-0.019463
2.280	-0.019299
2.285	-0.019257
2.290	-0.019254
2.295	-0.019198
2.300	-0.019250
2.305	-0.019382
2.310	-0.019569
2.315	-0.019628
2.320	-0.019603
2.325	-0.019689
2.330	-0.019823
2.335	-0.019983
2.340	-0.020148
2.345	-0.020119
2.350	-0.019984
2.355	-0.019916
2.360	-0.019916
2.365	-0.019980
2.370	-0.019998
2.375	-0.019975
2.380	-0.019868
2.385	-0.019800
2.390	-0.019767
2.395	-0.019614
2.400	-0.019376
2.405	-0.019225
2.410	-0.019116
2.415	-0.019022
2.420	-0.018945
2.425	-0.018911
2.430	-0.018935
2.435	-0.018978
2.440	-0.018963
2.445	-0.018918
2.450	-0.018855
2.455	-0.018753
2.460	-0.018731
2.465	-0.018753
2.470	-0.018796
2.475	-0.018690
2.480	-0.018546
2.485	-0.018496
2.490	-0.018489
2.495	-0.018463
2.500	-0.018415
2.505	-0.018481
2.510	-0.018623
2.515	-0.018721
2.520	-0.018737
2.525	-0.018578
2.530	-0.018460
2.535	-0.018460
2.540	-0.018487
2.545	-0.018498
2.550	-0.018419
2.555	-0.018376
2.560	-0.018311
2.565	-0.018250
2.570	-0.018254
2.575	-0.018183
2.580	-0.018113
2.585	-0.018001
2.590	-0.017992
2.595	-0.018009
2.600	-0.018047
2.605	-0.017982
2.610	-0.017926
2.615	-0.018001
2.620	-0.018136
2.625	-0.018226
2.630	-0.018198
2.635	-0.018204
2.640	-0.018003
2.645	-0.017876
2.650	-0.017806
2.655	-0.017790
2.660	-0.017749
2.665	-0.017663
2.670	-0.017589
2.675	-0.017431
2.680	-0.017291
2.685	-0.017105
2.690	-0.016946
2.695	-0.016841
2.700	-0.016764
2.705	-0.016763
2.710	-0.016733
2.715	-0.016682
2.720	-0.016617
2.725	-0.016462
2.730	-0.016347
2.735	-0.016162
2.740	-0.015969
2.745	-0.015882
2.750	-0.015828
2.755	-0.015765
2.760	-0.015744
2.765	-0.015702
2.770	-0.015601
2.775	-0.015671
2.780	-0.015767
2.785	-0.015782
2.790	-0.015585
2.795	-0.015475
2.800	-0.015507
2.805	-0.015518
2.810	-0.015548
2.815	-0.015547
2.820	-0.015563
2.825	-0.015539
2.830	-0.015562
2.835	-0.015412
2.840	-0.015321
2.845	-0.015191
2.850	-0.015143
2.855	-0.015145
2.860	-0.015135
2.865	-0.015104
2.870	-0.015020
2.875	-0.014827
2.880	-0.014638
2.885	-0.014502
2.890	-0.014446
2.895	-0.014390
2.900	-0.014290
2.905	-0.014171
2.910	-0.014129
2.915	-0.014062
2.920	-0.014106
2.925	-0.014083
2.930	-0.014024
2.935	-0.013853
2.940	-0.013649
2.945	-0.013453
2.950	-0.013265
2.955	-0.013151
2.960	-0.013031
2.965	-0.012984
2.970	-0.012914
2.975	-0.012845
2.980	-0.012785
2.985	-0.012720
2.990	-0.012710
2.995	-0.012709
3.000	-0.012617
3.005	-0.012535
3.010	-0.012376
3.015	-0.012231
3.020	-0.012154
3.025	-0.012145
3.030	-0.012029
3.035	-0.011938
3.040	-0.011915
3.045	-0.011858
3.050	-0.011695
3.055	-0.011529
3.060	-0.011472
3.065	-0.011452
3.070	-0.011416
3.075	-0.011388
3.080	-0.011412
3.085	-0.011355
3.090	-0.011214
3.095	-0.011076
3.100	-0.011041
3.105	-0.011014
3.110	-0.010942
3.115	-0.010843
3.120	-0.010743
3.125	-0.010663
3.130	-0.010559
3.135	-0.010462
3.140	-0.010450
3.145	-0.010362
3.150	-0.010316
3.155	-0.010188
3.160	-0.010120
3.165	-0.009994
3.170	-0.009886
3.175	-0.009802
3.180	-0.009715
3.185	-0.009567
3.190	-0.009443
3.195	-0.009324
3.200	-0.009234
3.205	-0.009110
3.210	-0.008972
3.215	-0.008833
3.220	-0.008752
3.225	-0.008753
3.230	-0.008754
3.235	-0.008822
3.240	-0.008833
3.245	-0.008812
3.250	-0.008772
3.255	-0.008731
3.260	-0.008764
3.265	-0.008902
3.270	-0.009026
3.275	-0.008944
3.280	-0.008869
3.285	-0.008953
3.290	-0.009229
3.295	-0.009524
3.300	-0.009874
3.305	-0.010246
3.310	-0.010561
3.315	-0.010909
3.320	-0.011079
3.325	-0.011139
3.330	-0.011061
3.335	-0.010817
3.340	-0.010676
3.345	-0.010372
3.350	-0.009663
3.355	-0.008949
3.360	-0.008157
3.365	-0.007205
3.370	-0.006122
3.375	-0.004703
3.380	-0.003185
3.385	-0.001872
3.390	-0.000946
3.395	-0.000377
3.400	-0.000115
3.405	-0.000018
3.410	-0.000093
3.415	-0.000237
3.420	-0.000374
3.425	-0.000478
3.430	-0.000533
3.435	-0.000560
3.440	-0.000540
3.445	-0.000512
3.450	-0.000388
3.455	-0.000141
3.460	0.000133
3.465	0.000497
3.470	0.000840
3.475	0.001225
3.480	0.001692
3.485	0.002310
3.490	0.002927
3.495	0.003580
3.500	0.004196
3.505	0.004875
3.510	0.005557
3.515	0.006214
3.520	0.006791
3.525	0.007393
3.530	0.007988
3.535	0.008515
3.540	0.009020
3.545	0.009446
3.550	0.009859
3.555	0.010209
3.560	0.010594
3.565	0.010863
3.570	0.011115
3.575	0.011383
3.580	0.011610
3.585	0.011734
3.590	0.011877
3.595	0.012010
3.600	0.012192
3.605	0.012352
3.610	0.012483
3.615	0.012546
3.620	0.012636
3.625	0.012753
3.630	0.012897
3.635	0.013021
3.640	0.013179
3.645	0.013307
3.650	0.013392
3.655	0.013539
3.660	0.013692
3.665	0.013796
3.670	0.013887
3.675	0.014052
3.680	0.014183
3.685	0.014355
3.690	0.014513
3.695	0.014658
3.700	0.014796
3.705	0.014981
3.710	0.015078
3.715	0.015275
3.720	0.015423
3.725	0.015620
3.730	0.015783
3.735	0.015995
3.740	0.016164
3.745	0.016346
3.750	0.016512
3.755	0.016752
3.760	0.017003
3.765	0.017214
3.770	0.017402
3.775	0.017600
3.780	0.017801
3.785	0.018099
3.790	0.018351
3.795	0.018647
3.800	0.018915
3.805	0.019175
3.810	0.019475
3.815	0.019776
3.820	0.020065
3.825	0.020366
3.830	0.020681
3.835	0.021051
3.840	0.021349
3.845	0.021718
3.850	0.022074
3.855	0.022461
3.860	0.022832
3.865	0.023215
3.870	0.023560
3.875	0.024009
3.880	0.024408
3.885	0.024817
3.890	0.025238
3.895	0.025709
3.900	0.026192
3.905	0.026704
3.910	0.027213
3.915	0.027720
3.920	0.028315
3.925	0.028951
3.930	0.029635
3.935	0.030321
3.940	0.031054
3.945	0.031868
3.950	0.032763
3.955	0.033742
3.960	0.034824
3.965	0.036062
3.970	0.037376
3.975	0.038895
3.980	0.040537
3.985	0.042409
3.990	0.044500
3.995	0.046852
4.000	0.049436
4.005	0.052186
4.010	0.054992
4.015	0.057719
4.020	0.060311
4.025	0.062451
4.030	0.064196
4.035	0.065327
4.040	0.065782
4.045	0.065394
4.050	0.063947
4.055	0.061421
4.060	0.057933
4.065	0.053139
4.070	0.046942
4.075	0.039447
4.080	0.031083
4.085	0.022617
4.090	0.014626
4.095	0.007722
4.100	0.002427
4.105	-0.001332
4.110	-0.003775
4.115	-0.005275
4.120	-0.006161
4.125	-0.006751
4.130	-0.007123
4.135	-0.007426
4.140	-0.007667
4.145	-0.007909
4.150	-0.008060
4.155	-0.008204
4.160	-0.008347
4.165	-0.008457
4.170	-0.008586
4.175	-0.008601
4.180	-0.008679
4.185	-0.008653
4.190	-0.008645
4.195	-0.008653
4.200	-0.008679
4.205	-0.008713
4.210	-0.008787
4.215	-0.008862
4.220	-0.008862
4.225	-0.008836
4.230	-0.008844
4.235	-0.008783
4.240	-0.008796
4.245	-0.008854
4.250	-0.008868
4.255	-0.008880
4.260	-0.008975
4.265	-0.009003
4.270	-0.009038
4.275	-0.009031
4.280	-0.009051
4.285	-0.009051
4.290	-0.009113
4.295	-0.009168
4.300	-0.009202
4.305	-0.009216
4.310	-0.009280
4.315	-0.009288
4.320	-0.009376
4.325	-0.009414
4.330	-0.009472
4.335	-0.009494
4.340	-0.009522
4.345	-0.009529
4.350	-0.009489
4.355	-0.009499
4.360	-0.009492
4.365	-0.009470
4.370	-0.009529
4.375	-0.009591
4.380	-0.009668
4.385	-0.009711
4.390	-0.009764
4.395	-0.009716
4.400	-0.009758
4.405	-0.009785
4.410	-0.009872
4.415	-0.009998
4.420	-0.010075
4.425	-0.010124
4.430	-0.010165
4.435	-0.010246
4.440	-0.010249
4.445	-0.010278
4.450	-0.010265
4.455	-0.010284
4.460	-0.010269
4.465	-0.010284
4.470	-0.010284
4.475	-0.010285
4.480	-0.010375
4.485	-0.010458
4.490	-0.010504
4.495	-0.010573
4.500	-0.010682
4.505	-0.010746
4.510	-0.010837
4.515	-0.010839
4.520	-0.010838
4.525	-0.010871
4.530	-0.011002
4.535	-0.011070
4.540	-0.011103
4.545	-0.011130
4.550	-0.011173
4.555	-0.011207
4.560	-0.011226
4.565	-0.011287
4.570	-0.011340
4.575	-0.011383
4.580	-0.011420
4.585	-0.011450
4.590	-0.011475
4.595	-0.011544
4.600	-0.011546
4.605	-0.011517
4.610	-0.011543
4.615	-0.011585
4.620	-0.011555
4.625	-0.011547
4.630	-0.011574
4.635	-0.011679
4.640	-0.011797
4.645	-0.011987
4.650	-0.012084
4.655	-0.012199
4.660	-0.012287
4.665	-0.012460
4.670	-0.012549
4.675	-0.012649
4.680	-0.012725
4.685	-0.012732
4.690	-0.012731
4.695	-0.012649
4.700	-0.012647
4.705	-0.012723
4.710	-0.012677
4.715	-0.012750
4.720	-0.012850
4.725	-0.012922
4.730	-0.012977
4.735	-0.012999
4.740	-0.012830
4.745	-0.012564
4.750	-0.012815
4.755	-0.013734
4.760	-0.014229
4.765	-0.013963
4.770	-0.013685
4.775	-0.013654
4.780	-0.013717
4.785	-0.013870
4.790	-0.014038
4.795	-0.014113
4.800	-0.014206
4.805	-0.014296
4.810	-0.014343
4.815	-0.014426
4.820	-0.014548
4.825	-0.014658
4.830	-0.014806
4.835	-0.014849
4.840	-0.014915
4.845	-0.014953
4.850	-0.015050
4.855	-0.015108
4.860	-0.015151
4.865	-0.015110
4.870	-0.015155
4.875	-0.015257
4.880	-0.015295
4.885	-0.015352
4.890	-0.015421
4.895	-0.015491
4.900	-0.015636
4.905	-0.015705
4.910	-0.015759
4.915	-0.015845
4.920	-0.015914
4.925	-0.016040
4.930	-0.016171
4.935	-0.016262
4.940	-0.016354
4.945	-0.016518
4.950	-0.016679
4.955	-0.016920
4.960	-0.017109
4.965	-0.017273
4.970	-0.017429
4.975	-0.017550
4.980	-0.017575
4.985	-0.017769
4.990	-0.018041
4.995	-0.018260
5.000	-0.018387
5.005	-0.018445
5.010	-0.018550
5.015	-0.018657
5.020	-0.018826
5.025	-0.019025
5.030	-0.019192
5.035	-0.019419
5.040	-0.019611
5.045	-0.019776
5.050	-0.019951
5.055	-0.020165
5.060	-0.020450
5.065	-0.020708
5.070	-0.020900
5.075	-0.021022
5.080	-0.021185
5.085	-0.021308
5.090	-0.021507
5.095	-0.021700
5.100	-0.021899
5.105	-0.022138
5.110	-0.022396
5.115	-0.022627
5.120	-0.022949
5.125	-0.023247
5.130	-0.023467
5.135	-0.023754
5.140	-0.023938
5.145	-0.024131
5.150	-0.024426
5.155	-0.024744
5.160	-0.025187
5.165	-0.025595
5.170	-0.025978
5.175	-0.026459
5.180	-0.026912
5.185	-0.027322
5.190	-0.027773
5.195	-0.028272
5.200	-0.028782
5.205	-0.029281
5.210	-0.029765
5.215	-0.030314
5.220	-0.030892
5.225	-0.031537
5.230	-0.032182
5.235	-0.032786
5.240	-0.033432
5.245	-0.034217
5.250	-0.035021
5.255	-0.035900
5.260	-0.036859
5.265	-0.037813
5.270	-0.038861
5.275	-0.039976
5.280	-0.041213
5.285	-0.042702
5.290	-0.044372
5.295	-0.046374
5.300	-0.048608
5.305	-0.051218
5.310	-0.053829
5.315	-0.056685
5.320	-0.059291
5.325	-0.061760
5.330	-0.063748
5.335	-0.064903
5.340	-0.065912
5.345	-0.066030
5.350	-0.065180
5.355	-0.064014
5.360	-0.061606
5.365	-0.057260
5.370	-0.052394
5.375	-0.047439
5.380	-0.041133
5.385	-0.032575
5.390	-0.022750
5.395	-0.013869
5.400	-0.007308
5.405	-0.003140
5.410	-0.000721
5.415	0.000487
5.420	0.001050
5.425	0.001222
5.430	0.001290
5.435	0.001372
5.440	0.001386
5.445	0.001415
5.450	0.001394
5.455	0.001380
5.460	0.001379
5.465	0.001317
5.470	0.001325
5.475	0.001332
5.480	0.001352
5.485	0.001339
5.490	0.001332
5.495	0.001297
5.500	0.001297
5.505	0.001304
5.510	0.001291
5.515	0.001291
5.520	0.001298
5.525	0.001263
5.530	0.001290
5.535	0.001263
5.540	0.001304
5.545	0.001276
5.550	0.001283
5.555	0.001276
5.560	0.001263
5.565	0.001256
5.570	0.001270
5.575	0.001236
5.580	0.001244
5.585	0.001237
5.590	0.001202
5.595	0.001250
5.600	0.001263
5.605	0.001277
5.610	0.001291
5.615	0.001326
5.620	0.001380
5.625	0.001408
5.630	0.001462
5.635	0.001585
5.640	0.001634
5.645	0.001779
5.650	0.001862
5.655	0.002018
5.660	0.002162
5.665	0.002278
5.670	0.002450
5.675	0.002546
5.680	0.002635
5.685	0.002738
5.690	0.002841
5.695	0.002848
5.700	0.002883
5.705	0.002849
5.710	0.002781
5.715	0.002755
5.720	0.002602
5.725	0.002519
5.730	0.002437
5.735	0.002293
5.740	0.002176
5.745	0.002107
5.750	0.001991
5.755	0.001875
5.760	0.001833
5.765	0.001757
5.770	0.001695
5.775	0.001626
5.780	0.001599
5.785	0.001566
5.790	0.001496
5.795	0.001558
5.800	0.001523
5.805	0.001524
5.810	0.001537
5.815	0.001537
5.820	0.001509
5.825	0.001502
5.830	0.001523
5.835	0.001516
5.840	0.001531
5.845	0.001525
5.850	0.001532
5.855	0.001531
5.860	0.001544
5.865	0.001530
5.870	0.001579
5.875	0.001551
5.880	0.001544
5.885	0.001565
5.890	0.001579
5.895	0.001551
5.900	0.001599
5.905	0.001585
5.910	0.001593
5.915	0.001607
5.920	0.001606
5.925	0.001606
5.930	0.001606
5.935	0.001640
5.940	0.001626
5.945	0.001654
5.950	0.001661
5.955	0.001675
5.960	0.001674
5.965	0.001682
5.970	0.001709
5.975	0.001717
5.980	0.001745
5.985	0.001717
5.990	0.001709
5.995	0.001703
6.000	0.001744
6.005	0.001724
6.010	0.001765
6.015	0.001751
6.020	0.001737
6.025	0.001737
6.030	0.001771
6.035	0.001771
6.040	0.001765
6.045	0.001765
6.050	0.001752
6.055	0.001737
6.060	0.001771
6.065	0.001772
6.070	0.001792
6.075	0.001758
6.080	0.001779
6.085	0.001773
6.090	0.001793
6.095	0.001785
6.100	0.001799
6.105	0.001786
6.110	0.001787
6.115	0.001808
6.120	0.001800
6.125	0.001800
6.130	0.001814
6.135	0.001834
6.140	0.001841
6.145	0.001815
6.150	0.001849
6.155	0.001856
6.160	0.001841
6.165	0.001855
6.170	0.001848
6.175	0.001863
6.180	0.001836
6.185	0.001849
6.190	0.001861
6.195	0.001841
6.200	0.001848
6.205	0.001869
6.210	0.001855
6.215	0.001862
6.220	0.001875
6.225	0.001875
6.230	0.001861
6.235	0.001875
6.240	0.001883
6.245	0.001870
6.250	0.001891
6.255	0.001917
6.260	0.001876
6.265	0.001917
6.270	0.001910
6.275	0.001889
6.280	0.001937
6.285	0.001924
6.290	0.001930
6.295	0.001944
6.300	0.001936
6.305	0.001943
6.310	0.001910
6.315	0.001931
6.320	0.001958
6.325	0.001916
6.330	0.001937
6.335	0.001943
6.340	0.001936
6.345	0.001978
6.350	0.001970
6.355	0.001963
6.360	0.001970
6.365	0.001970
6.370	0.001963
6.375	0.001985
6.380	0.001979
6.385	0.001998
6.390	0.001990
6.395	0.001963
6.400	0.001997
6.405	0.002004
6.410	0.001997
6.415	0.001990
6.420	0.001996
6.425	0.002010
6.430	0.002023
6.435	0.002003
6.440	0.001975
6.445	0.002010
6.450	0.001997
6.455	0.002002
6.460	0.002009
6.465	0.002009
6.470	0.002001
6.475	0.002009
6.480	0.002029
6.485	0.002035
6.490	0.002049
6.495	0.002056
6.500	0.002049
6.505	0.002035
6.510	0.002078
6.515	0.002037
6.520	0.002063
6.525	0.002042
6.530	0.002028
6.535	0.002069
6.540	0.002035
6.545	0.002069
6.550	0.002083
6.555	0.002069
6.560	0.002104
6.565	0.002095
6.570	0.002082
6.575	0.002096
6.580	0.002097
6.585	0.002124
6.590	0.002109
6.595	0.002054
6.600	0.002087
6.605	0.002094
6.610	0.002101
6.615	0.002109
6.620	0.002108
6.625	0.002136
6.630	0.002122
6.635	0.002122
6.640	0.002171
6.645	0.002144
6.650	0.002144
6.655	0.002143
6.660	0.002149
6.665	0.002143
6.670	0.002150
6.675	0.002204
6.680	0.002197
6.685	0.002232
6.690	0.002218
6.695	0.002190
6.700	0.002224
6.705	0.002231
6.710	0.002233
6.715	0.002234
6.720	0.002239
6.725	0.002218
6.730	0.002265
6.735	0.002272
6.740	0.002279
6.745	0.002286
6.750	0.002279
6.755	0.002273
6.760	0.002293
6.765	0.002300
6.770	0.002273
6.775	0.002302
6.780	0.002295
6.785	0.002308
6.790	0.002286
6.795	0.002293
6.800	0.002279
6.805	0.002251
6.810	0.002299
6.815	0.002305
6.820	0.002285
6.825	0.002271
6.830	0.002250
6.835	0.002250
6.840	0.002264
6.845	0.002224
6.850	0.002210
6.855	0.002236
6.860	0.002221
6.865	0.002241
6.870	0.002200
6.875	0.002254
6.880	0.002247
6.885	0.002247
6.890	0.002288
6.895	0.002247
6.900	0.002247
6.905	0.002247
6.910	0.002241
6.915	0.002262
6.920	0.002247
6.925	0.002253
6.930	0.002240
6.935	0.002254
6.940	0.002274
6.945	0.002288
6.950	0.002308
6.955	0.002302
6.960	0.002288
6.965	0.002294
6.970	0.002280
6.975	0.002281
6.980	0.002302
6.985	0.002296
6.990	0.002287
6.995	0.002343
7.000	0.002349
7.005	0.002328
7.010	0.002356
7.015	0.002356
7.020	0.002335
7.025	0.002390
7.030	0.002363
7.035	0.002363
7.040	0.002385
7.045	0.002392
7.050	0.002378
7.055	0.002370
7.060	0.002391
7.065	0.002391
7.070	0.002412
7.075	0.002420
7.080	0.002419
7.085	0.002426
7.090	0.002419
7.095	0.002440
7.100	0.002412
7.105	0.002419
7.110	0.002435
7.115	0.002422
7.120	0.002421
7.125	0.002454
7.130	0.002475
7.135	0.002483
7.140	0.002489
7.145	0.002483
7.150	0.002482
7.155	0.002496
7.160	0.002496
7.165	0.002490
7.170	0.002511
7.175	0.002539
7.180	0.002520
7.185	0.002512
7.190	0.002497
7.195	0.002525
7.200	0.002538
7.205	0.002518
7.210	0.002518
7.215	0.002546
7.220	0.002490
7.225	0.002504
7.230	0.002504
7.235	0.002524
7.240	0.002498
7.245	0.002513
7.250	0.002506
7.255	0.002539
7.260	0.002532
7.265	0.002526
7.270	0.002553
7.275	0.002547
7.280	0.002568
7.285	0.002568
7.290	0.002575
7.295	0.002574
7.300	0.002588
7.305	0.002602
7.310	0.002590
7.315	0.002632
7.320	0.002643
7.325	0.002657
7.330	0.002616
7.335	0.002651
7.340	0.002659
7.345	0.002686
7.350	0.002699
7.355	0.002699
7.360	0.002699
7.365	0.002698
7.370	0.002670
7.375	0.002706
7.380	0.002727
7.385	0.002692
7.390	0.002725
7.395	0.002732
7.400	0.002753
7.405	0.002760
7.410	0.002760
7.415	0.002774
7.420	0.002787
7.425	0.002774
7.430	0.002766
7.435	0.002781
7.440	0.002816
7.445	0.002831
7.450	0.002823
7.455	0.002822
7.460	0.002836
7.465	0.002836
7.470	0.002836
7.475	0.002891
7.480	0.002878
7.485	0.002898
7.490	0.002898
7.495	0.002897
7.500	0.002876
7.505	0.002925
7.510	0.002912
7.515	0.002913
7.520	0.002925
7.525	0.002938
7.530	0.002958
7.535	0.002945
7.540	0.002959
7.545	0.002966
7.550	0.002959
7.555	0.002979
7.560	0.002972
7.565	0.002979
7.570	0.002965
7.575	0.002966
7.580	0.003029
7.585	0.002987
7.590	0.002999
7.595	0.002979
7.600	0.003013
7.605	0.003020
7.610	0.003041
7.615	0.003040
7.620	0.003061
7.625	0.003074
7.630	0.003081
7.635	0.003088
7.640	0.003075
7.645	0.003082
7.650	0.003089
7.655	0.003108
7.660	0.003101
7.665	0.003135
7.670	0.003141
7.675	0.003121
7.680	0.003156
7.685	0.003176
7.690	0.003141
7.695	0.003189
7.700	0.003168
7.705	0.003190
7.710	0.003197
7.715	0.003184
7.720	0.003224
7.725	0.003196
7.730	0.003216
7.735	0.003195
7.740	0.003223
7.745	0.003236
7.750	0.003264
7.755	0.003263
7.760	0.003270
7.765	0.003291
7.770	0.003270
7.775	0.003278
7.780	0.003320
7.785	0.003305
7.790	0.003303
7.795	0.003324
7.800	0.003338
7.805	0.003345
7.810	0.003379
7.815	0.003407
7.820	0.003365
7.825	0.003406
7.830	0.003371
7.835	0.003440
7.840	0.003407
7.845	0.003381
7.850	0.003408
7.855	0.003461
7.860	0.003413
7.865	0.003476
7.870	0.003461
7.875	0.003482
7.880	0.003482
7.885	0.003516
7.890	0.003503
7.895	0.003530
7.900	0.003529
7.905	0.003537
7.910	0.003545
7.915	0.003546
7.920	0.003577
7.925	0.003570
7.930	0.003570
7.935	0.003577
7.940	0.003619
7.945	0.003598
7.950	0.003632
7.955	0.003604
7.960	0.003673
7.965	0.003680
7.970	0.003666
7.975	0.003675
7.980	0.003675
7.985	0.003694
7.990	0.003665
7.995	0.003707
8.000	0.003707
8.005	0.003721
8.010	0.003776
8.015	0.003727
8.020	0.003769
8.025	0.003769
8.030	0.003783
8.035	0.003809
8.040	0.003832
8.045	0.003840
8.050	0.003846
8.055	0.003837
8.060	0.003864
8.065	0.003884
8.070	0.003911
8.075	0.003904
8.080	0.003939
8.085	0.003925
8.090	0.003965
8.095	0.003966
8.100	0.003985
8.105	0.003987
8.110	0.003960
8.115	0.003988
8.120	0.004020
8.125	0.004013
8.130	0.004007
8.135	0.004027
8.140	0.004054
8.145	0.004061
8.150	0.004095
8.155	0.004089
8.160	0.004115
8.165	0.004136
8.170	0.004156
8.175	0.004158
8.180	0.004180
8.185	0.004178
8.190	0.004170
8.195	0.004217
8.200	0.004183
8.205	0.004252
8.210	0.004245
8.215	0.004266
8.220	0.004280
8.225	0.004314
8.230	0.004328
8.235	0.004349
8.240	0.004351
8.245	0.004333
8.250	0.004366
8.255	0.004385
8.260	0.004385
8.265	0.004406
8.270	0.004461
8.275	0.004459
8.280	0.004500
8.285	0.004514
8.290	0.004520
8.295	0.004548
8.300	0.004533
8.305	0.004569
8.310	0.004571
8.315	0.004600
8.320	0.004611
8.325	0.004646
8.330	0.004660
8.335	0.004674
8.340	0.004688
8.345	0.004709
8.350	0.004728
8.355	0.004748
8.360	0.004776
8.365	0.004776
8.370	0.004804
8.375	0.004799
8.380	0.004827
8.385	0.004826
8.390	0.004866
8.395	0.004847
8.400	0.004909
8.405	0.004917
8.410	0.004938
8.415	0.004987
8.420	0.004966
8.425	0.004974
8.430	0.005002
8.435	0.005015
8.440	0.005053
8.445	0.005047
8.450	0.005075
8.455	0.005074
8.460	0.005101
8.465	0.005115
8.470	0.005170
8.475	0.005171
8.480	0.005192
8.485	0.005247
8.490	0.005248
8.495	0.005263
8.500	0.005311
8.505	0.005314
8.510	0.005323
8.515	0.005345
8.520	0.005342
8.525	0.005385
8.530	0.005392
8.535	0.005400
8.540	0.005451
8.545	0.005472
8.550	0.005511
8.555	0.005509
8.560	0.005534
8.565	0.005573
8.570	0.005580
8.575	0.005609
8.580	0.005657
8.585	0.005655
8.590	0.005667
8.595	0.005723
8.600	0.005730
8.605	0.005759
8.610	0.005833
8.615	0.005828
8.620	0.005842
8.625	0.005897
8.630	0.005917
8.635	0.005930
8.640	0.005980
8.645	0.005996
8.650	0.006021
8.655	0.006096
8.660	0.006096
8.665	0.006117
8.670	0.006165
8.675	0.006220
8.680	0.006207
8.685	0.006262
8.690	0.006276
8.695	0.006326
8.700	0.006345
8.705	0.006362
8.710	0.006440
8.715	0.006448
8.720	0.006446
8.725	0.006475
8.730	0.006504
8.735	0.006592
8.740	0.006540
8.745	0.006479
8.750	0.006475
8.755	0.006593
8.760	0.006710
8.765	0.006784
8.770	0.006810
8.775	0.006847
8.780	0.006887
8.785	0.006939
8.790	0.006973
8.795	0.007001
8.800	0.007030
8.805	0.007100
8.810	0.007149
8.815	0.007198
8.820	0.007255
8.825	0.007290
8.830	0.007311
8.835	0.007354
8.840	0.007396
8.845	0.007442
8.850	0.007475
8.855	0.007536
8.860	0.007579
8.865	0.007631
8.870	0.007658
8.875	0.007666
8.880	0.007719
8.885	0.007757
8.890	0.007841
8.895	0.007858
8.900	0.007873
8.905	0.007917
8.910	0.007927
8.915	0.007963
8.920	0.008017
8.925	0.008091
8.930	0.008160
8.935	0.008197
8.940	0.008276
8.945	0.008330
8.950	0.008397
8.955	0.008460
8.960	0.008488
8.965	0.008564
8.970	0.008597
8.975	0.008688
8.980	0.008716
8.985	0.008802
8.990	0.008862
8.995	0.008840
9.000	0.008360
9.005	0.007791
9.010	0.008439
9.015	0.009113
9.020	0.009275
9.025	0.009384
9.030	0.009480
9.035	0.009501
9.040	0.009587
9.045	0.009680
9.050	0.009748
9.055	0.009806
9.060	0.009933
9.065	0.009974
9.070	0.010100
9.075	0.010481
9.080	0.010418
9.085	0.009731
9.090	0.009224
9.095	0.009403
9.100	0.010054
9.105	0.010541
9.110	0.010778
9.115	0.010957
9.120	0.011075
9.125	0.011159
9.130	0.011351
9.135	0.011457
9.140	0.011405
9.145	0.011481
9.150	0.011682
9.155	0.011849
9.160	0.012005
9.165	0.012142
9.170	0.012274
9.175	0.012396
9.180	0.012508
9.185	0.012657
9.190	0.012827
9.195	0.012932
9.200	0.013131
9.205	0.013269
9.210	0.013454
9.215	0.013632
9.220	0.013816
9.225	0.014002
9.230	0.014198
9.235	0.014438
9.240	0.014612
9.245	0.014877
9.250	0.015059
9.255	0.015310
9.260	0.015570
9.265	0.015804
9.270	0.016087
9.275	0.016386
9.280	0.016654
9.285	0.016949
9.290	0.017265
9.295	0.017588
9.300	0.017939
9.305	0.018282
9.310	0.018656
9.315	0.019011
9.320	0.019392
9.325	0.019820
9.330	0.020244
9.335	0.020698
9.340	0.021130
9.345	0.021587
9.350	0.022033
9.355	0.022612
9.360	0.023326
9.365	0.024155
9.370	0.024966
9.375	0.025897
9.380	0.026939
9.385	0.028215
9.390	0.029797
9.395	0.031648
9.400	0.033871
9.405	0.036252
9.410	0.038868
9.415	0.041308
9.420	0.043508
9.425	0.045540
9.430	0.047052
9.435	0.048040
9.440	0.048730
9.445	0.048722
9.450	0.047822
9.455	0.046032
9.460	0.043572
9.465	0.040476
9.470	0.036233
9.475	0.030600
9.480	0.023742
9.485	0.016565
9.490	0.010235
9.495	0.005356
9.500	0.002113
9.505	0.000198
9.510	-0.000869
9.515	-0.001405
9.520	-0.001633
9.525	-0.001750
9.530	-0.001839
9.535	-0.001908
9.540	-0.001908
9.545	-0.001942
9.550	-0.001928
9.555	-0.001977
9.560	-0.001963
9.565	-0.001990
9.570	-0.001997
9.575	-0.002011
9.580	-0.002004
9.585	-0.002011
9.590	-0.001990
9.595	-0.002004
9.600	-0.002018
9.605	-0.001997
9.610	-0.002032
9.615	-0.001991
9.620	-0.002032
9.625	-0.002011
9.630	-0.002046
9.635	-0.002032
9.640	-0.002046
9.645	-0.002046
9.650	-0.002059
9.655	-0.002066
9.660	-0.002025
9.665	-0.002039
9.670	-0.002066
9.675	-0.002025
9.680	-0.002032
9.685	-0.002005
9.690	-0.002046
9.695	-0.002066
9.700	-0.002072
9.705	-0.002066
9.710	-0.002052
9.715	-0.002059
9.720	-0.002066
9.725	-0.002066
9.730	-0.002086
9.735	-0.002121
9.740	-0.002073
9.745	-0.002052
9.750	-0.002066
9.755	-0.002066
9.760	-0.002093
9.765	-0.002100
9.770	-0.002094
9.775	-0.002045
9.780	-0.002080
9.785	-0.002080
9.790	-0.002100
9.795	-0.002073
9.800	-0.002080
9.805	-0.002080
9.810	-0.002094
9.815	-0.002101
9.820	-0.002073
9.825	-0.002087
9.830	-0.002066
9.835	-0.002087
9.840	-0.002087
9.845	-0.002108
9.850	-0.002094
9.855	-0.002108
9.860	-0.002094
9.865	-0.002073
9.870	-0.002080
9.875	-0.002074
9.880	-0.002094
9.885	-0.002094
9.890	-0.002108
9.895	-0.002122
9.900	-0.002115
9.905	-0.002108
9.910	-0.002156
9.915	-0.002122
9.920	-0.002101
9.925	-0.002136
9.930	-0.002122
9.935	-0.002136
9.940	-0.002136
9.945	-0.002122
9.950	-0.002088
9.955	-0.002122
9.960	-0.002136
9.965	-0.002143
9.970	-0.002136
9.975	-0.002136
9.980	-0.002150
9.985	-0.002136
9.990	-0.002136
9.995	-0.002143
10.000	-0.002136
10.005	-0.002143
10.010	-0.002123
10.015	-0.002157
10.020	-0.002130
10.025	-0.002143
10.030	-0.002136
10.035	-0.002144
10.040	-0.002116
10.045	-0.002164
10.050	-0.002130
10.055	-0.002171
10.060	-0.002157
10.065	-0.002137
10.070	-0.002157
10.075	-0.002144
10.080	-0.002137
10.085	-0.002151
10.090	-0.002144
10.095	-0.002171
10.100	-0.002165
10.105	-0.002165
10.110	-0.002185
10.115	-0.002130
10.120	-0.002130
10.125	-0.002144
10.130	-0.002185
10.135	-0.002151
10.140	-0.002165
10.145	-0.002172
10.150	-0.002172
10.155	-0.002179
10.160	-0.002199
10.165	-0.002172
10.170	-0.002165
10.175	-0.002213
10.180	-0.002193
10.185	-0.002158
10.190	-0.002193
10.195	-0.002172
10.200	-0.002206
10.205	-0.002172
10.210	-0.002165
10.215	-0.002179
10.220	-0.002206
10.225	-0.002213
10.230	-0.002206
10.235	-0.002186
10.240	-0.002186
10.245	-0.002227
10.250	-0.002227
10.255	-0.002241
10.260	-0.002227
10.265	-0.002200
10.270	-0.002227
10.275	-0.002213
10.280	-0.002207
10.285	-0.002207
10.290	-0.002220
10.295	-0.002255
10.300	-0.002200
10.305	-0.002221
10.310	-0.002241
10.315	-0.002214
10.320	-0.002241
10.325	-0.002248
10.330	-0.002227
10.335	-0.002248
10.340	-0.002241
10.345	-0.002248
10.350	-0.002248
10.355	-0.002227
10.360	-0.002248
10.365	-0.002269
10.370	-0.002283
10.375	-0.002276
10.380	-0.002255
10.385	-0.002262
10.390	-0.002276
10.395	-0.002303
10.400	-0.002276
10.405	-0.002289
10.410	-0.002276
10.415	-0.002255
10.420	-0.002255
10.425	-0.002269
10.430	-0.002283
10.435	-0.002283
10.440	-0.002276
10.445	-0.002283
10.450	-0.002303
10.455	-0.002317
10.460	-0.002296
10.465	-0.002290
10.470	-0.002297
10.475	-0.002296
10.480	-0.002303
10.485	-0.002269
10.490	-0.002303
10.495	-0.002317
10.500	-0.002276
10.505	-0.002310
10.510	-0.002317
10.515	-0.002338
10.520	-0.002331
10.525	-0.002324
10.530	-0.002324
10.535	-0.002331
10.540	-0.002324
10.545	-0.002310
10.550	-0.002331
10.555	-0.002338
10.560	-0.002317
10.565	-0.002359
10.570	-0.002331
10.575	-0.002352
10.580	-0.002338
10.585	-0.002331
10.590	-0.002379
10.595	-0.002338
10.600	-0.002331
10.605	-0.002352
10.610	-0.002324
10.615	-0.002352
10.620	-0.002352
10.625	-0.002338
10.630	-0.002345
10.635	-0.002366
10.640	-0.002359
10.645	-0.002373
10.650	-0.002407
10.655	-0.002345
10.660	-0.002359
10.665	-0.002393
10.670	-0.002359
10.675	-0.002352
10.680	-0.002387
10.685	-0.002373
10.690	-0.002373
10.695	-0.002387
10.700	-0.002407
10.705	-0.002387
10.710	-0.002394
10.715	-0.002394
10.720	-0.002414
10.725	-0.002407
10.730	-0.002394
10.735	-0.002401
10.740	-0.002394
10.745	-0.002414
10.750	-0.002421
10.755	-0.002428
10.760	-0.002421
10.765	-0.002401
10.770	-0.002415
10.775	-0.002408
10.780	-0.002435
10.785	-0.002414
10.790	-0.002421
10.795	-0.002428
10.800	-0.002414
10.805	-0.002428
10.810	-0.002408
10.815	-0.002408
10.820	-0.002415
10.825	-0.002435
10.830	-0.002483
10.835	-0.002422
10.840	-0.002442
10.845	-0.002484
10.850	-0.002456
10.855	-0.002456
10.860	-0.002442
10.865	-0.002442
10.870	-0.002477
10.875	-0.002436
10.880	-0.002443
10.885	-0.002456
10.890	-0.002456
10.895	-0.002456
10.900	-0.002456
10.905	-0.002477
10.910	-0.002450
10.915	-0.002456
10.920	-0.002470
10.925	-0.002491
10.930	-0.002484
10.935	-0.002463
10.940	-0.002477
10.945	-0.002491
10.950	-0.002436
10.955	-0.002484
10.960	-0.002464
10.965	-0.002484
10.970	-0.002498
10.975	-0.002457
10.980	-0.002498
10.985	-0.002478
10.990	-0.002485
10.995	-0.002478
11.000	-0.002464
11.005	-0.002498
11.010	-0.002519
11.015	-0.002498
11.020	-0.002505
11.025	-0.002512
11.030	-0.002505
11.035	-0.002512
11.040	-0.002526
11.045	-0.002492
11.050	-0.002533
11.055	-0.002471
11.060	-0.002554
11.065	-0.002505
11.070	-0.002526
11.075	-0.002526
11.080	-0.002513
11.085	-0.002526
11.090	-0.002540
11.095	-0.002533
11.100	-0.002520
11.105	-0.002492
11.110	-0.002527
11.115	-0.002513
11.120	-0.002554
11.125	-0.002561
11.130	-0.002548
11.135	-0.002555
11.140	-0.002541
11.145	-0.002527
11.150	-0.002555
11.155	-0.002527
11.160	-0.002548
11.165	-0.002548
11.170	-0.002562
11.175	-0.002548
11.180	-0.002548
11.185	-0.002582
11.190	-0.002541
11.195	-0.002548
11.200	-0.002555
11.205	-0.002562
11.210	-0.002576
11.215	-0.002569
11.220	-0.002548
11.225	-0.002555
11.230	-0.002555
11.235	-0.002590
11.240	-0.002562
11.245	-0.002590
11.250	-0.002569
11.255	-0.002576
11.260	-0.002597
11.265	-0.002569
11.270	-0.002583
11.275	-0.002569
11.280	-0.002549
11.285	-0.002562
11.290	-0.002576
11.295	-0.002576
11.300	-0.002535
11.305	-0.002590
11.310	-0.002549
11.315	-0.002611
11.320	-0.002597
11.325	-0.002611
11.330	-0.002611
11.335	-0.002576
11.340	-0.002604
11.345	-0.002597
11.350	-0.002576
11.355	-0.002618
11.360	-0.002625
11.365	-0.002577
11.370	-0.002584
11.375	-0.002632
11.380	-0.002604
11.385	-0.002639
11.390	-0.002611
11.395	-0.002618
11.400	-0.002611
11.405	-0.002597
11.410	-0.002590
11.415	-0.002618
11.420	-0.002632
11.425	-0.002618
11.430	-0.002632
11.435	-0.002639
11.440	-0.002639
11.445	-0.002653
11.450	-0.002639
11.455	-0.002632
11.460	-0.002618
11.465	-0.002645
11.470	-0.002652
11.475	-0.002632
11.480	-0.002618
11.485	-0.002604
11.490	-0.002646
11.495	-0.002653
11.500	-0.002653
11.505	-0.002653
11.510	-0.002632
11.515	-0.002625
11.520	-0.002680
11.525	-0.002653
11.530	-0.002660
11.535	-0.002680
11.540	-0.002639
11.545	-0.002667
11.550	-0.002660
11.555	-0.002632
11.560	-0.002632
11.565	-0.002680
11.570	-0.002626
11.575	-0.002681
11.580	-0.002667
11.585	-0.002674
11.590	-0.002674
11.595	-0.002694
11.600	-0.002681
11.605	-0.002681
11.610	-0.002687
11.615	-0.002646
11.620	-0.002674
11.625	-0.002667
11.630	-0.002694
11.635	-0.002681
11.640	-0.002722
11.645	-0.002688
11.650	-0.002701
11.655	-0.002688
11.660	-0.002674
11.665	-0.002715
11.670	-0.002708
11.675	-0.002702
11.680	-0.002708
11.685	-0.002695
11.690	-0.002722
11.695	-0.002702
11.700	-0.002716
11.705	-0.002709
11.710	-0.002695
11.715	-0.002716
11.720	-0.002702
11.725	-0.002702
11.730	-0.002722
11.735	-0.002736
11.740	-0.002729
11.745	-0.002722
11.750	-0.002736
11.755	-0.002743
11.760	-0.002730
11.765	-0.002723
11.770	-0.002730
11.775	-0.002751
11.780	-0.002716
11.785	-0.002730
11.790	-0.002751
11.795	-0.002730
11.800	-0.002737
11.805	-0.002744
11.810	-0.002723
11.815	-0.002744
11.820	-0.002751
11.825	-0.002744
11.830	-0.002744
11.835	-0.002765
11.840	-0.002758
11.845	-0.002751
11.850	-0.002771
11.855	-0.002771
11.860	-0.002751
11.865	-0.002765
11.870	-0.002730
11.875	-0.002792
11.880	-0.002765
11.885	-0.002785
11.890	-0.002765
11.895	-0.002765
11.900	-0.002745
11.905	-0.002779
11.910	-0.002786
11.915	-0.002765
11.920	-0.002772
11.925	-0.002793
11.930	-0.002806
11.935	-0.002772
11.940	-0.002751
11.945	-0.002744
11.950	-0.002758
11.955	-0.002793
11.960	-0.002772
11.965	-0.002765
11.970	-0.002772
11.975	-0.002800
11.980	-0.002800
11.985	-0.002786
11.990	-0.002779
11.995	-0.002807
12.000	-0.002827
12.005	-0.002814
12.010	-0.002814
12.015	-0.002793
12.020	-0.002786
12.025	-0.002793
12.030	-0.002786
12.035	-0.002801
12.040	-0.002828
12.045	-0.002828
12.050	-0.002807
12.055	-0.002800
12.060	-0.002835
12.065	-0.002801
12.070	-0.002787
12.075	-0.002807
12.080	-0.002814
12.085	-0.002828
12.090	-0.002842
12.095	-0.002842
12.100	-0.002835
12.105	-0.002821
12.110	-0.002835
12.115	-0.002835
12.120	-0.002821
12.125	-0.002828
12.130	-0.002821
12.135	-0.002821
12.140	-0.002849
12.145	-0.002800
12.150	-0.002835
12.155	-0.002849
12.160	-0.002835
12.165	-0.002821
12.170	-0.002877
12.175	-0.002856
12.180	-0.002856
12.185	-0.002835
12.190	-0.002869
12.195	-0.002842
12.200	-0.002863
12.205	-0.002883
12.210	-0.002856
12.215	-0.002863
12.220	-0.002897
12.225	-0.002883
12.230	-0.002876
12.235	-0.002891
12.240	-0.002890
12.245	-0.002897
12.250	-0.002876
12.255	-0.002849
12.260	-0.002876
12.265	-0.002890
12.270	-0.002862
12.275	-0.002897
12.280	-0.002883
12.285	-0.002883
12.290	-0.002910
12.295	-0.002876
12.300	-0.002897
12.305	-0.002918
12.310	-0.002883
12.315	-0.002897
12.320	-0.002924
12.325	-0.002876
12.330	-0.002897
12.335	-0.002890
12.340	-0.002897
12.345	-0.002924
12.350	-0.002938
12.355	-0.002904
12.360	-0.002897
12.365	-0.002917
12.370	-0.002924
12.375	-0.002925
12.380	-0.002903
12.385	-0.002924
12.390	-0.002931
12.395	-0.002931
12.400	-0.002938
12.405	-0.002938
12.410	-0.002958
12.415	-0.002938
12.420	-0.002924
12.425	-0.002938
12.430	-0.002945
12.435	-0.002959
12.440	-0.002966
12.445	-0.002945
12.450	-0.002986
12.455	-0.002958
12.460	-0.002965
12.465	-0.002951
12.470	-0.002972
12.475	-0.002979
12.480	-0.002972
12.485	-0.002944
12.490	-0.002979
12.495	-0.002944
12.500	-0.002979
12.505	-0.002966
12.510	-0.002979
12.515	-0.002986
12.520	-0.003006
12.525	-0.002999
12.530	-0.002979
12.535	-0.003006
12.540	-0.002999
12.545	-0.002979
12.550	-0.002965
12.555	-0.002972
12.560	-0.002985
12.565	-0.002993
12.570	-0.003006
12.575	-0.002986
12.580	-0.003006
12.585	-0.002986
12.590	-0.002972
12.595	-0.003020
12.600	-0.003006
12.605	-0.003013
12.610	-0.002999
12.615	-0.002992
12.620	-0.003034
12.625	-0.002999
12.630	-0.003027
12.635	-0.003068
12.640	-0.003041
12.645	-0.003033
12.650	-0.003054
12.655	-0.003047
12.660	-0.003013
12.665	-0.003061
12.670	-0.003075
12.675	-0.003033
12.680	-0.003026
12.685	-0.003040
12.690	-0.003068
12.695	-0.003040
12.700	-0.003075
12.705	-0.003068
12.710	-0.003047
12.715	-0.003054
12.720	-0.003061
12.725	-0.003061
12.730	-0.003075
12.735	-0.003047
12.740	-0.003075
12.745	-0.003109
12.750	-0.003075
12.755	-0.003068
12.760	-0.003074
12.765	-0.003095
12.770	-0.003068
12.775	-0.003082
12.780	-0.003088
12.785	-0.003088
12.790	-0.003102
12.795	-0.003068
12.800	-0.003095
12.805	-0.003116
12.810	-0.003088
12.815	-0.003095
12.820	-0.003095
12.825	-0.003088
12.830	-0.003109
12.835	-0.003109
12.840	-0.003089
12.845	-0.003143
12.850	-0.003129
12.855	-0.003130
12.860	-0.003130
12.865	-0.003130
12.870	-0.003137
12.875	-0.003130
12.880	-0.003130
12.885	-0.003130
12.890	-0.003109
12.895	-0.003123
12.900	-0.003144
12.905	-0.003144
12.910	-0.003171
12.915	-0.003136
12.920	-0.003137
12.925	-0.003164
12.930	-0.003143
12.935	-0.003171
12.940	-0.003143
12.945	-0.003143
12.950	-0.003171
12.955	-0.003137
12.960	-0.003130
12.965	-0.003137
12.970	-0.003158
12.975	-0.003151
12.980	-0.003185
12.985	-0.003150
12.990	-0.003144
12.995	-0.003198
13.000	-0.003144
13.005	-0.003178
13.010	-0.003171
13.015	-0.003164
13.020	-0.003185
13.025	-0.003157
13.030	-0.003171
13.035	-0.003164
13.040	-0.003185
13.045	-0.003157
13.050	-0.003212
13.055	-0.003212
13.060	-0.003198
13.065	-0.003185
13.070	-0.003185
13.075	-0.003199
13.080	-0.003171
13.085	-0.003178
13.090	-0.003199
13.095	-0.003178
13.100	-0.003199
13.105	-0.003200
13.110	-0.003220
13.115	-0.003206
13.120	-0.003220
13.125	-0.003206
13.130	-0.003226
13.135	-0.003220
13.140	-0.003199
13.145	-0.003227
13.150	-0.003240
13.155	-0.003199
13.160	-0.003192
13.165	-0.003247
13.170	-0.003241
13.175	-0.003207
13.180	-0.003213
13.185	-0.003234
13.190	-0.003241
13.195	-0.003234
13.200	-0.003241
13.205	-0.003303
13.210	-0.003268
13.215	-0.003255
13.220	-0.003262
13.225	-0.003255
13.230	-0.003282
13.235	-0.003269
13.240	-0.003276
13.245	-0.003283
13.250	-0.003283
13.255	-0.003296
13.260	-0.003255
13.265	-0.003269
13.270	-0.003283
13.275	-0.003269
13.280	-0.003276
13.285	-0.003249
13.290	-0.003317
13.295	-0.003290
13.300	-0.003304
13.305	-0.003270
13.310	-0.003290
13.315	-0.003311
13.320	-0.003290
13.325	-0.003297
13.330	-0.003332
13.335	-0.003290
13.340	-0.003297
13.345	-0.003256
13.350	-0.003311
13.355	-0.003305
13.360	-0.003291
13.365	-0.003333
13.370	-0.003299
13.375	-0.003326
13.380	-0.003312
13.385	-0.003305
13.390	-0.003305
13.395	-0.003298
13.400	-0.003326
13.405	-0.003326
13.410	-0.003312
13.415	-0.003312
13.420	-0.003326
13.425	-0.003346
13.430	-0.003333
13.435	-0.003326
13.440	-0.003340
13.445	-0.003312
13.450	-0.003319
13.455	-0.003360
13.460	-0.003360
13.465	-0.003333
13.470	-0.003333
13.475	-0.003326
13.480	-0.003347
13.485	-0.003368
13.490	-0.003361
13.495	-0.003347
13.500	-0.003368
13.505	-0.003362
13.510	-0.003361
13.515	-0.003361
13.520	-0.003388
13.525	-0.003375
13.530	-0.003382
13.535	-0.003375
13.540	-0.003382
13.545	-0.003361
13.550	-0.003382
13.555	-0.003375
13.560	-0.003382
13.565	-0.003355
13.570	-0.003396
13.575	-0.003382
13.580	-0.003389
13.585	-0.003382
13.590	-0.003389
13.595	-0.003409
13.600	-0.003368
13.605	-0.003403
13.610	-0.003410
13.615	-0.003375
13.620	-0.003409
13.625	-0.003375
13.630	-0.003417
13.635	-0.003383
13.640	-0.003424
13.645	-0.003389
13.650	-0.003437
13.655	-0.003458
13.660	-0.003396
13.665	-0.003444
13.670	-0.003451
13.675	-0.003444
13.680	-0.003416
13.685	-0.003458
13.690	-0.003410
13.695	-0.003430
13.700	-0.003430
13.705	-0.003431
13.710	-0.003458
13.715	-0.003437
13.720	-0.003444
13.725	-0.003444
13.730	-0.003464
13.735	-0.003457
13.740	-0.003471
13.745	-0.003457
13.750	-0.003471
13.755	-0.003450
13.760	-0.003478
13.765	-0.003472
13.770	-0.003458
13.775	-0.003479
13.780	-0.003492
13.785	-0.003471
13.790	-0.003512
13.795	-0.003478
13.800	-0.003492
13.805	-0.003471
13.810	-0.003478
13.815	-0.003526
13.820	-0.003485
13.825	-0.003491
13.830	-0.003492
13.835	-0.003492
13.840	-0.003499
13.845	-0.003512
13.850	-0.003553
13.855	-0.003505
13.860	-0.003505
13.865	-0.003505
13.870	-0.003512
13.875	-0.003512
13.880	-0.003512
13.885	-0.003498
13.890	-0.003519
13.895	-0.003519
13.900	-0.003526
13.905	-0.003534
13.910	-0.003519
13.915	-0.003526
13.920	-0.003512
13.925	-0.003540
13.930	-0.003526
13.935	-0.003526
13.940	-0.003547
13.945	-0.003526
13.950	-0.003533
13.955	-0.003553
13.960	-0.003546
13.965	-0.003561
13.970	-0.003554
13.975	-0.003540
13.980	-0.003553
13.985	-0.003540
13.990	-0.003540
13.995	-0.003574
14.000	-0.003547
14.005	-0.003567
14.010	-0.003547
14.015	-0.003568
14.020	-0.003561
14.025	-0.003574
14.030	-0.003581
14.035	-0.003603
14.040	-0.003582
14.045	-0.003575
14.050	-0.003588
14.055	-0.003574
14.060	-0.003581
14.065	-0.003574
14.070	-0.003574
14.075	-0.003602
14.080	-0.003561
14.085	-0.003609
14.090	-0.003609
14.095	-0.003574
14.100	-0.003596
14.105	-0.003617
14.110	-0.003630
14.115	-0.003595
14.120	-0.003588
14.125	-0.003629
14.130	-0.003609
14.135	-0.003588
14.140	-0.003616
14.145	-0.003623
14.150	-0.003616
14.155	-0.003616
14.160	-0.003595
14.165	-0.003623
14.170	-0.003658
14.175	-0.003637
14.180	-0.003609
14.185	-0.003630
14.190	-0.003616
14.195	-0.003637
14.200	-0.003637
14.205	-0.003637
14.210	-0.003657
14.215	-0.003637
14.220	-0.003650
14.225	-0.003671
14.230	-0.003651
14.235	-0.003672
14.240	-0.003679
14.245	-0.003644
14.250	-0.003664
14.255	-0.003678
14.260	-0.003630
14.265	-0.003637
14.270	-0.003671
14.275	-0.003665
14.280	-0.003651
14.285	-0.003699
14.290	-0.003678
14.295	-0.003672
14.300	-0.003679
14.305	-0.003714
14.310	-0.003699
14.315	-0.003706
14.320	-0.003706
14.325	-0.003727
14.330	-0.003734
14.335	-0.003706
14.340	-0.003713
14.345	-0.003686
14.350	-0.003713
14.355	-0.003713
14.360	-0.003706
14.365	-0.003720
14.370	-0.003728
14.375	-0.003727
14.380	-0.003713
14.385	-0.003734
14.390	-0.003706
14.395	-0.003720
14.400	-0.003734
14.405	-0.003755
14.410	-0.003713
14.415	-0.003727
14.420	-0.003727
14.425	-0.003748
14.430	-0.003762
14.435	-0.003728
14.440	-0.003776
14.445	-0.003762
14.450	-0.003769
14.455	-0.003769
14.460	-0.003769
14.465	-0.003783
14.470	-0.003783
14.475	-0.003755
14.480	-0.003762
14.485	-0.003769
14.490	-0.003769
14.495	-0.003769
14.500	-0.003756
14.505	-0.003790
14.510	-0.003769
14.515	-0.003810
14.520	-0.003817
14.525	-0.003783
14.530	-0.003810
14.535	-0.003797
14.540	-0.003817
14.545	-0.003790
14.550	-0.003817
14.555	-0.003818
14.560	-0.003797
14.565	-0.003798
14.570	-0.003825
14.575	-0.003825
14.580	-0.003838
14.585	-0.003804
14.590	-0.003838
14.595	-0.003845
14.600	-0.003825
14.605	-0.003846
14.610	-0.003825
14.615	-0.003846
14.620	-0.003846
14.625	-0.003846
14.630	-0.003853
14.635	-0.003854
14.640	-0.003874
14.645	-0.003873
14.650	-0.003880
14.655	-0.003839
14.660	-0.003887
14.665	-0.003853
14.670	-0.003867
14.675	-0.003881
14.680	-0.003874
14.685	-0.003853
14.690	-0.003867
14.695	-0.003854
14.700	-0.003909
14.705	-0.003882
14.710	-0.003895
14.715	-0.003902
14.720	-0.003881
14.725	-0.003888
14.730	-0.003902
14.735	-0.003916
14.740	-0.003923
14.745	-0.003909
14.750	-0.003902
14.755	-0.003923
14.760	-0.003916
14.765	-0.003910
14.770	-0.003931
14.775	-0.003938
14.780	-0.003917
14.785	-0.003896
14.790	-0.003944
14.795	-0.003944
14.800	-0.003896
14.805	-0.003958
14.810	-0.003924
14.815	-0.003938
14.820	-0.003966
14.825	-0.003959
14.830	-0.003939
14.835	-0.003960
14.840	-0.003939
14.845	-0.003959
14.850	-0.003973
14.855	-0.003946
14.860	-0.003974
14.865	-0.003981
14.870	-0.003953
14.875	-0.003974
14.880	-0.003960
14.885	-0.003974
14.890	-0.004029
14.895	-0.003981
14.900	-0.003961
14.905	-0.004002
14.910	-0.003981
14.915	-0.003974
14.920	-0.003974
14.925	-0.003946
14.930	-0.003960
14.935	-0.004001
14.940	-0.003988
14.945	-0.004015
14.950	-0.003974
14.955	-0.004029
14.960	-0.004015
14.965	-0.004009
14.970	-0.004029
14.975	-0.003995
14.980	-0.003994
14.985	-0.004015
14.990	-0.004021
14.995	-0.004008
15.000	-0.003994
15.005	-0.004022
15.010	-0.004008
15.015	-0.004008
15.020	-0.003994
15.025	-0.004008
15.030	-0.004056
15.035	-0.004036
15.040	-0.004043
15.045	-0.004049
15.050	-0.004042
15.055	-0.004042
15.060	-0.004035
15.065	-0.004049
15.070	-0.004049
15.075	-0.004028
15.080	-0.004049
15.085	-0.004070
15.090	-0.004063
15.095	-0.004042
15.100	-0.004098
15.105	-0.004057
15.110	-0.004063
15.115	-0.004090
15.120	-0.004084
15.125	-0.004104
15.130	-0.004084
15.135	-0.004077
15.140	-0.004070
15.145	-0.004104
15.150	-0.004104
15.155	-0.004132
15.160	-0.004104
15.165	-0.004126
15.170	-0.004064
15.175	-0.004160
15.180	-0.004125
15.185	-0.004112
15.190	-0.004146
15.195	-0.004125
15.200	-0.004153
15.205	-0.004133
15.210	-0.004119
15.215	-0.004112
15.220	-0.004160
15.225	-0.004133
15.230	-0.004147
15.235	-0.004121
15.240	-0.004127
15.245	-0.004161
15.250	-0.004167
15.255	-0.004140
15.260	-0.004147
15.265	-0.004189
15.270	-0.004189
15.275	-0.004168
15.280	-0.004155
15.285	-0.004162
15.290	-0.004161
15.295	-0.004176
15.300	-0.004156
15.305	-0.004170
15.310	-0.004176
15.315	-0.004203
15.320	-0.004210
15.325	-0.004224
15.330	-0.004190
15.335	-0.004169
15.340	-0.004217
15.345	-0.004218
15.350	-0.004211
15.355	-0.004218
15.360	-0.004197
15.365	-0.004198
15.370	-0.004219
15.375	-0.004225
15.380	-0.004232
15.385	-0.004225
15.390	-0.004246
15.395	-0.004225
15.400	-0.004267
15.405	-0.004246
15.410	-0.004253
15.415	-0.004219
15.420	-0.004267
15.425	-0.004253
15.430	-0.004267
15.435	-0.004289
15.440	-0.004261
15.445	-0.004274
15.450	-0.004260
15.455	-0.004254
15.460	-0.004274
15.465	-0.004275
15.470	-0.004281
15.475	-0.004323
15.480	-0.004302
15.485	-0.004302
15.490	-0.004309
15.495	-0.004295
15.500	-0.004289
15.505	-0.004269
15.510	-0.004302
15.515	-0.004323
15.520	-0.004309
15.525	-0.004309
15.530	-0.004309
15.535	-0.004330
15.540	-0.004323
15.545	-0.004309
15.550	-0.004329
15.555	-0.004336
15.560	-0.004302
15.565	-0.004344
15.570	-0.004365
15.575	-0.004378
15.580	-0.004357
15.585	-0.004329
15.590	-0.004343
15.595	-0.004370
15.600	-0.004336
15.605	-0.004343
15.610	-0.004364
15.615	-0.004364
15.620	-0.004343
15.625	-0.004364
15.630	-0.004358
15.635	-0.004358
15.640	-0.004358
15.645	-0.004377
15.650	-0.004384
15.655	-0.004412
15.660	-0.004398
15.665	-0.004371
15.670	-0.004398
15.675	-0.004398
15.680	-0.004385
15.685	-0.004433
15.690	-0.004432
15.695	-0.004405
15.700	-0.004426
15.705	-0.004406
15.710	-0.004412
15.715	-0.004419
15.720	-0.004439
15.725	-0.004432
15.730	-0.004439
15.735	-0.004440
15.740	-0.004426
15.745	-0.004405
15.750	-0.004453
15.755	-0.004453
15.760	-0.004467
15.765	-0.004461
15.770	-0.004447
15.775	-0.004440
15.780	-0.004460
15.785	-0.004439
15.790	-0.004460
15.795	-0.004466
15.800	-0.004487
15.805	-0.004453
15.810	-0.004487
15.815	-0.004494
15.820	-0.004466
15.825	-0.004473
15.830	-0.004494
15.835	-0.004488
15.840	-0.004487
15.845	-0.004514
15.850	-0.004542
15.855	-0.004542
15.860	-0.004514
15.865	-0.004494
15.870	-0.004494
15.875	-0.004493
15.880	-0.004521
15.885	-0.004521
15.890	-0.004528
15.895	-0.004528
15.900	-0.004563
15.905	-0.004536
15.910	-0.004542
15.915	-0.004528
15.920	-0.004542
15.925	-0.004584
15.930	-0.004549
15.935	-0.004570
15.940	-0.004577
15.945	-0.004542
15.950	-0.004583
15.955	-0.004562
15.960	-0.004590
15.965	-0.004598
15.970	-0.004598
15.975	-0.004590
15.980	-0.004583
15.985	-0.004577
15.990	-0.004597
15.995	-0.004604
16.000	-0.004583
16.005	-0.004597
16.010	-0.004597
16.015	-0.004618
16.020	-0.004639
16.025	-0.004591
16.030	-0.004619
16.035	-0.004633
16.040	-0.004674
16.045	-0.004626
16.050	-0.004632
16.055	-0.004633
16.060	-0.004640
16.065	-0.004646
16.070	-0.004619
16.075	-0.004674
16.080	-0.004640
16.085	-0.004653
16.090	-0.004653
16.095	-0.004626
16.100	-0.004654
16.105	-0.004675
16.110	-0.004653
16.115	-0.004654
16.120	-0.004681
16.125	-0.004654
16.130	-0.004702
16.135	-0.004674
16.140	-0.004654
16.145	-0.004675
16.150	-0.004709
16.155	-0.004695
16.160	-0.004709
16.165	-0.004724
16.170	-0.004737
16.175	-0.004730
16.180	-0.004716
16.185	-0.004723
16.190	-0.004716
16.195	-0.004723
16.200	-0.004736
16.205	-0.004737
16.210	-0.004730
16.215	-0.004744
16.220	-0.004730
16.225	-0.004744
16.230	-0.004744
16.235	-0.004759
16.240	-0.004772
16.245	-0.004771
16.250	-0.004792
16.255	-0.004771
16.260	-0.004764
16.265	-0.004758
16.270	-0.004778
16.275	-0.004813
16.280	-0.004793
16.285	-0.004793
16.290	-0.004792
16.295	-0.004841
16.300	-0.004794
16.305	-0.004808
16.310	-0.004834
16.315	-0.004821
16.320	-0.004828
16.325	-0.004800
16.330	-0.004842
16.335	-0.004821
16.340	-0.004835
16.345	-0.004869
16.350	-0.004841
16.355	-0.004862
16.360	-0.004849
16.365	-0.004843
16.370	-0.004836
16.375	-0.004884
16.380	-0.004849
16.385	-0.004891
16.390	-0.004890
16.395	-0.004884
16.400	-0.004856
16.405	-0.004857
16.410	-0.004870
16.415	-0.004871
16.420	-0.004870
16.425	-0.004905
16.430	-0.004919
16.435	-0.004920
16.440	-0.004905
16.445	-0.004905
16.450	-0.004912
16.455	-0.004912
16.460	-0.004939
16.465	-0.004912
16.470	-0.004919
16.475	-0.004919
16.480	-0.004918
16.485	-0.004946
16.490	-0.004918
16.495	-0.004940
16.500	-0.004954
16.505	-0.004947
16.510	-0.004932
16.515	-0.004966
16.520	-0.004959
16.525	-0.004952
16.530	-0.004966
16.535	-0.004980
16.540	-0.004980
16.545	-0.004994
16.550	-0.004987
16.555	-0.004973
16.560	-0.004973
16.565	-0.005029
16.570	-0.004994
16.575	-0.004980
16.580	-0.004973
16.585	-0.005008
16.590	-0.005008
16.595	-0.004994
16.600	-0.005015
16.605	-0.005008
16.610	-0.005000
16.615	-0.005028
16.620	-0.005014
16.625	-0.005028
16.630	-0.005057
16.635	-0.005044
16.640	-0.005043
16.645	-0.005070
16.650	-0.005056
16.655	-0.005063
16.660	-0.005063
16.665	-0.005043
16.670	-0.005050
16.675	-0.005071
16.680	-0.005057
16.685	-0.005058
16.690	-0.005112
16.695	-0.005079
16.700	-0.005114
16.705	-0.005128
16.710	-0.005106
16.715	-0.005134
16.720	-0.005113
16.725	-0.005100
16.730	-0.005134
16.735	-0.005101
16.740	-0.005101
16.745	-0.005115
16.750	-0.005149
16.755	-0.005121
16.760	-0.005135
16.765	-0.005137
16.770	-0.005158
16.775	-0.005178
16.780	-0.005165
16.785	-0.005158
16.790	-0.005179
16.795	-0.005171
16.800	-0.005199
16.805	-0.005192
16.810	-0.005172
16.815	-0.005186
16.820	-0.005215
16.825	-0.005188
16.830	-0.005209
16.835	-0.005203
16.840	-0.005257
16.845	-0.005236
16.850	-0.005230
16.855	-0.005258
16.860	-0.005224
16.865	-0.005231
16.870	-0.005225
16.875	-0.005280
16.880	-0.005267
16.885	-0.005239
16.890	-0.005260
16.895	-0.005295
16.900	-0.005290
16.905	-0.005290
16.910	-0.005343
16.915	-0.005274
16.920	-0.005309
16.925	-0.005295
16.930	-0.005281
16.935	-0.005302
16.940	-0.005302
16.945	-0.005330
16.950	-0.005303
16.955	-0.005331
16.960	-0.005310
16.965	-0.005325
16.970	-0.005324
16.975	-0.005344
16.980	-0.005343
16.985	-0.005364
16.990	-0.005329
16.995	-0.005343
17.000	-0.005357
17.005	-0.005337
17.010	-0.005350
17.015	-0.005377
17.020	-0.005356
17.025	-0.005377
17.030	-0.005371
17.035	-0.005406
17.040	-0.005391
17.045	-0.005418
17.050	-0.005410
17.055	-0.005396
17.060	-0.005410
17.065	-0.005423
17.070	-0.005423
17.075	-0.005423
17.080	-0.005409
17.085	-0.005423
17.090	-0.005444
17.095	-0.005432
17.100	-0.005453
17.105	-0.005459
17.110	-0.005479
17.115	-0.005451
17.120	-0.005451
17.125	-0.005472
17.130	-0.005473
17.135	-0.005485
17.140	-0.005506
17.145	-0.005464
17.150	-0.005485
17.155	-0.005485
17.160	-0.005513
17.165	-0.005493
17.170	-0.005520
17.175	-0.005505
17.180	-0.005519
17.185	-0.005492
17.190	-0.005560
17.195	-0.005526
17.200	-0.005532
17.205	-0.005519
17.210	-0.005547
17.215	-0.005554
17.220	-0.005546
17.225	-0.005561
17.230	-0.005534
17.235	-0.005556
17.240	-0.005548
17.245	-0.005561
17.250	-0.005568
17.255	-0.005569
17.260	-0.005569
17.265	-0.005562
17.270	-0.005610
17.275	-0.005617
17.280	-0.005630
17.285	-0.005596
17.290	-0.005616
17.295	-0.005617
17.300	-0.005604
17.305	-0.005631
17.310	-0.005638
17.315	-0.005610
17.320	-0.005678
17.325	-0.005651
17.330	-0.005679
17.335	-0.005658
17.340	-0.005665
17.345	-0.005659
17.350	-0.005687
17.355	-0.005687
17.360	-0.005674
17.365	-0.005688
17.370	-0.005667
17.375	-0.005715
17.380	-0.005701
17.385	-0.005708
17.390	-0.005714
17.395	-0.005695
17.400	-0.005722
17.405	-0.005694
17.410	-0.005729
17.415	-0.005715
17.420	-0.005742
17.425	-0.005727
17.430	-0.005770
17.435	-0.005750
17.440	-0.005770
17.445	-0.005769
17.450	-0.005762
17.455	-0.005749
17.460	-0.005775
17.465	-0.005789
17.470	-0.005768
17.475	-0.005790
17.480	-0.005769
17.485	-0.005803
17.490	-0.005789
17.495	-0.005811
17.500	-0.005826
17.505	-0.005812
17.510	-0.005803
17.515	-0.005789
17.520	-0.005844
17.525	-0.005837
17.530	-0.005858
17.535	-0.005866
17.540	-0.005817
17.545	-0.005838
17.550	-0.005865
17.555	-0.005872
17.560	-0.005887
17.565	-0.005853
17.570	-0.005874
17.575	-0.005859
17.580	-0.005914
17.585	-0.005914
17.590	-0.005907
17.595	-0.005935
17.600	-0.005921
17.605	-0.005900
17.610	-0.005928
17.615	-0.005949
17.620	-0.005948
17.625	-0.005927
17.630	-0.005935
17.635	-0.005943
17.640	-0.005948
17.645	-0.005997
17.650	-0.005990
17.655	-0.005983
17.660	-0.005996
17.665	-0.006024
17.670	-0.005983
17.675	-0.005976
17.680	-0.006031
17.685	-0.005968
17.690	-0.006009
17.695	-0.006023
17.700	-0.006045
17.705	-0.006017
17.710	-0.006016
17.715	-0.006050
17.720	-0.006064
17.725	-0.006042
17.730	-0.006063
17.735	-0.006049
17.740	-0.006063
17.745	-0.006057
17.750	-0.006104
17.755	-0.006090
17.760	-0.006083
17.765	-0.006084
17.770	-0.006091
17.775	-0.006117
17.780	-0.006110
17.785	-0.006144
17.790	-0.006144
17.795	-0.006124
17.800	-0.006137
17.805	-0.006137
17.810	-0.006170
17.815	-0.006177
17.820	-0.006184
17.825	-0.006170
17.830	-0.006163
17.835	-0.006199
17.840	-0.006204
17.845	-0.006175
17.850	-0.006209
17.855	-0.006209
17.860	-0.006203
17.865	-0.006230
17.870	-0.006216
17.875	-0.006208
17.880	-0.006215
17.885	-0.006229
17.890	-0.006221
17.895	-0.006250
17.900	-0.006250
17.905	-0.006243
17.910	-0.006242
17.915	-0.006262
17.920	-0.006303
17.925	-0.006283
17.930	-0.006311
17.935	-0.006276
17.940	-0.006303
17.945	-0.006310
17.950	-0.006351
17.955	-0.006324
17.960	-0.006312
17.965	-0.006340
17.970	-0.006326
17.975	-0.006359
17.980	-0.006345
17.985	-0.006366
17.990	-0.006346
17.995	-0.006381
18.000	-0.006388
18.005	-0.006360
18.010	-0.006394
18.015	-0.006422
18.020	-0.006401
18.025	-0.006423
18.030	-0.006403
18.035	-0.006411
18.040	-0.006403
18.045	-0.006437
18.050	-0.006417
18.055	-0.006424
18.060	-0.006465
18.065	-0.006459
18.070	-0.006486
18.075	-0.006466
18.080	-0.006459
18.085	-0.006458
18.090	-0.006506
18.095	-0.006509
18.100	-0.006482
18.105	-0.006502
18.110	-0.006507
18.115	-0.006521
18.120	-0.006527
18.125	-0.006527
18.130	-0.006499
18.135	-0.006542
18.140	-0.006549
18.145	-0.006562
18.150	-0.006554
18.155	-0.006568
18.160	-0.006564
18.165	-0.006564
18.170	-0.006618
18.175	-0.006576
18.180	-0.006624
18.185	-0.006584
18.190	-0.006584
18.195	-0.006639
18.200	-0.006611
18.205	-0.006640
18.210	-0.006646
18.215	-0.006667
18.220	-0.006659
18.225	-0.006639
18.230	-0.006668
18.235	-0.006691
18.240	-0.006696
18.245	-0.006688
18.250	-0.006688
18.255	-0.006695
18.260	-0.006688
18.265	-0.006703
18.270	-0.006696
18.275	-0.006683
18.280	-0.006737
18.285	-0.006751
18.290	-0.006772
18.295	-0.006712
18.300	-0.006733
18.305	-0.006753
18.310	-0.006772
18.315	-0.006766
18.320	-0.006793
18.325	-0.006800
18.330	-0.006827
18.335	-0.006779
18.340	-0.006813
18.345	-0.006820
18.350	-0.006820
18.355	-0.006827
18.360	-0.006841
18.365	-0.006849
18.370	-0.006897
18.375	-0.006883
18.380	-0.006897
18.385	-0.006855
18.390	-0.006889
18.395	-0.006917
18.400	-0.006897
18.405	-0.006924
18.410	-0.006918
18.415	-0.006931
18.420	-0.006925
18.425	-0.006953
18.430	-0.006961
18.435	-0.006956
18.440	-0.006981
18.445	-0.006982
18.450	-0.006989
18.455	-0.006975
18.460	-0.007003
18.465	-0.007003
18.470	-0.006989
18.475	-0.007011
18.480	-0.007031
18.485	-0.007039
18.490	-0.007052
18.495	-0.007040
18.500	-0.007076
18.505	-0.007076
18.510	-0.007068
18.515	-0.007054
18.520	-0.007074
18.525	-0.007083
18.530	-0.007097
18.535	-0.007084
18.540	-0.007118
18.545	-0.007119
18.550	-0.007118
18.555	-0.007154
18.560	-0.007134
18.565	-0.007156
18.570	-0.007163
18.575	-0.007155
18.580	-0.007182
18.585	-0.007175
18.590	-0.007210
18.595	-0.007190
18.600	-0.007190
18.605	-0.007232
18.610	-0.007217
18.615	-0.007230
18.620	-0.007223
18.625	-0.007237
18.630	-0.007253
18.635	-0.007268
18.640	-0.007287
18.645	-0.007272
18.650	-0.007307
18.655	-0.007266
18.660	-0.007329
18.665	-0.007309
18.670	-0.007323
18.675	-0.007295
18.680	-0.007331
18.685	-0.007351
18.690	-0.007358
18.695	-0.007387
18.700	-0.007374
18.705	-0.007366
18.710	-0.007393
18.715	-0.007387
18.720	-0.007407
18.725	-0.007428
18.730	-0.007413
18.735	-0.007400
18.740	-0.007421
18.745	-0.007414
18.750	-0.007434
18.755	-0.007455
18.760	-0.007456
18.765	-0.007485
18.770	-0.007485
18.775	-0.007491
18.780	-0.007510
18.785	-0.007503
18.790	-0.007516
18.795	-0.007531
18.800	-0.007511
18.805	-0.007533
18.810	-0.007553
18.815	-0.007567
18.820	-0.007574
18.825	-0.007604
18.830	-0.007578
18.835	-0.007599
18.840	-0.007611
18.845	-0.007604
18.850	-0.007672
18.855	-0.007658
18.860	-0.007638
18.865	-0.007654
18.870	-0.007690
18.875	-0.007656
18.880	-0.007670
18.885	-0.007678
18.890	-0.007678
18.895	-0.007687
18.900	-0.007752
18.905	-0.007758
18.910	-0.007737
18.915	-0.007738
18.920	-0.007779
18.925	-0.007786
18.930	-0.007760
18.935	-0.007759
18.940	-0.007806
18.945	-0.007798
18.950	-0.007798
18.955	-0.007784
18.960	-0.007841
18.965	-0.007808
18.970	-0.007835
18.975	-0.007857
18.980	-0.007870
18.985	-0.007875
18.990	-0.007865
18.995	-0.007871
19.000	-0.007918
19.005	-0.007869
19.010	-0.007902
19.015	-0.007914
19.020	-0.007949
19.025	-0.007937
19.030	-0.007993
19.035	-0.007958
19.040	-0.007983
19.045	-0.007997
19.050	-0.007982
19.055	-0.008023
19.060	-0.008029
19.065	-0.008030
19.070	-0.008030
19.075	-0.008065
19.080	-0.008071
19.085	-0.008030
19.090	-0.008071
19.095	-0.008108
19.100	-0.008094
19.105	-0.008120
19.110	-0.008140
19.115	-0.008168
19.120	-0.008147
19.125	-0.008175
19.130	-0.008141
19.135	-0.008170
19.140	-0.008183
19.145	-0.008197
19.150	-0.008238
19.155	-0.008245
19.160	-0.008246
19.165	-0.008282
19.170	-0.008300
19.175	-0.008285
19.180	-0.008299
19.185	-0.008293
19.190	-0.008314
19.195	-0.008324
19.200	-0.008365
19.205	-0.008366
19.210	-0.008387
19.215	-0.008375
19.220	-0.008411
19.225	-0.008448
19.230	-0.008423
19.235	-0.008439
19.240	-0.008458
19.245	-0.008501
19.250	-0.008488
19.255	-0.008483
19.260	-0.008505
19.265	-0.008554
19.270	-0.008531
19.275	-0.008538
19.280	-0.008530
19.285	-0.008523
19.290	-0.008537
19.295	-0.008574
19.300	-0.008602
19.305	-0.008593
19.310	-0.008605
19.315	-0.008584
19.320	-0.008604
19.325	-0.008632
19.330	-0.008644
19.335	-0.008678
19.340	-0.008649
19.345	-0.008623
19.350	-0.008684
19.355	-0.008676
19.360	-0.008698
19.365	-0.008739
19.370	-0.008723
19.375	-0.008754
19.380	-0.008774
19.385	-0.008740
19.390	-0.008794
19.395	-0.008808
19.400	-0.008794
19.405	-0.008828
19.410	-0.008842
19.415	-0.008829
19.420	-0.008842
19.425	-0.008877
19.430	-0.008878
19.435	-0.008886
19.440	-0.008909
19.445	-0.008944
19.450	-0.008937
19.455	-0.008973
19.460	-0.008972
19.465	-0.008979
19.470	-0.009006
19.475	-0.008993
19.480	-0.009034
19.485	-0.009048
19.490	-0.009063
19.495	-0.009100
19.500	-0.009101
19.505	-0.009078
19.510	-0.009112
19.515	-0.009093
19.520	-0.009123
19.525	-0.009165
19.530	-0.009145
19.535	-0.009159
19.540	-0.009201
19.545	-0.009223
19.550	-0.009208
19.555	-0.009271
19.560	-0.009238
19.565	-0.009254
19.570	-0.009294
19.575	-0.009278
19.580	-0.009313
19.585	-0.009307
19.590	-0.009310
19.595	-0.009359
19.600	-0.009352
19.605	-0.009387
19.610	-0.009373
19.615	-0.009374
19.620	-0.009415
19.625	-0.009459
19.630	-0.009468
19.635	-0.009462
19.640	-0.009498
19.645	-0.009512
19.650	-0.009492
19.655	-0.009512
19.660	-0.009525
19.665	-0.009507
19.670	-0.009564
19.675	-0.009573
19.680	-0.009565
19.685	-0.009596
19.690	-0.009631
19.695	-0.009667
19.700	-0.009647
19.705	-0.009639
19.710	-0.009710
19.715	-0.009669
19.720	-0.009730
19.725	-0.009732
19.730	-0.009761
19.735	-0.009755
19.740	-0.009769
19.745	-0.009797
19.750	-0.009843
19.755	-0.009864
19.760	-0.009860
19.765	-0.009870
19.770	-0.009896
19.775	-0.009915
19.780	-0.009935
19.785	-0.009977
19.790	-0.009978
19.795	-0.010010
19.800	-0.010046
19.805	-0.010027
19.810	-0.010054
19.815	-0.010095
19.820	-0.010081
19.825	-0.010152
19.830	-0.010177
19.835	-0.010179
19.840	-0.010183
19.845	-0.010195
19.850	-0.010209
19.855	-0.010209
19.860	-0.010287
19.865	-0.010259
19.870	-0.010274
19.875	-0.010280
19.880	-0.010327
19.885	-0.010353
19.890	-0.010393
19.895	-0.010353
19.900	-0.010385
19.905	-0.010415
19.910	-0.010433
19.915	-0.010453
19.920	-0.010452
19.925	-0.010512
19.930	-0.010504
19.935	-0.010564
19.940	-0.010584
19.945	-0.010561
19.950	-0.010601
19.955	-0.010615
19.960	-0.010645
19.965	-0.010681
19.970	-0.010700
19.975	-0.010732
19.980	-0.010737
19.985	-0.010778
19.990	-0.010798
19.995	-0.010818
20.000	-0.010811
20.005	-0.010854
20.010	-0.010900
20.015	-0.010873
20.020	-0.010900
20.025	-0.010931
20.030	-0.010966
20.035	-0.011002
20.040	-0.010992
20.045	-0.011035
20.050	-0.011062
20.055	-0.011104
20.060	-0.011127
20.065	-0.011170
20.070	-0.011190
20.075	-0.011183
20.080	-0.011213
20.085	-0.011269
20.090	-0.011249
20.095	-0.011287
20.100	-0.011311
20.105	-0.011355
20.110	-0.011374
20.115	-0.011359
20.120	-0.011413
20.125	-0.011429
20.130	-0.011465
20.135	-0.011486
20.140	-0.011461
20.145	-0.011532
20.150	-0.011565
20.155	-0.011558
20.160	-0.011631
20.165	-0.011641
20.170	-0.011689
20.175	-0.011716
20.180	-0.011737
20.185	-0.011775
20.190	-0.011768
20.195	-0.011779
20.200	-0.011847
20.205	-0.011879
20.210	-0.011902
20.215	-0.011915
20.220	-0.011935
20.225	-0.011975
20.230	-0.012031
20.235	-0.012034
20.240	-0.012074
20.245	-0.012090
20.250	-0.012110
20.255	-0.012127
20.260	-0.012179
20.265	-0.012164
20.270	-0.012217
20.275	-0.012278
20.280	-0.012291
20.285	-0.012316
20.290	-0.012317
20.295	-0.012356
20.300	-0.012397
20.305	-0.012421
20.310	-0.012476
20.315	-0.012520
20.320	-0.012557
20.325	-0.012579
20.330	-0.012594
20.335	-0.012652
20.340	-0.012668
20.345	-0.012712
20.350	-0.012751
20.355	-0.012786
20.360	-0.012842
20.365	-0.012845
20.370	-0.012884
20.375	-0.012916
20.380	-0.012946
20.385	-0.012984
20.390	-0.013028
20.395	-0.013061
20.400	-0.013106
20.405	-0.013153
20.410	-0.013146
20.415	-0.013222
20.420	-0.013254
20.425	-0.013280
20.430	-0.013343
20.435	-0.013363
20.440	-0.013420
20.445	-0.013465
20.450	-0.013479
20.455	-0.013547
20.460	-0.013577
20.465	-0.013615
20.470	-0.013682
20.475	-0.013682
20.480	-0.013795
20.485	-0.013804
20.490	-0.013916
20.495	-0.013949
20.500	-0.014009
20.505	-0.014060
20.510	-0.014067
20.515	-0.014085
20.520	-0.014083
20.525	-0.014157
20.530	-0.014183
20.535	-0.014243
20.540	-0.014266
20.545	-0.014355
20.550	-0.014357
20.555	-0.014421
20.560	-0.014490
20.565	-0.014529
20.570	-0.014547
20.575	-0.014595
20.580	-0.014654
20.585	-0.014682
20.590	-0.014723
20.595	-0.014723
20.600	-0.014820
20.605	-0.014827
20.610	-0.014883
20.615	-0.014961
20.620	-0.015029
20.625	-0.015069
20.630	-0.015153
20.635	-0.015192
20.640	-0.015284
20.645	-0.015316
20.650	-0.015411
20.655	-0.015431
20.660	-0.015509
20.665	-0.015566
20.670	-0.015583
20.675	-0.015717
20.680	-0.015753
20.685	-0.015822
20.690	-0.015895
20.695	-0.015892
20.700	-0.015980
20.705	-0.016076
20.710	-0.016111
20.715	-0.016241
20.720	-0.016258
20.725	-0.016300
20.730	-0.016370
20.735	-0.016421
20.740	-0.016529
20.745	-0.016544
20.750	-0.016644
20.755	-0.016687
20.760	-0.016781
20.765	-0.016868
20.770	-0.016946
20.775	-0.017085
20.780	-0.017203
20.785	-0.017242
20.790	-0.017381
20.795	-0.017425
20.800	-0.017542
20.805	-0.017649
20.810	-0.017687
20.815	-0.017777
20.820	-0.017880
20.825	-0.017977
20.830	-0.018061
20.835	-0.018183
20.840	-0.018260
20.845	-0.018378
20.850	-0.018474
20.855	-0.018562
20.860	-0.018656
20.865	-0.018754
20.870	-0.018893
20.875	-0.018954
20.880	-0.019085
20.885	-0.019184
20.890	-0.019339
20.895	-0.019436
20.900	-0.019545
20.905	-0.019615
20.910	-0.019695
20.915	-0.019729
20.920	-0.019852
20.925	-0.019962
20.930	-0.020048
20.935	-0.020168
20.940	-0.020309
20.945	-0.020445
20.950	-0.020582
20.955	-0.020717
20.960	-0.020804
20.965	-0.020962
20.970	-0.021118
20.975	-0.021245
20.980	-0.021310
20.985	-0.021447
20.990	-0.021599
20.995	-0.021698
21.000	-0.021883
21.005	-0.022065
21.010	-0.022203
21.015	-0.022354
21.020	-0.022505
21.025	-0.022709
21.030	-0.022953
21.035	-0.023112
21.040	-0.023313
21.045	-0.023526
21.050	-0.023765
21.055	-0.023978
21.060	-0.024147
21.065	-0.024379
21.070	-0.024579
21.075	-0.024810
21.080	-0.025060
21.085	-0.025282
21.090	-0.025523
21.095	-0.025745
21.100	-0.026040
21.105	-0.026338
21.110	-0.026628
21.115	-0.026908
21.120	-0.027186
21.125	-0.027500
21.130	-0.027867
21.135	-0.028248
21.140	-0.028682
21.145	-0.029027
21.150	-0.029062
21.155	-0.029293
21.160	-0.029698
21.165	-0.029921
21.170	-0.030469
21.175	-0.031058
21.180	-0.031495
21.185	-0.031997
21.190	-0.032610
21.195	-0.033108
21.200	-0.033687
21.205	-0.034370
21.210	-0.034828
21.215	-0.035358
21.220	-0.036219
21.225	-0.037265
21.230	-0.037948
21.235	-0.038997
21.240	-0.039462
21.245	-0.039873
21.250	-0.041872
21.255	-0.042803
21.260	-0.043174
21.265	-0.044190
21.270	-0.045372
21.275	-0.046591
21.280	-0.047462
21.285	-0.047878
21.290	-0.047842
21.295	-0.047708
21.300	-0.047113
21.305	-0.046083
21.310	-0.044288
21.315	-0.041918
21.320	-0.038929
21.325	-0.035371
21.330	-0.031459
21.335	-0.027559
21.340	-0.023537
21.345	-0.019221
21.350	-0.014540
21.355	-0.010135
21.360	-0.006461
21.365	-0.003828
21.370	-0.002159
21.375	-0.001130
21.380	-0.000581
21.385	-0.000359
21.390	-0.000210
21.395	-0.000136
21.400	-0.000075
21.405	-0.000055
21.410	-0.000028
21.415	-0.000028
21.420	0.000019
21.425	-0.000041
21.430	-0.000000
21.435	-0.000008
21.440	-0.000015
21.445	0.000006
21.450	0.000025
21.455	0.000005
21.460	-0.000008
21.465	0.000046
21.470	0.000046
21.475	0.000032
21.480	0.000039
21.485	0.000066
21.490	0.000033
21.495	0.000027
21.500	0.000053
21.505	0.000032
21.510	0.000046
21.515	0.000032
21.520	0.000019
21.525	0.000053
21.530	0.000039
21.535	0.000059
21.540	0.000039
21.545	0.000052
21.550	0.000052
21.555	0.000066
21.560	0.000053
21.565	0.000012
21.570	0.000080
21.575	0.000038
21.580	0.000052
21.585	0.000011
21.590	0.000032
21.595	0.000052
21.600	0.000059
21.605	0.000059
21.610	0.000072
21.615	0.000086
21.620	0.000052
21.625	0.000087
21.630	0.000052
21.635	0.000059
21.640	0.000065
21.645	0.000065
21.650	0.000025
21.655	0.000038
21.660	0.000052
21.665	0.000018
21.670	0.000038
21.675	0.000059
21.680	0.000052
21.685	0.000072
21.690	0.000052
21.695	0.000038
21.700	0.000059
21.705	0.000038
21.710	0.000092
21.715	0.000065
21.720	0.000078
21.725	0.000051
21.730	0.000058
21.735	0.000058
21.740	0.000024
21.745	0.000072
21.750	0.000011
21.755	0.000092
21.760	0.000045
21.765	0.000052
21.770	0.000024
21.775	0.000051
21.780	0.000051
21.785	0.000044
21.790	0.000065
21.795	0.000058
21.800	0.000058
21.805	0.000078
21.810	0.000071
21.815	0.000051
21.820	0.000057
21.825	0.000058
21.830	0.000044
21.835	0.000058
21.840	0.000037
21.845	0.000091
21.850	0.000064
21.855	0.000037
21.860	0.000044
21.865	0.000037
21.870	0.000091
21.875	0.000071
21.880	0.000037
21.885	0.000071
21.890	0.000071
21.895	0.000078
21.900	0.000058
21.905	0.000057
21.910	0.000050
21.915	0.000070
21.920	0.000071
21.925	0.000057
21.930	0.000057
21.935	0.000044
21.940	0.000044
21.945	0.000077
21.950	0.000077
21.955	0.000064
21.960	0.000078
21.965	0.000058
21.970	0.000070
21.975	0.000077
21.980	0.000070
21.985	0.000077
21.990	0.000077
21.995	0.000077
22.000	0.000077
22.005	0.000056
22.010	0.000063
22.015	0.000057
22.020	0.000050
22.025	0.000050
22.030	0.000050
22.035	0.000057
22.040	0.000050
22.045	0.000056
22.050	0.000090
22.055	0.000043
22.060	0.000029
22.065	0.000063
22.070	0.000050
22.075	0.000070
22.080	0.000056
22.085	0.000070
22.090	0.000056
22.095	0.000057
22.100	0.000030
22.105	0.000076
22.110	0.000009
22.115	0.000070
22.120	0.000049
22.125	0.000063
22.130	0.000056
22.135	0.000063
22.140	0.000069
22.145	0.000049
22.150	0.000049
22.155	0.000063
22.160	0.000077
22.165	0.000070
22.170	0.000063
22.175	0.000062
22.180	0.000076
22.185	0.000049
22.190	0.000063
22.195	0.000056
22.200	0.000063
22.205	0.000069
22.210	0.000069
22.215	0.000042
22.220	0.000062
22.225	0.000063
22.230	0.000056
22.235	0.000036
22.240	0.000055
22.245	0.000096
22.250	0.000048
22.255	0.000049
22.260	0.000069
22.265	0.000076
22.270	0.000069
22.275	0.000048
22.280	0.000055
22.285	0.000069
22.290	0.000063
22.295	0.000050
22.300	0.000069
22.305	0.000062
22.310	0.000082
22.315	0.000069
22.320	0.000042
22.325	0.000082
22.330	0.000035
22.335	0.000048
22.340	0.000055
22.345	0.000069
22.350	0.000062
22.355	0.000055
22.360	0.000062
22.365	0.000035
22.370	0.000034
22.375	0.000062
22.380	0.000034
22.385	0.000055
22.390	0.000062
22.395	0.000089
22.400	0.000048
22.405	0.000082
22.410	0.000055
22.415	0.000068
22.420	0.000061
22.425	0.000055
22.430	0.000049
22.435	0.000055
22.440	0.000075
22.445	0.000075
22.450	0.000082
22.455	0.000061
22.460	0.000068
22.465	0.000048
22.470	0.000061
22.475	0.000034
22.480	0.000068
22.485	0.000061
22.490	0.000048
22.495	0.000055
22.500	0.000088
22.505	0.000075
22.510	0.000068
22.515	0.000061
22.520	0.000061
22.525	0.000054
22.530	0.000061
22.535	0.000074
22.540	0.000020
22.545	0.000067
22.550	0.000061
22.555	0.000047
22.560	0.000048
22.565	0.000041
22.570	0.000061
22.575	0.000047
22.580	0.000061
22.585	0.000027
22.590	0.000040
22.595	0.000094
22.600	0.000040
22.605	0.000067
22.610	0.000060
22.615	0.000054
22.620	0.000067
22.625	0.000074
22.630	0.000047
22.635	0.000033
22.640	0.000074
22.645	0.000026
22.650	0.000060
22.655	0.000026
22.660	0.000040
22.665	0.000067
22.670	0.000033
22.675	0.000033
22.680	0.000053
22.685	0.000053
22.690	0.000040
22.695	0.000047
22.700	0.000054
22.705	0.000047
22.710	0.000053
22.715	0.000040
22.720	0.000053
22.725	0.000053
22.730	0.000067
22.735	0.000040
22.740	0.000053
22.745	0.000060
22.750	0.000067
22.755	0.000060
22.760	0.000054
22.765	0.000047
22.770	0.000059
22.775	0.000073
22.780	0.000019
22.785	0.000046
22.790	0.000066
22.795	0.000066
22.800	0.000053
22.805	0.000060
22.810	0.000073
22.815	0.000039
22.820	0.000066
22.825	0.000046
22.830	0.000060
22.835	0.000033
22.840	0.000046
22.845	0.000039
22.850	0.000066
22.855	0.000053
22.860	0.000052
22.865	0.000032
22.870	0.000066
22.875	0.000046
22.880	0.000066
22.885	0.000045
22.890	0.000060
22.895	0.000046
22.900	0.000033
22.905	0.000032
22.910	0.000038
22.915	0.000052
22.920	0.000052
22.925	0.000066
22.930	0.000072
22.935	0.000045
22.940	0.000059
22.945	0.000072
22.950	0.000065
22.955	0.000039
22.960	0.000019
22.965	0.000053
22.970	0.000018
22.975	0.000065
22.980	0.000025
22.985	0.000072
22.990	0.000066
22.995	0.000052
23.000	0.000052
23.005	0.000045
23.010	0.000086
23.015	0.000059
23.020	0.000045
23.025	0.000059
23.030	0.000019
23.035	0.000025
23.040	0.000052
23.045	0.000058
23.050	0.000051
23.055	0.000078
23.060	0.000018
23.065	0.000052
23.070	0.000031
23.075	0.000059
23.080	0.000058
23.085	0.000025
23.090	0.000032
23.095	0.000052
23.100	0.000045
23.105	0.000031
23.110	0.000045
23.115	0.000038
23.120	0.000051
23.125	0.000052
23.130	0.000072
23.135	0.000038
23.140	0.000024
23.145	0.000065
23.150	0.000044
23.155	0.000031
23.160	0.000059
23.165	0.000052
23.170	0.000024
23.175	0.000024
23.180	0.000031
23.185	0.000058
23.190	0.000038
23.195	0.000071
23.200	0.000031
23.205	0.000044
23.210	0.000065
23.215	0.000058
23.220	0.000024
23.225	0.000052
23.230	0.000052
23.235	0.000017
23.240	0.000024
23.245	0.000044
23.250	0.000037
23.255	0.000044
23.260	0.000037
23.265	0.000071
23.270	0.000064
23.275	0.000085
23.280	0.000044
23.285	0.000057
23.290	0.000051
23.295	0.000065
23.300	0.000058
23.305	0.000044
23.310	0.000037
23.315	0.000010
23.320	0.000057
23.325	0.000030
23.330	0.000050
23.335	0.000077
23.340	0.000023
23.345	0.000057
23.350	0.000057
23.355	0.000051
23.360	0.000058
23.365	0.000058
23.370	0.000009
23.375	0.000023
23.380	0.000051
23.385	0.000044
23.390	0.000057
23.395	0.000057
23.400	0.000050
23.405	0.000023
23.410	0.000064
23.415	0.000036
23.420	0.000023
23.425	0.000057
23.430	0.000037
23.435	0.000037
23.440	0.000070
23.445	0.000029
23.450	0.000009
23.455	0.000043
23.460	0.000043
23.465	0.000043
23.470	0.000043
23.475	0.000050
23.480	0.000050
23.485	0.000057
23.490	0.000037
23.495	0.000057
23.500	0.000050
23.505	0.000063
23.510	0.000043
23.515	0.000023
23.520	0.000050
23.525	0.000023
23.530	0.000036
23.535	0.000056
23.540	0.000070
23.545	0.000029
23.550	0.000076
23.555	0.000049
23.560	0.000030
23.565	0.000050
23.570	0.000063
23.575	0.000042
23.580	0.000036
23.585	0.000056
23.590	0.000056
23.595	0.000062
23.600	0.000069
23.605	0.000069
23.610	0.000035
23.615	0.000029
23.620	0.000070
23.625	0.000057
23.630	0.000050
23.635	0.000036
23.640	0.000035
23.645	0.000042
23.650	0.000036
23.655	0.000022
23.660	0.000029
23.665	0.000063
23.670	0.000042
23.675	0.000042
23.680	0.000028
23.685	0.000055
23.690	0.000022
23.695	0.000043
23.700	0.000029
23.705	0.000035
23.710	0.000015
23.715	0.000055
23.720	0.000021
23.725	0.000055
23.730	0.000069
23.735	0.000042
23.740	0.000049
23.745	0.000055
23.750	0.000055
23.755	0.000022
23.760	0.000063
23.765	0.000036
23.770	0.000035
23.775	0.000042
23.780	0.000021
23.785	0.000055
23.790	0.000055
23.795	0.000042
23.800	0.000042
23.805	0.000055
23.810	0.000042
23.815	0.000041
23.820	0.000082
23.825	0.000029
23.830	0.000022
23.835	0.000021
23.840	0.000048
23.845	0.000028
23.850	0.000055
23.855	0.000062
23.860	0.000068
23.865	0.000028
23.870	0.000028
23.875	0.000021
23.880	0.000021
23.885	0.000028
23.890	0.000028
23.895	0.000029
23.900	0.000041
23.905	0.000034
23.910	0.000048
23.915	0.000028
23.920	0.000041
23.925	0.000048
23.930	0.000021
23.935	0.000034
23.940	0.000041
23.945	0.000061
23.950	0.000041
23.955	-0.000006
23.960	0.000042
23.965	0.000048
23.970	0.000014
23.975	0.000034
23.980	0.000047
23.985	0.000047
23.990	0.000027
23.995	0.000081
24.000	0.000041
24.005	0.000061
24.010	0.000054
24.015	0.000041
24.020	0.000034
24.025	0.000028
24.030	0.000055
24.035	0.000047
24.040	0.000034
24.045	0.000075
24.050	0.000020
24.055	0.000061
24.060	0.000061
24.065	0.000041
24.070	0.000041
24.075	0.000054
24.080	0.000054
24.085	0.000054
24.090	0.000054
24.095	0.000034
24.100	0.000027
24.105	0.000047
24.110	0.000013
24.115	0.000040
24.120	0.000033
24.125	0.000033
24.130	0.000040
24.135	0.000081
24.140	0.000040
24.145	0.000040
24.150	0.000033
24.155	0.000054
24.160	0.000075
24.165	0.000048
24.170	0.000027
24.175	0.000006
24.180	0.000020
24.185	0.000047
24.190	0.000060
24.195	0.000040
24.200	0.000067
24.205	0.000060
24.210	0.000026
24.215	0.000047
24.220	0.000006
24.225	0.000047
24.230	0.000054
24.235	0.000033
24.240	0.000026
24.245	0.000019
24.250	0.000060
24.255	0.000067
24.260	0.000060
24.265	0.000053
24.270	0.000039
24.275	0.000033
24.280	0.000060
24.285	0.000026
24.290	0.000047
24.295	0.000061
24.300	0.000046
24.305	0.000033
24.310	0.000012
24.315	0.000033
24.320	0.000033
24.325	0.000019
24.330	0.000019
24.335	0.000046
24.340	0.000040
24.345	0.000039
24.350	0.000032
24.355	0.000067
24.360	0.000047
24.365	0.000053
24.370	0.000046
24.375	0.000025
24.380	0.000073
24.385	0.000019
24.390	0.000053
24.395	0.000019
24.400	0.000032
24.405	0.000080
24.410	0.000066
24.415	0.000025
24.420	0.000053
24.425	0.000046
24.430	0.000053
24.435	0.000019
24.440	0.000012
24.445	0.000059
24.450	0.000025
24.455	0.000046
24.460	0.000019
24.465	0.000059
24.470	0.000052
24.475	0.000025
24.480	0.000032
24.485	0.000032
24.490	0.000026
24.495	0.000019
24.500	0.000012
24.505	0.000039
24.510	0.000025
24.515	0.000032
24.520	0.000025
24.525	0.000025
24.530	0.000039
24.535	0.000005
24.540	0.000045
24.545	0.000038
24.550	0.000031
24.555	0.000046
24.560	0.000046
24.565	0.000032
24.570	0.000018
24.575	0.000045
24.580	0.000032
24.585	0.000032
24.590	0.000052
24.595	0.000045
24.600	0.000038
24.605	0.000018
24.610	0.000025
24.615	0.000038
24.620	0.000045
24.625	0.000039
24.630	0.000039
24.635	0.000045
24.640	0.000031
24.645	0.000024
24.650	0.000024
24.655	0.000031
24.660	0.000031
24.665	0.000045
24.670	0.000058
24.675	0.000058
24.680	0.000024
24.685	0.000024
24.690	0.000032
24.695	0.000052
24.700	0.000038
24.705	0.000038
24.710	0.000004
24.715	0.000038
24.720	0.000031
24.725	0.000024
24.730	0.000031
24.735	0.000031
24.740	0.000031
24.745	0.000044
24.750	0.000023
24.755	0.000031
24.760	0.000038
24.765	0.000031
24.770	0.000051
24.775	0.000023
24.780	0.000030
24.785	0.000044
24.790	0.000050
24.795	0.000030
24.800	0.000044
24.805	0.000037
24.810	0.000044
24.815	0.000010
24.820	0.000058
24.825	0.000031
24.830	0.000044
24.835	0.000057
24.840	0.000037
24.845	0.000044
24.850	0.000044
24.855	0.000037
24.860	0.000051
24.865	0.000051
24.870	0.000044
24.875	0.000044
24.880	0.000070
24.885	0.000016
24.890	0.000057
24.895	0.000031
24.900	0.000023
24.905	0.000016
24.910	0.000036
24.915	0.000009
24.920	0.000043
24.925	0.000050
24.930	0.000023
24.935	0.000037
24.940	0.000064
24.945	0.000030
24.950	0.000009
24.955	0.000023
24.960	0.000030
24.965	0.000017
24.970	0.000043
24.975	0.000043
24.980	0.000043
24.985	0.000037
24.990	0.000036
24.995	0.000009
25.000	0.000023
25.005	0.000043
25.010	0.000022
25.015	0.000036
25.020	0.000036
25.025	0.000044
25.030	0.000023
25.035	0.000050
25.040	0.000029
25.045	0.000029
25.050	0.000016
25.055	0.000036
25.060	0.000036
25.065	0.000063
25.070	0.000043
25.075	0.000049
25.080	0.000036
25.085	0.000036
25.090	0.000023
25.095	0.000023
25.100	0.000009
25.105	0.000035
25.110	0.000002
25.115	0.000029
25.120	0.000029
25.125	0.000029
25.130	0.000022
25.135	0.000009
25.140	0.000056
25.145	0.000056
25.150	0.000029
25.155	0.000056
25.160	0.000050
25.165	0.000023
25.170	0.000008
25.175	0.000002
25.180	0.000022
25.185	0.000042
25.190	0.000042
25.195	0.000022
25.200	0.000049
25.205	0.000042
25.210	0.000022
25.215	0.000042
25.220	0.000015
25.225	0.000036
25.230	0.000036
25.235	0.000028
25.240	0.000035
25.245	0.000022
25.250	0.000022
25.255	0.000029
25.260	0.000056
25.265	0.000022
25.270	0.000055
25.275	0.000028
25.280	0.000028
25.285	0.000021
25.290	0.000029
25.295	0.000049
25.300	0.000028
25.305	0.000001
25.310	0.000055
25.315	0.000035
25.320	0.000035
25.325	0.000062
25.330	0.000021
25.335	0.000035
25.340	0.000055
25.345	0.000062
25.350	0.000028
25.355	0.000042
25.360	0.000049
25.365	0.000048
25.370	0.000034
25.375	0.000041
25.380	0.000048
25.385	0.000008
25.390	0.000062
25.395	0.000034
25.400	0.000014
25.405	0.000061
25.410	0.000041
25.415	-0.000000
25.420	0.000027
25.425	0.000028
25.430	0.000035
25.435	0.000020
25.440	0.000041
25.445	0.000020
25.450	0.000027
25.455	0.000014
25.460	0.000020
25.465	0.000027
25.470	0.000081
25.475	0.000027
25.480	0.000041
25.485	0.000014
25.490	0.000041
25.495	-0.000006
25.500	0.000021
25.505	0.000027
25.510	0.000007
25.515	0.000034
25.520	0.000027
25.525	0.000034
25.530	0.000041
25.535	0.000014
25.540	0.000027
25.545	-0.000007
25.550	0.000026
25.555	0.000034
25.560	0.000000
25.565	0.000020
25.570	0.000020
25.575	0.000033
25.580	0.000013
25.585	0.000033
25.590	0.000027
25.595	0.000040
25.600	-0.000001
25.605	0.000020
25.610	0.000026
25.615	-0.000001
25.620	0.000006
25.625	0.000014
25.630	0.000020
25.635	0.000053
25.640	0.000006
25.645	0.000033
25.650	0.000053
25.655	0.000019
25.660	0.000040
25.665	0.000020
25.670	0.000033
25.675	0.000033
25.680	0.000019
25.685	0.000026
25.690	0.000006
25.695	0.000033
25.700	0.000039
25.705	0.000026
25.710	0.000005
25.715	0.000060
25.720	0.000026
25.725	0.000026
25.730	0.000005
25.735	0.000032
25.740	0.000026
25.745	0.000046
25.750	0.000012
25.755	0.000033
25.760	0.000013
25.765	0.000019
25.770	0.000012
25.775	0.000012
25.780	0.000032
25.785	0.000019
25.790	-0.000008
25.795	0.000060
25.800	0.000032
25.805	0.000019
25.810	0.000012
25.815	0.000039
25.820	0.000012
25.825	0.000006
25.830	0.000019
25.835	-0.000002
25.840	0.000045
25.845	-0.000009
25.850	0.000039
25.855	0.000032
25.860	0.000018
25.865	0.000012
25.870	0.000012
25.875	0.000025
25.880	-0.000009
25.885	0.000012
25.890	0.000005
25.895	0.000006
25.900	0.000025
25.905	0.000032
25.910	0.000045
25.915	0.000018
25.920	0.000011
25.925	0.000032
25.930	-0.000009
25.935	0.000011
25.940	0.000018
25.945	0.000004
25.950	0.000045
25.955	0.000012
25.960	0.000019
25.965	0.000005
25.970	0.000011
25.975	0.000031
25.980	0.000018
25.985	0.000018
25.990	-0.000003
25.995	0.000011
26.000	0.000004
26.005	0.000031
26.010	0.000018
26.015	0.000004
26.020	0.000018
26.025	0.000032
26.030	-0.000009
26.035	0.000004
26.040	0.000018
26.045	0.000004
26.050	0.000044
26.055	0.000004
26.060	-0.000003
26.065	0.000017
26.070	0.000017
26.075	0.000011
26.080	0.000037
26.085	0.000038
26.090	0.000018
26.095	0.000004
26.100	0.000010
26.105	0.000024
26.110	0.000037
26.115	0.000024
26.120	0.000031
26.125	0.000024
26.130	0.000044
26.135	0.000010
26.140	-0.000017
26.145	0.000003
26.150	0.000017
26.155	0.000011
26.160	0.000025
26.165	-0.000003
26.170	0.000017
26.175	0.000024
26.180	-0.000024
26.185	-0.000003
26.190	0.000030
26.195	0.000030
26.200	0.000010
26.205	0.000023
26.210	0.000037
26.215	0.000003
26.220	0.000010
26.225	0.000045
26.230	0.000031
26.235	0.000003
26.240	-0.000011
26.245	0.000016
26.250	0.000016
26.255	0.000003
26.260	-0.000011
26.265	0.000044
26.270	0.000030
26.275	0.000010
26.280	0.000016
26.285	0.000017
26.290	0.000031
26.295	0.000031
26.300	0.000037
26.305	0.000030
26.310	0.000037
26.315	0.000016
26.320	0.000003
26.325	0.000003
26.330	0.000037
26.335	0.000036
26.340	0.000023
26.345	0.000036
26.350	0.000016
26.355	0.000017
26.360	0.000031
26.365	0.000031
26.370	0.000037
26.375	0.000030
26.380	0.000037
26.385	0.000016
26.390	0.000003
26.395	0.000003
26.400	0.000037
26.405	0.000036
26.410	0.000023
26.415	0.000036
