PK2650 Deflection Data
Z Position (mm)	60.000	W Position (deg)	0.00
Preform ID	Diameter (mm)	Time Stamp	Start Time	Operator	Serial Number
test	18	22-Mar-23 22:58:02	22-Mar-23 23:00:16	[no user]	56941311
Radius (mm)	Deflection
-13.680	0.000008
-13.675	0.000038
-13.670	0.000008
-13.665	0.000038
-13.660	0.000038
-13.655	0.000004
-13.650	0.000033
-13.645	0.000008
-13.640	0.000009
-13.635	0.000014
-13.630	0.000009
-13.625	-0.000006
-13.620	-0.000001
-13.615	0.000019
-13.610	0.000018
-13.605	0.000013
-13.600	-0.000001
-13.595	0.000019
-13.590	-0.000001
-13.585	-0.000016
-13.580	0.000028
-13.575	0.000034
-13.570	0.000029
-13.565	-0.000006
-13.560	-0.000001
-13.555	0.000009
-13.550	0.000004
-13.545	0.000009
-13.540	0.000004
-13.535	0.000019
-13.530	0.000009
-13.525	0.000024
-13.520	-0.000001
-13.515	0.000009
-13.510	0.000009
-13.505	0.000014
-13.500	-0.000006
-13.495	0.000004
-13.490	0.000004
-13.485	0.000024
-13.480	0.000004
-13.475	0.000009
-13.470	0.000009
-13.465	-0.000020
-13.460	0.000009
-13.455	-0.000006
-13.450	-0.000001
-13.445	-0.000011
-13.440	0.000014
-13.435	-0.000001
-13.430	-0.000006
-13.425	0.000024
-13.420	0.000019
-13.415	0.000009
-13.410	-0.000001
-13.405	0.000010
-13.400	0.000010
-13.395	-0.000010
-13.390	-0.000005
-13.385	-0.000000
-13.380	-0.000005
-13.375	-0.000030
-13.370	-0.000000
-13.365	-0.000005
-13.360	0.000015
-13.355	-0.000030
-13.350	-0.000015
-13.345	0.000010
-13.340	0.000030
-13.335	0.000005
-13.330	0.000000
-13.325	0.000020
-13.320	0.000020
-13.315	-0.000010
-13.310	0.000020
-13.305	0.000035
-13.300	0.000020
-13.295	0.000000
-13.290	0.000005
-13.285	0.000000
-13.280	0.000000
-13.275	0.000006
-13.270	0.000020
-13.265	-0.000005
-13.260	-0.000005
-13.255	0.000006
-13.250	0.000015
-13.245	0.000000
-13.240	-0.000014
-13.235	-0.000014
-13.230	-0.000004
-13.225	-0.000019
-13.220	0.000015
-13.215	0.000011
-13.210	0.000011
-13.205	0.000015
-13.200	-0.000014
-13.195	-0.000014
-13.190	-0.000009
-13.185	-0.000004
-13.180	-0.000019
-13.175	-0.000009
-13.170	-0.000004
-13.165	-0.000009
-13.160	0.000001
-13.155	-0.000024
-13.150	0.000011
-13.145	-0.000009
-13.140	0.000011
-13.135	0.000001
-13.130	0.000016
-13.125	0.000001
-13.120	-0.000009
-13.115	0.000001
-13.110	-0.000009
-13.105	0.000021
-13.100	0.000001
-13.095	-0.000024
-13.090	0.000016
-13.085	0.000046
-13.080	-0.000008
-13.075	0.000006
-13.070	0.000001
-13.065	0.000006
-13.060	-0.000008
-13.055	0.000006
-13.050	0.000002
-13.045	0.000007
-13.040	-0.000023
-13.035	-0.000023
-13.030	-0.000013
-13.025	-0.000013
-13.020	-0.000008
-13.015	-0.000023
-13.010	-0.000023
-13.005	-0.000003
-13.000	-0.000023
-12.995	-0.000018
-12.990	-0.000018
-12.985	-0.000018
-12.980	0.000002
-12.975	-0.000013
-12.970	-0.000033
-12.965	-0.000023
-12.960	-0.000008
-12.955	-0.000013
-12.950	-0.000023
-12.945	-0.000013
-12.940	-0.000003
-12.935	-0.000028
-12.930	-0.000018
-12.925	-0.000013
-12.920	-0.000013
-12.915	-0.000033
-12.910	-0.000038
-12.905	-0.000013
-12.900	-0.000017
-12.895	-0.000033
-12.890	0.000007
-12.885	-0.000017
-12.880	-0.000017
-12.875	-0.000023
-12.870	-0.000038
-12.865	-0.000003
-12.860	-0.000017
-12.855	0.000007
-12.850	-0.000028
-12.845	-0.000022
-12.840	-0.000002
-12.835	-0.000042
-12.830	-0.000023
-12.825	-0.000017
-12.820	-0.000007
-12.815	-0.000012
-12.810	-0.000057
-12.805	-0.000027
-12.800	-0.000017
-12.795	-0.000022
-12.790	-0.000022
-12.785	-0.000027
-12.780	-0.000032
-12.775	-0.000022
-12.770	-0.000027
-12.765	-0.000037
-12.760	-0.000037
-12.755	-0.000037
-12.750	-0.000037
-12.745	-0.000037
-12.740	-0.000017
-12.735	-0.000042
-12.730	-0.000042
-12.725	-0.000022
-12.720	-0.000022
-12.715	-0.000037
-12.710	-0.000027
-12.705	-0.000037
-12.700	-0.000042
-12.695	-0.000032
-12.690	-0.000047
-12.685	-0.000042
-12.680	-0.000052
-12.675	-0.000007
-12.670	-0.000027
-12.665	-0.000052
-12.660	-0.000032
-12.655	-0.000011
-12.650	-0.000012
-12.645	-0.000047
-12.640	-0.000032
-12.635	-0.000026
-12.630	-0.000036
-12.625	-0.000036
-12.620	-0.000021
-12.615	-0.000016
-12.610	-0.000021
-12.605	-0.000041
-12.600	-0.000041
-12.595	-0.000006
-12.590	-0.000021
-12.585	-0.000021
-12.580	-0.000036
-12.575	-0.000006
-12.570	-0.000011
-12.565	-0.000001
-12.560	-0.000031
-12.555	-0.000036
-12.550	-0.000031
-12.545	-0.000026
-12.540	-0.000016
-12.535	-0.000036
-12.530	-0.000021
-12.525	-0.000036
-12.520	-0.000040
-12.515	-0.000031
-12.510	-0.000041
-12.505	-0.000045
-12.500	-0.000040
-12.495	-0.000051
-12.490	-0.000041
-12.485	-0.000035
-12.480	-0.000035
-12.475	-0.000041
-12.470	-0.000021
-12.465	-0.000035
-12.460	-0.000020
-12.455	-0.000025
-12.450	-0.000040
-12.445	-0.000040
-12.440	-0.000035
-12.435	-0.000060
-12.430	-0.000021
-12.425	-0.000045
-12.420	-0.000040
-12.415	-0.000040
-12.410	-0.000040
-12.405	-0.000015
-12.400	-0.000035
-12.395	-0.000050
-12.390	-0.000045
-12.385	-0.000015
-12.380	-0.000055
-12.375	-0.000040
-12.370	-0.000045
-12.365	-0.000020
-12.360	-0.000040
-12.355	-0.000025
-12.350	-0.000040
-12.345	-0.000015
-12.340	-0.000045
-12.335	-0.000020
-12.330	-0.000035
-12.325	-0.000030
-12.320	-0.000030
-12.315	-0.000030
-12.310	-0.000060
-12.305	-0.000025
-12.300	-0.000050
-12.295	-0.000050
-12.290	-0.000035
-12.285	-0.000040
-12.280	-0.000035
-12.275	-0.000040
-12.270	-0.000015
-12.265	-0.000039
-12.260	-0.000029
-12.255	-0.000040
-12.250	-0.000035
-12.245	-0.000034
-12.240	-0.000035
-12.235	-0.000035
-12.230	-0.000050
-12.225	-0.000034
-12.220	-0.000049
-12.215	-0.000035
-12.210	-0.000035
-12.205	-0.000024
-12.200	-0.000039
-12.195	-0.000035
-12.190	-0.000049
-12.185	-0.000059
-12.180	-0.000039
-12.175	-0.000034
-12.170	-0.000034
-12.165	-0.000044
-12.160	-0.000039
-12.155	-0.000044
-12.150	-0.000049
-12.145	-0.000059
-12.140	-0.000044
-12.135	-0.000029
-12.130	-0.000034
-12.125	-0.000034
-12.120	-0.000039
-12.115	-0.000004
-12.110	-0.000019
-12.105	-0.000024
-12.100	-0.000024
-12.095	-0.000029
-12.090	-0.000029
-12.085	-0.000014
-12.080	-0.000024
-12.075	-0.000023
-12.070	-0.000028
-12.065	-0.000039
-12.060	-0.000043
-12.055	-0.000014
-12.050	-0.000034
-12.045	-0.000034
-12.040	-0.000063
-12.035	-0.000033
-12.030	-0.000033
-12.025	-0.000029
-12.020	-0.000024
-12.015	-0.000003
-12.010	-0.000028
-12.005	-0.000029
-12.000	-0.000038
-11.995	-0.000033
-11.990	-0.000053
-11.985	-0.000038
-11.980	-0.000053
-11.975	-0.000018
-11.970	-0.000023
-11.965	-0.000038
-11.960	-0.000018
-11.955	-0.000033
-11.950	-0.000023
-11.945	-0.000038
-11.940	-0.000018
-11.935	-0.000013
-11.930	-0.000038
-11.925	-0.000023
-11.920	-0.000013
-11.915	-0.000003
-11.910	-0.000028
-11.905	-0.000043
-11.900	-0.000033
-11.895	-0.000008
-11.890	-0.000013
-11.885	-0.000033
-11.880	-0.000003
-11.875	0.000007
-11.870	-0.000047
-11.865	-0.000033
-11.860	-0.000028
-11.855	-0.000027
-11.850	-0.000032
-11.845	-0.000027
-11.840	-0.000037
-11.835	-0.000017
-11.830	-0.000012
-11.825	-0.000032
-11.820	-0.000027
-11.815	-0.000007
-11.810	-0.000012
-11.805	-0.000052
-11.800	-0.000012
-11.795	-0.000012
-11.790	-0.000012
-11.785	-0.000012
-11.780	-0.000027
-11.775	-0.000002
-11.770	-0.000007
-11.765	-0.000032
-11.760	-0.000012
-11.755	-0.000012
-11.750	-0.000002
-11.745	-0.000022
-11.740	0.000003
-11.735	-0.000012
-11.730	-0.000012
-11.725	-0.000027
-11.720	-0.000012
-11.715	-0.000027
-11.710	-0.000022
-11.705	-0.000012
-11.700	-0.000031
-11.695	-0.000007
-11.690	-0.000012
-11.685	-0.000032
-11.680	-0.000031
-11.675	-0.000011
-11.670	-0.000026
-11.665	-0.000012
-11.660	-0.000021
-11.655	-0.000016
-11.650	-0.000026
-11.645	-0.000032
-11.640	-0.000026
-11.635	-0.000021
-11.630	-0.000006
-11.625	-0.000042
-11.620	-0.000032
-11.615	-0.000016
-11.610	-0.000031
-11.605	-0.000041
-11.600	-0.000046
-11.595	-0.000016
-11.590	-0.000001
-11.585	-0.000036
-11.580	-0.000031
-11.575	-0.000046
-11.570	-0.000036
-11.565	-0.000031
-11.560	-0.000046
-11.555	-0.000021
-11.550	-0.000026
-11.545	-0.000041
-11.540	-0.000041
-11.535	-0.000011
-11.530	-0.000036
-11.525	-0.000056
-11.520	-0.000046
-11.515	-0.000031
-11.510	-0.000016
-11.505	-0.000036
-11.500	-0.000036
-11.495	-0.000026
-11.490	-0.000021
-11.485	-0.000046
-11.480	-0.000036
-11.475	-0.000056
-11.470	-0.000021
-11.465	-0.000041
-11.460	-0.000031
-11.455	-0.000041
-11.450	-0.000051
-11.445	-0.000041
-11.440	-0.000046
-11.435	-0.000061
-11.430	-0.000056
-11.425	-0.000036
-11.420	-0.000041
-11.415	-0.000046
-11.410	-0.000031
-11.405	-0.000040
-11.400	-0.000045
-11.395	-0.000051
-11.390	-0.000026
-11.385	-0.000045
-11.380	-0.000031
-11.375	-0.000060
-11.370	-0.000045
-11.365	-0.000040
-11.360	-0.000016
-11.355	0.000014
-11.350	-0.000001
-11.345	-0.000050
-11.340	-0.000050
-11.335	-0.000031
-11.330	-0.000046
-11.325	-0.000045
-11.320	-0.000040
-11.315	-0.000016
-11.310	-0.000100
-11.305	-0.000100
-11.300	-0.000080
-11.295	-0.000045
-11.290	-0.000050
-11.285	-0.000045
-11.280	-0.000015
-11.275	-0.000050
-11.270	-0.000030
-11.265	-0.000020
-11.260	-0.000025
-11.255	-0.000020
-11.250	-0.000040
-11.245	-0.000020
-11.240	-0.000015
-11.235	-0.000025
-11.230	-0.000030
-11.225	-0.000015
-11.220	-0.000020
-11.215	-0.000035
-11.210	-0.000025
-11.205	-0.000025
-11.200	-0.000045
-11.195	-0.000040
-11.190	-0.000040
-11.185	-0.000015
-11.180	-0.000049
-11.175	-0.000020
-11.170	-0.000010
-11.165	-0.000035
-11.160	-0.000039
-11.155	-0.000055
-11.150	-0.000030
-11.145	-0.000039
-11.140	-0.000029
-11.135	-0.000059
-11.130	-0.000019
-11.125	-0.000044
-11.120	-0.000024
-11.115	-0.000044
-11.110	-0.000039
-11.105	-0.000019
-11.100	-0.000019
-11.095	-0.000044
-11.090	-0.000054
-11.085	-0.000034
-11.080	-0.000019
-11.075	-0.000024
-11.070	-0.000039
-11.065	-0.000014
-11.060	-0.000014
-11.055	-0.000039
-11.050	-0.000029
-11.045	-0.000024
-11.040	-0.000049
-11.035	-0.000029
-11.030	-0.000034
-11.025	-0.000024
-11.020	-0.000024
-11.015	-0.000024
-11.010	-0.000044
-11.005	-0.000019
-11.000	-0.000019
-10.995	-0.000044
-10.990	-0.000024
-10.985	-0.000019
-10.980	-0.000033
-10.975	-0.000044
-10.970	-0.000034
-10.965	-0.000008
-10.960	-0.000018
-10.955	-0.000039
-10.950	-0.000014
-10.945	-0.000013
-10.940	-0.000023
-10.935	-0.000043
-10.930	-0.000009
-10.925	-0.000023
-10.920	-0.000038
-10.915	-0.000019
-10.910	-0.000004
-10.905	-0.000013
-10.900	0.000002
-10.895	-0.000023
-10.890	-0.000013
-10.885	-0.000008
-10.880	-0.000008
-10.875	-0.000028
-10.870	-0.000018
-10.865	-0.000033
-10.860	-0.000008
-10.855	-0.000013
-10.850	-0.000008
-10.845	-0.000013
-10.840	-0.000018
-10.835	-0.000013
-10.830	0.000017
-10.825	-0.000023
-10.820	-0.000003
-10.815	-0.000028
-10.810	-0.000023
-10.805	-0.000043
-10.800	-0.000028
-10.795	-0.000023
-10.790	-0.000018
-10.785	-0.000008
-10.780	-0.000008
-10.775	-0.000008
-10.770	-0.000013
-10.765	-0.000013
-10.760	-0.000032
-10.755	-0.000017
-10.750	-0.000008
-10.745	-0.000003
-10.740	-0.000007
-10.735	-0.000022
-10.730	-0.000022
-10.725	-0.000037
-10.720	-0.000027
-10.715	-0.000027
-10.710	-0.000017
-10.705	-0.000028
-10.700	-0.000017
-10.695	-0.000012
-10.690	-0.000012
-10.685	-0.000022
-10.680	-0.000032
-10.675	0.000018
-10.670	-0.000027
-10.665	-0.000047
-10.660	-0.000017
-10.655	0.000008
-10.650	0.000008
-10.645	-0.000022
-10.640	-0.000022
-10.635	0.000013
-10.630	-0.000027
-10.625	-0.000037
-10.620	-0.000032
-10.615	-0.000032
-10.610	-0.000007
-10.605	-0.000027
-10.600	-0.000022
-10.595	-0.000022
-10.590	-0.000027
-10.585	-0.000007
-10.580	-0.000007
-10.575	-0.000037
-10.570	-0.000027
-10.565	-0.000027
-10.560	-0.000027
-10.555	-0.000017
-10.550	-0.000027
-10.545	-0.000042
-10.540	-0.000017
-10.535	-0.000012
-10.530	-0.000022
-10.525	-0.000036
-10.520	-0.000002
-10.515	-0.000012
-10.510	-0.000056
-10.505	-0.000012
-10.500	-0.000012
-10.495	-0.000026
-10.490	-0.000021
-10.485	-0.000036
-10.480	-0.000026
-10.475	-0.000016
-10.470	-0.000026
-10.465	-0.000031
-10.460	-0.000041
-10.455	-0.000031
-10.450	-0.000046
-10.445	-0.000036
-10.440	-0.000016
-10.435	-0.000031
-10.430	0.000014
-10.425	-0.000016
-10.420	-0.000026
-10.415	-0.000026
-10.410	-0.000016
-10.405	-0.000016
-10.400	-0.000026
-10.395	-0.000001
-10.390	-0.000031
-10.385	0.000004
-10.380	-0.000031
-10.375	-0.000031
-10.370	-0.000011
-10.365	-0.000016
-10.360	-0.000016
-10.355	-0.000011
-10.350	-0.000016
-10.345	-0.000011
-10.340	-0.000040
-10.335	-0.000051
-10.330	-0.000026
-10.325	-0.000015
-10.320	0.000004
-10.315	-0.000011
-10.310	-0.000001
-10.305	-0.000005
-10.300	-0.000015
-10.295	-0.000010
-10.290	-0.000035
-10.285	-0.000000
-10.280	0.000005
-10.275	-0.000035
-10.270	-0.000010
-10.265	0.000010
-10.260	-0.000010
-10.255	-0.000035
-10.250	-0.000025
-10.245	-0.000020
-10.240	-0.000015
-10.235	-0.000030
-10.230	-0.000035
-10.225	-0.000040
-10.220	-0.000020
-10.215	-0.000040
-10.210	-0.000045
-10.205	-0.000020
-10.200	-0.000025
-10.195	-0.000010
-10.190	-0.000020
-10.185	-0.000005
-10.180	-0.000010
-10.175	-0.000025
-10.170	-0.000020
-10.165	-0.000015
-10.160	0.000000
-10.155	-0.000030
-10.150	-0.000020
-10.145	-0.000010
-10.140	-0.000015
-10.135	-0.000030
-10.130	-0.000025
-10.125	-0.000025
-10.120	-0.000035
-10.115	-0.000035
-10.110	-0.000020
-10.105	-0.000010
-10.100	-0.000010
-10.095	-0.000015
-10.090	-0.000035
-10.085	-0.000029
-10.080	-0.000049
-10.075	-0.000039
-10.070	-0.000015
-10.065	-0.000034
-10.060	-0.000029
-10.055	-0.000009
-10.050	-0.000019
-10.045	-0.000029
-10.040	-0.000024
-10.035	-0.000019
-10.030	-0.000029
-10.025	-0.000019
-10.020	-0.000024
-10.015	-0.000039
-10.010	-0.000024
-10.005	-0.000019
-10.000	-0.000019
-9.995	-0.000009
-9.990	-0.000014
-9.985	-0.000029
-9.980	-0.000034
-9.975	-0.000009
-9.970	-0.000034
-9.965	-0.000034
-9.960	-0.000054
-9.955	-0.000044
-9.950	-0.000029
-9.945	-0.000019
-9.940	-0.000039
-9.935	-0.000024
-9.930	-0.000019
-9.925	-0.000014
-9.920	-0.000019
-9.915	-0.000024
-9.910	-0.000024
-9.905	-0.000019
-9.900	-0.000019
-9.895	-0.000014
-9.890	-0.000024
-9.885	-0.000019
-9.880	-0.000024
-9.875	-0.000014
-9.870	-0.000004
-9.865	-0.000038
-9.860	-0.000019
-9.855	-0.000038
-9.850	-0.000024
-9.845	-0.000028
-9.840	-0.000013
-9.835	-0.000018
-9.830	-0.000023
-9.825	-0.000028
-9.820	-0.000013
-9.815	-0.000023
-9.810	-0.000023
-9.805	-0.000013
-9.800	-0.000038
-9.795	-0.000008
-9.790	-0.000028
-9.785	-0.000013
-9.780	-0.000028
-9.775	-0.000008
-9.770	-0.000013
-9.765	-0.000033
-9.760	-0.000008
-9.755	-0.000043
-9.750	-0.000008
-9.745	-0.000023
-9.740	-0.000013
-9.735	-0.000008
-9.730	-0.000023
-9.725	-0.000023
-9.720	-0.000013
-9.715	-0.000003
-9.710	-0.000023
-9.705	-0.000008
-9.700	-0.000013
-9.695	-0.000012
-9.690	-0.000013
-9.685	-0.000013
-9.680	-0.000018
-9.675	-0.000017
-9.670	-0.000008
-9.665	-0.000013
-9.660	-0.000023
-9.655	-0.000007
-9.650	-0.000042
-9.645	-0.000032
-9.640	-0.000032
-9.635	-0.000012
-9.630	-0.000027
-9.625	-0.000017
-9.620	-0.000012
-9.615	-0.000012
-9.610	-0.000022
-9.605	-0.000007
-9.600	-0.000017
-9.595	-0.000027
-9.590	-0.000027
-9.585	-0.000017
-9.580	-0.000032
-9.575	-0.000012
-9.570	-0.000017
-9.565	-0.000022
-9.560	-0.000037
-9.555	-0.000002
-9.550	-0.000017
-9.545	-0.000037
-9.540	-0.000037
-9.535	-0.000007
-9.530	-0.000002
-9.525	-0.000027
-9.520	-0.000022
-9.515	0.000008
-9.510	-0.000007
-9.505	-0.000007
-9.500	-0.000027
-9.495	-0.000007
-9.490	-0.000017
-9.485	-0.000017
-9.480	-0.000012
-9.475	-0.000026
-9.470	-0.000016
-9.465	-0.000021
-9.460	-0.000001
-9.455	-0.000011
-9.450	-0.000036
-9.445	-0.000011
-9.440	-0.000021
-9.435	-0.000026
-9.430	-0.000036
-9.425	-0.000031
-9.420	-0.000011
-9.415	-0.000006
-9.410	-0.000011
-9.405	-0.000026
-9.400	0.000004
-9.395	-0.000021
-9.390	-0.000001
-9.385	-0.000001
-9.380	-0.000001
-9.375	-0.000001
-9.370	-0.000001
-9.365	0.000005
-9.360	-0.000005
-9.355	0.000014
-9.350	-0.000010
-9.345	0.000014
-9.340	0.000014
-9.335	-0.000020
-9.330	0.000005
-9.325	-0.000035
-9.320	-0.000015
-9.315	-0.000015
-9.310	-0.000010
-9.305	-0.000025
-9.300	-0.000045
-9.295	-0.000000
-9.290	-0.000020
-9.285	-0.000035
-9.280	0.000059
-9.275	-0.000010
-9.270	-0.000045
-9.265	-0.000020
-9.260	-0.000040
-9.255	-0.000015
-9.250	-0.000010
-9.245	-0.000010
-9.240	-0.000030
-9.235	-0.000024
-9.230	-0.000010
-9.225	0.000005
-9.220	0.000005
-9.215	0.000005
-9.210	-0.000025
-9.205	-0.000000
-9.200	-0.000015
-9.195	0.000015
-9.190	-0.000025
-9.185	-0.000020
-9.180	-0.000015
-9.175	-0.000005
-9.170	-0.000025
-9.165	-0.000015
-9.160	-0.000025
-9.155	-0.000024
-9.150	0.000001
-9.145	-0.000019
-9.140	-0.000024
-9.135	0.000001
-9.130	-0.000029
-9.125	-0.000005
-9.120	-0.000019
-9.115	-0.000024
-9.110	-0.000019
-9.105	-0.000034
-9.100	-0.000024
-9.095	-0.000024
-9.090	-0.000014
-9.085	-0.000024
-9.080	-0.000044
-9.075	-0.000029
-9.070	-0.000019
-9.065	-0.000049
-9.060	-0.000039
-9.055	-0.000029
-9.050	0.000006
-9.045	-0.000014
-9.040	-0.000009
-9.035	-0.000008
-9.030	0.000001
-9.025	-0.000029
-9.020	-0.000019
-9.015	-0.000018
-9.010	-0.000013
-9.005	-0.000038
-9.000	-0.000043
-8.995	-0.000023
-8.990	-0.000038
-8.985	-0.000048
-8.980	-0.000053
-8.975	-0.000013
-8.970	-0.000043
-8.965	-0.000043
-8.960	-0.000033
-8.955	-0.000013
-8.950	-0.000018
-8.945	-0.000038
-8.940	-0.000043
-8.935	-0.000028
-8.930	-0.000058
-8.925	-0.000033
-8.920	-0.000068
-8.915	-0.000023
-8.910	-0.000048
-8.905	-0.000048
-8.900	-0.000068
-8.895	-0.000028
-8.890	-0.000033
-8.885	-0.000083
-8.880	-0.000028
-8.875	-0.000048
-8.870	-0.000063
-8.865	-0.000058
-8.860	-0.000048
-8.855	-0.000043
-8.850	-0.000063
-8.845	-0.000053
-8.840	-0.000058
-8.835	-0.000052
-8.830	-0.000048
-8.825	-0.000077
-8.820	-0.000072
-8.815	-0.000047
-8.810	-0.000072
-8.805	-0.000057
-8.800	-0.000047
-8.795	-0.000042
-8.790	-0.000032
-8.785	-0.000067
-8.780	-0.000047
-8.775	-0.000057
-8.770	-0.000057
-8.765	-0.000092
-8.760	-0.000092
-8.755	-0.000077
-8.750	-0.000096
-8.745	-0.000082
-8.740	-0.000072
-8.735	-0.000096
-8.730	-0.000101
-8.725	-0.000096
-8.720	-0.000106
-8.715	-0.000141
-8.710	-0.000161
-8.705	-0.000220
-8.700	-0.000374
-8.695	-0.001175
-8.690	-0.003583
-8.685	-0.008854
-8.680	-0.016647
-8.675	-0.026784
-8.670	-0.037981
-8.665	-0.050898
-8.660	-0.065536
-8.655	-0.080694
-8.650	-0.092541
-8.645	-0.098456
-8.640	-0.099418
-8.635	-0.096085
-8.630	-0.084454
-8.625	-0.071823
-8.620	-0.063956
-8.615	-0.058593
-8.610	-0.054546
-8.605	-0.051198
-8.600	-0.048879
-8.595	-0.043777
-8.590	-0.043359
-8.585	-0.043700
-8.580	-0.042142
-8.575	-0.040711
-8.570	-0.039332
-8.565	-0.038104
-8.560	-0.036995
-8.555	-0.035939
-8.550	-0.034989
-8.545	-0.034121
-8.540	-0.033284
-8.535	-0.032502
-8.530	-0.031837
-8.525	-0.031150
-8.520	-0.030526
-8.515	-0.029921
-8.510	-0.029330
-8.505	-0.028817
-8.500	-0.028329
-8.495	-0.027868
-8.490	-0.027422
-8.485	-0.027028
-8.480	-0.026630
-8.475	-0.026255
-8.470	-0.025874
-8.465	-0.025554
-8.460	-0.025221
-8.455	-0.024910
-8.450	-0.024590
-8.445	-0.024284
-8.440	-0.023990
-8.435	-0.023696
-8.430	-0.023435
-8.425	-0.023154
-8.420	-0.022901
-8.415	-0.022632
-8.410	-0.022419
-8.405	-0.022170
-8.400	-0.021958
-8.395	-0.021739
-8.390	-0.021525
-8.385	-0.021318
-8.380	-0.021138
-8.375	-0.020939
-8.370	-0.020759
-8.365	-0.020545
-8.360	-0.020396
-8.355	-0.020189
-8.350	-0.020024
-8.345	-0.019867
-8.340	-0.019680
-8.335	-0.019564
-8.330	-0.019408
-8.325	-0.019238
-8.320	-0.019105
-8.315	-0.018951
-8.310	-0.018799
-8.305	-0.018668
-8.300	-0.018516
-8.295	-0.018365
-8.290	-0.018257
-8.285	-0.018135
-8.280	-0.017990
-8.275	-0.017880
-8.270	-0.017745
-8.265	-0.017652
-8.260	-0.017531
-8.255	-0.017442
-8.250	-0.017330
-8.245	-0.017202
-8.240	-0.017119
-8.235	-0.017011
-8.230	-0.016875
-8.225	-0.016799
-8.220	-0.016708
-8.215	-0.016624
-8.210	-0.016512
-8.205	-0.016404
-8.200	-0.016291
-8.195	-0.016215
-8.190	-0.016069
-8.185	-0.016000
-8.180	-0.015943
-8.175	-0.015848
-8.170	-0.015724
-8.165	-0.015650
-8.160	-0.015573
-8.155	-0.015512
-8.150	-0.015408
-8.145	-0.015332
-8.140	-0.015260
-8.135	-0.015165
-8.130	-0.015111
-8.125	-0.015018
-8.120	-0.014939
-8.115	-0.014873
-8.110	-0.014811
-8.105	-0.014722
-8.100	-0.014648
-8.095	-0.014582
-8.090	-0.014511
-8.085	-0.014455
-8.080	-0.014382
-8.075	-0.014281
-8.070	-0.014210
-8.065	-0.014162
-8.060	-0.014061
-8.055	-0.014013
-8.050	-0.013954
-8.045	-0.013891
-8.040	-0.013839
-8.035	-0.013766
-8.030	-0.013674
-8.025	-0.013643
-8.020	-0.013599
-8.015	-0.013540
-8.010	-0.013478
-8.005	-0.013421
-8.000	-0.013357
-7.995	-0.013314
-7.990	-0.013271
-7.985	-0.013230
-7.980	-0.013135
-7.975	-0.013101
-7.970	-0.013038
-7.965	-0.012987
-7.960	-0.012921
-7.955	-0.012916
-7.950	-0.012883
-7.945	-0.012869
-7.940	-0.012841
-7.935	-0.012825
-7.930	-0.012766
-7.925	-0.012713
-7.920	-0.012640
-7.915	-0.012571
-7.910	-0.012503
-7.905	-0.012429
-7.900	-0.012402
-7.895	-0.012338
-7.890	-0.012263
-7.885	-0.012200
-7.880	-0.012174
-7.875	-0.012092
-7.870	-0.012037
-7.865	-0.011977
-7.860	-0.011956
-7.855	-0.011901
-7.850	-0.011864
-7.845	-0.011807
-7.840	-0.011765
-7.835	-0.011713
-7.830	-0.011667
-7.825	-0.011650
-7.820	-0.011600
-7.815	-0.011550
-7.810	-0.011486
-7.805	-0.011467
-7.800	-0.011402
-7.795	-0.011352
-7.790	-0.011368
-7.785	-0.011332
-7.780	-0.011287
-7.775	-0.011212
-7.770	-0.011198
-7.765	-0.011165
-7.760	-0.011150
-7.755	-0.011093
-7.750	-0.011028
-7.745	-0.011033
-7.740	-0.011035
-7.735	-0.010985
-7.730	-0.010962
-7.725	-0.010884
-7.720	-0.010879
-7.715	-0.010827
-7.710	-0.010792
-7.705	-0.010741
-7.700	-0.010742
-7.695	-0.010688
-7.690	-0.010643
-7.685	-0.010649
-7.680	-0.010608
-7.675	-0.010580
-7.670	-0.010531
-7.665	-0.010511
-7.660	-0.010500
-7.655	-0.010471
-7.650	-0.010412
-7.645	-0.010407
-7.640	-0.010392
-7.635	-0.010320
-7.630	-0.010292
-7.625	-0.010279
-7.620	-0.010261
-7.615	-0.010204
-7.610	-0.010169
-7.605	-0.010148
-7.600	-0.010140
-7.595	-0.010121
-7.590	-0.010066
-7.585	-0.010022
-7.580	-0.010022
-7.575	-0.009972
-7.570	-0.009951
-7.565	-0.009943
-7.560	-0.009896
-7.555	-0.009864
-7.550	-0.009838
-7.545	-0.009791
-7.540	-0.009776
-7.535	-0.009793
-7.530	-0.009719
-7.525	-0.009699
-7.520	-0.009680
-7.515	-0.009678
-7.510	-0.009635
-7.505	-0.009615
-7.500	-0.009572
-7.495	-0.009550
-7.490	-0.009513
-7.485	-0.009493
-7.480	-0.009480
-7.475	-0.009456
-7.470	-0.009414
-7.465	-0.009404
-7.460	-0.009388
-7.455	-0.009330
-7.450	-0.009297
-7.445	-0.009277
-7.440	-0.009266
-7.435	-0.009246
-7.430	-0.009236
-7.425	-0.009196
-7.420	-0.009179
-7.415	-0.009168
-7.410	-0.009161
-7.405	-0.009127
-7.400	-0.009081
-7.395	-0.009073
-7.390	-0.009051
-7.385	-0.009026
-7.380	-0.009010
-7.375	-0.008944
-7.370	-0.008940
-7.365	-0.008917
-7.360	-0.008929
-7.355	-0.008889
-7.350	-0.008857
-7.345	-0.008848
-7.340	-0.008827
-7.335	-0.008816
-7.330	-0.008780
-7.325	-0.008764
-7.320	-0.008730
-7.315	-0.008727
-7.310	-0.008683
-7.305	-0.008658
-7.300	-0.008663
-7.295	-0.008616
-7.290	-0.008606
-7.285	-0.008587
-7.280	-0.008563
-7.275	-0.008549
-7.270	-0.008539
-7.265	-0.008518
-7.260	-0.008479
-7.255	-0.008467
-7.250	-0.008433
-7.245	-0.008438
-7.240	-0.008400
-7.235	-0.008380
-7.230	-0.008384
-7.225	-0.008353
-7.220	-0.008333
-7.215	-0.008314
-7.210	-0.008286
-7.205	-0.008276
-7.200	-0.008256
-7.195	-0.008241
-7.190	-0.008235
-7.185	-0.008197
-7.180	-0.008167
-7.175	-0.008172
-7.170	-0.008152
-7.165	-0.008151
-7.160	-0.008125
-7.155	-0.008104
-7.150	-0.008073
-7.145	-0.008069
-7.140	-0.008056
-7.135	-0.008037
-7.130	-0.008015
-7.125	-0.007999
-7.120	-0.007945
-7.115	-0.007966
-7.110	-0.007941
-7.105	-0.007921
-7.100	-0.007928
-7.095	-0.007894
-7.090	-0.007859
-7.085	-0.007862
-7.080	-0.007832
-7.075	-0.007810
-7.070	-0.007812
-7.065	-0.007803
-7.060	-0.007781
-7.055	-0.007731
-7.050	-0.007732
-7.045	-0.007725
-7.040	-0.007708
-7.035	-0.007726
-7.030	-0.007674
-7.025	-0.007658
-7.020	-0.007634
-7.015	-0.007642
-7.010	-0.007631
-7.005	-0.007606
-7.000	-0.007578
-6.995	-0.007578
-6.990	-0.007546
-6.985	-0.007550
-6.980	-0.007539
-6.975	-0.007518
-6.970	-0.007475
-6.965	-0.007469
-6.960	-0.007472
-6.955	-0.007441
-6.950	-0.007424
-6.945	-0.007413
-6.940	-0.007374
-6.935	-0.007382
-6.930	-0.007394
-6.925	-0.007359
-6.920	-0.007348
-6.915	-0.007297
-6.910	-0.007306
-6.905	-0.007301
-6.900	-0.007274
-6.895	-0.007248
-6.890	-0.007237
-6.885	-0.007216
-6.880	-0.007230
-6.875	-0.007225
-6.870	-0.007203
-6.865	-0.007191
-6.860	-0.007159
-6.855	-0.007185
-6.850	-0.007164
-6.845	-0.007122
-6.840	-0.007121
-6.835	-0.007096
-6.830	-0.007103
-6.825	-0.007086
-6.820	-0.007037
-6.815	-0.007043
-6.810	-0.007027
-6.805	-0.007005
-6.800	-0.006998
-6.795	-0.007021
-6.790	-0.006962
-6.785	-0.006943
-6.780	-0.006945
-6.775	-0.006945
-6.770	-0.006943
-6.765	-0.006917
-6.760	-0.006896
-6.755	-0.006905
-6.750	-0.006859
-6.745	-0.006858
-6.740	-0.006859
-6.735	-0.006853
-6.730	-0.006843
-6.725	-0.006826
-6.720	-0.006776
-6.715	-0.006774
-6.710	-0.006766
-6.705	-0.006773
-6.700	-0.006751
-6.695	-0.006718
-6.690	-0.006717
-6.685	-0.006715
-6.680	-0.006711
-6.675	-0.006693
-6.670	-0.006652
-6.665	-0.006661
-6.660	-0.006642
-6.655	-0.006633
-6.650	-0.006631
-6.645	-0.006618
-6.640	-0.006616
-6.635	-0.006609
-6.630	-0.006593
-6.625	-0.006529
-6.620	-0.006548
-6.615	-0.006577
-6.610	-0.006537
-6.605	-0.006540
-6.600	-0.006518
-6.595	-0.006477
-6.590	-0.006480
-6.585	-0.006461
-6.580	-0.006490
-6.575	-0.006454
-6.570	-0.006438
-6.565	-0.006409
-6.560	-0.006429
-6.555	-0.006411
-6.550	-0.006400
-6.545	-0.006383
-6.540	-0.006369
-6.535	-0.006368
-6.530	-0.006344
-6.525	-0.006353
-6.520	-0.006319
-6.515	-0.006346
-6.510	-0.006325
-6.505	-0.006300
-6.500	-0.006273
-6.495	-0.006267
-6.490	-0.006267
-6.485	-0.006247
-6.480	-0.006249
-6.475	-0.006238
-6.470	-0.006232
-6.465	-0.006204
-6.460	-0.006185
-6.455	-0.006178
-6.450	-0.006185
-6.445	-0.006184
-6.440	-0.006164
-6.435	-0.006164
-6.430	-0.006174
-6.425	-0.006140
-6.420	-0.006106
-6.415	-0.006107
-6.410	-0.006084
-6.405	-0.006092
-6.400	-0.006097
-6.395	-0.006068
-6.390	-0.006059
-6.385	-0.006065
-6.380	-0.006038
-6.375	-0.006014
-6.370	-0.006023
-6.365	-0.006015
-6.360	-0.006010
-6.355	-0.005983
-6.350	-0.005971
-6.345	-0.005975
-6.340	-0.005943
-6.335	-0.005957
-6.330	-0.005953
-6.325	-0.005905
-6.320	-0.005939
-6.315	-0.005900
-6.310	-0.005899
-6.305	-0.005886
-6.300	-0.005858
-6.295	-0.005868
-6.290	-0.005869
-6.285	-0.005839
-6.280	-0.005847
-6.275	-0.005822
-6.270	-0.005815
-6.265	-0.005826
-6.260	-0.005779
-6.255	-0.005790
-6.250	-0.005791
-6.245	-0.005768
-6.240	-0.005767
-6.235	-0.005754
-6.230	-0.005739
-6.225	-0.005739
-6.220	-0.005722
-6.215	-0.005713
-6.210	-0.005710
-6.205	-0.005694
-6.200	-0.005698
-6.195	-0.005685
-6.190	-0.005663
-6.185	-0.005648
-6.180	-0.005642
-6.175	-0.005654
-6.170	-0.005616
-6.165	-0.005641
-6.160	-0.005631
-6.155	-0.005605
-6.150	-0.005608
-6.145	-0.005616
-6.140	-0.005573
-6.135	-0.005592
-6.130	-0.005553
-6.125	-0.005557
-6.120	-0.005559
-6.115	-0.005525
-6.110	-0.005525
-6.105	-0.005526
-6.100	-0.005503
-6.095	-0.005505
-6.090	-0.005482
-6.085	-0.005492
-6.080	-0.005503
-6.075	-0.005476
-6.070	-0.005476
-6.065	-0.005442
-6.060	-0.005424
-6.055	-0.005423
-6.050	-0.005424
-6.045	-0.005403
-6.040	-0.005418
-6.035	-0.005405
-6.030	-0.005390
-6.025	-0.005385
-6.020	-0.005370
-6.015	-0.005369
-6.010	-0.005347
-6.005	-0.005352
-6.000	-0.005350
-5.995	-0.005326
-5.990	-0.005305
-5.985	-0.005320
-5.980	-0.005301
-5.975	-0.005281
-5.970	-0.005289
-5.965	-0.005282
-5.960	-0.005276
-5.955	-0.005258
-5.950	-0.005261
-5.945	-0.005246
-5.940	-0.005239
-5.935	-0.005231
-5.930	-0.005209
-5.925	-0.005203
-5.920	-0.005200
-5.915	-0.005200
-5.910	-0.005208
-5.905	-0.005164
-5.900	-0.005177
-5.895	-0.005165
-5.890	-0.005157
-5.885	-0.005156
-5.880	-0.005144
-5.875	-0.005152
-5.870	-0.005140
-5.865	-0.005125
-5.860	-0.005108
-5.855	-0.005092
-5.850	-0.005092
-5.845	-0.005077
-5.840	-0.005081
-5.835	-0.005094
-5.830	-0.005080
-5.825	-0.005054
-5.820	-0.005076
-5.815	-0.005033
-5.810	-0.005030
-5.805	-0.005022
-5.800	-0.005024
-5.795	-0.004981
-5.790	-0.005024
-5.785	-0.004984
-5.780	-0.004988
-5.775	-0.004991
-5.770	-0.004986
-5.765	-0.004986
-5.760	-0.004969
-5.755	-0.004926
-5.750	-0.004931
-5.745	-0.004936
-5.740	-0.004932
-5.735	-0.004927
-5.730	-0.004921
-5.725	-0.004916
-5.720	-0.004872
-5.715	-0.004885
-5.710	-0.004885
-5.705	-0.004859
-5.700	-0.004882
-5.695	-0.004855
-5.690	-0.004866
-5.685	-0.004852
-5.680	-0.004841
-5.675	-0.004821
-5.670	-0.004821
-5.665	-0.004811
-5.660	-0.004801
-5.655	-0.004817
-5.650	-0.004818
-5.645	-0.004802
-5.640	-0.004796
-5.635	-0.004764
-5.630	-0.004762
-5.625	-0.004761
-5.620	-0.004745
-5.615	-0.004766
-5.610	-0.004766
-5.605	-0.004724
-5.600	-0.004737
-5.595	-0.004731
-5.590	-0.004702
-5.585	-0.004689
-5.580	-0.004696
-5.575	-0.004702
-5.570	-0.004684
-5.565	-0.004664
-5.560	-0.004686
-5.555	-0.004664
-5.550	-0.004633
-5.545	-0.004679
-5.540	-0.004662
-5.535	-0.004626
-5.530	-0.004623
-5.525	-0.004627
-5.520	-0.004610
-5.515	-0.004612
-5.510	-0.004607
-5.505	-0.004607
-5.500	-0.004611
-5.495	-0.004577
-5.490	-0.004576
-5.485	-0.004571
-5.480	-0.004536
-5.475	-0.004565
-5.470	-0.004546
-5.465	-0.004557
-5.460	-0.004544
-5.455	-0.004526
-5.450	-0.004515
-5.445	-0.004530
-5.440	-0.004498
-5.435	-0.004496
-5.430	-0.004481
-5.425	-0.004484
-5.420	-0.004474
-5.415	-0.004480
-5.410	-0.004460
-5.405	-0.004469
-5.400	-0.004447
-5.395	-0.004446
-5.390	-0.004431
-5.385	-0.004406
-5.380	-0.004424
-5.375	-0.004439
-5.370	-0.004410
-5.365	-0.004416
-5.360	-0.004419
-5.355	-0.004394
-5.350	-0.004408
-5.345	-0.004365
-5.340	-0.004384
-5.335	-0.004373
-5.330	-0.004343
-5.325	-0.004356
-5.320	-0.004368
-5.315	-0.004340
-5.310	-0.004320
-5.305	-0.004321
-5.300	-0.004334
-5.295	-0.004320
-5.290	-0.004310
-5.285	-0.004292
-5.280	-0.004276
-5.275	-0.004289
-5.270	-0.004285
-5.265	-0.004283
-5.260	-0.004290
-5.255	-0.004257
-5.250	-0.004262
-5.245	-0.004248
-5.240	-0.004241
-5.235	-0.004227
-5.230	-0.004251
-5.225	-0.004216
-5.220	-0.004202
-5.215	-0.004236
-5.210	-0.004222
-5.205	-0.004222
-5.200	-0.004213
-5.195	-0.004214
-5.190	-0.004178
-5.185	-0.004168
-5.180	-0.004190
-5.175	-0.004154
-5.170	-0.004149
-5.165	-0.004162
-5.160	-0.004147
-5.155	-0.004153
-5.150	-0.004148
-5.145	-0.004137
-5.140	-0.004130
-5.135	-0.004119
-5.130	-0.004115
-5.125	-0.004107
-5.120	-0.004099
-5.115	-0.004080
-5.110	-0.004128
-5.105	-0.004082
-5.100	-0.004105
-5.095	-0.004078
-5.090	-0.004067
-5.085	-0.004054
-5.080	-0.004050
-5.075	-0.004041
-5.070	-0.004031
-5.065	-0.004016
-5.060	-0.004011
-5.055	-0.004030
-5.050	-0.004025
-5.045	-0.004029
-5.040	-0.004021
-5.035	-0.004003
-5.030	-0.003998
-5.025	-0.003985
-5.020	-0.003953
-5.015	-0.003951
-5.010	-0.003951
-5.005	-0.003949
-5.000	-0.003942
-4.995	-0.003947
-4.990	-0.003952
-4.985	-0.003942
-4.980	-0.003938
-4.975	-0.003937
-4.970	-0.003902
-4.965	-0.003928
-4.960	-0.003898
-4.955	-0.003879
-4.950	-0.003904
-4.945	-0.003883
-4.940	-0.003876
-4.935	-0.003894
-4.930	-0.003865
-4.925	-0.003883
-4.920	-0.003879
-4.915	-0.003840
-4.910	-0.003845
-4.905	-0.003856
-4.900	-0.003830
-4.895	-0.003839
-4.890	-0.003804
-4.885	-0.003804
-4.880	-0.003800
-4.875	-0.003819
-4.870	-0.003804
-4.865	-0.003798
-4.860	-0.003810
-4.855	-0.003787
-4.850	-0.003776
-4.845	-0.003781
-4.840	-0.003751
-4.835	-0.003755
-4.830	-0.003760
-4.825	-0.003724
-4.820	-0.003735
-4.815	-0.003725
-4.810	-0.003740
-4.805	-0.003728
-4.800	-0.003714
-4.795	-0.003725
-4.790	-0.003720
-4.785	-0.003711
-4.780	-0.003690
-4.775	-0.003700
-4.770	-0.003696
-4.765	-0.003682
-4.760	-0.003656
-4.755	-0.003695
-4.750	-0.003690
-4.745	-0.003649
-4.740	-0.003668
-4.735	-0.003646
-4.730	-0.003625
-4.725	-0.003635
-4.720	-0.003623
-4.715	-0.003607
-4.710	-0.003607
-4.705	-0.003601
-4.700	-0.003603
-4.695	-0.003613
-4.690	-0.003613
-4.685	-0.003592
-4.680	-0.003589
-4.675	-0.003571
-4.670	-0.003576
-4.665	-0.003593
-4.660	-0.003572
-4.655	-0.003563
-4.650	-0.003553
-4.645	-0.003556
-4.640	-0.003544
-4.635	-0.003545
-4.630	-0.003550
-4.625	-0.003533
-4.620	-0.003521
-4.615	-0.003530
-4.610	-0.003535
-4.605	-0.003519
-4.600	-0.003539
-4.595	-0.003506
-4.590	-0.003504
-4.585	-0.003477
-4.580	-0.003474
-4.575	-0.003464
-4.570	-0.003461
-4.565	-0.003470
-4.560	-0.003465
-4.555	-0.003444
-4.550	-0.003454
-4.545	-0.003453
-4.540	-0.003444
-4.535	-0.003450
-4.530	-0.003426
-4.525	-0.003449
-4.520	-0.003421
-4.515	-0.003421
-4.510	-0.003411
-4.505	-0.003421
-4.500	-0.003411
-4.495	-0.003381
-4.490	-0.003396
-4.485	-0.003358
-4.480	-0.003372
-4.475	-0.003358
-4.470	-0.003352
-4.465	-0.003347
-4.460	-0.003358
-4.455	-0.003361
-4.450	-0.003351
-4.445	-0.003340
-4.440	-0.003347
-4.435	-0.003326
-4.430	-0.003317
-4.425	-0.003332
-4.420	-0.003320
-4.415	-0.003297
-4.410	-0.003277
-4.405	-0.003293
-4.400	-0.003263
-4.395	-0.003276
-4.390	-0.003276
-4.385	-0.003269
-4.380	-0.003284
-4.375	-0.003289
-4.370	-0.003265
-4.365	-0.003284
-4.360	-0.003264
-4.355	-0.003242
-4.350	-0.003232
-4.345	-0.003254
-4.340	-0.003228
-4.335	-0.003224
-4.330	-0.003214
-4.325	-0.003195
-4.320	-0.003170
-4.315	-0.003201
-4.310	-0.003210
-4.305	-0.003224
-4.300	-0.003206
-4.295	-0.003200
-4.290	-0.003190
-4.285	-0.003210
-4.280	-0.003190
-4.275	-0.003158
-4.270	-0.003172
-4.265	-0.003148
-4.260	-0.003145
-4.255	-0.003155
-4.250	-0.003140
-4.245	-0.003120
-4.240	-0.003142
-4.235	-0.003145
-4.230	-0.003140
-4.225	-0.003130
-4.220	-0.003136
-4.215	-0.003145
-4.210	-0.003132
-4.205	-0.003111
-4.200	-0.003101
-4.195	-0.003098
-4.190	-0.003095
-4.185	-0.003091
-4.180	-0.003109
-4.175	-0.003086
-4.170	-0.003052
-4.165	-0.003043
-4.160	-0.003066
-4.155	-0.003050
-4.150	-0.003064
-4.145	-0.003009
-4.140	-0.003051
-4.135	-0.003052
-4.130	-0.003057
-4.125	-0.003032
-4.120	-0.003037
-4.115	-0.003029
-4.110	-0.003034
-4.105	-0.003021
-4.100	-0.003010
-4.095	-0.002994
-4.090	-0.002989
-4.085	-0.002980
-4.080	-0.002999
-4.075	-0.003022
-4.070	-0.002991
-4.065	-0.002979
-4.060	-0.002984
-4.055	-0.002982
-4.050	-0.002992
-4.045	-0.002956
-4.040	-0.002968
-4.035	-0.002971
-4.030	-0.002985
-4.025	-0.002962
-4.020	-0.002982
-4.015	-0.002955
-4.010	-0.002970
-4.005	-0.002947
-4.000	-0.002959
-3.995	-0.002959
-3.990	-0.002940
-3.985	-0.002929
-3.980	-0.002935
-3.975	-0.002967
-3.970	-0.002942
-3.965	-0.002946
-3.960	-0.002962
-3.955	-0.002922
-3.950	-0.002961
-3.945	-0.002942
-3.940	-0.002947
-3.935	-0.002960
-3.930	-0.002960
-3.925	-0.002970
-3.920	-0.002973
-3.915	-0.002982
-3.910	-0.002997
-3.905	-0.002996
-3.900	-0.002992
-3.895	-0.003010
-3.890	-0.003069
-3.885	-0.003068
-3.880	-0.003117
-3.875	-0.003117
-3.870	-0.003184
-3.865	-0.003239
-3.860	-0.003308
-3.855	-0.003424
-3.850	-0.003535
-3.845	-0.003668
-3.840	-0.003828
-3.835	-0.004030
-3.830	-0.004305
-3.825	-0.004612
-3.820	-0.004955
-3.815	-0.005406
-3.810	-0.005907
-3.805	-0.006499
-3.800	-0.007239
-3.795	-0.008106
-3.790	-0.009111
-3.785	-0.010210
-3.780	-0.010945
-3.775	-0.010383
-3.770	-0.008446
-3.765	-0.006145
-3.760	-0.003924
-3.755	-0.001341
-3.750	0.002252
-3.745	0.006421
-3.740	0.008036
-3.735	0.006641
-3.730	0.003827
-3.725	0.000743
-3.720	-0.001874
-3.715	-0.003943
-3.710	-0.005445
-3.705	-0.006561
-3.700	-0.007357
-3.695	-0.007971
-3.690	-0.008521
-3.685	-0.009045
-3.680	-0.009558
-3.675	-0.010080
-3.670	-0.010551
-3.665	-0.011071
-3.660	-0.011584
-3.655	-0.012050
-3.650	-0.012532
-3.645	-0.012979
-3.640	-0.013360
-3.635	-0.013704
-3.630	-0.013938
-3.625	-0.014000
-3.620	-0.013674
-3.615	-0.012478
-3.610	-0.010286
-3.605	-0.007356
-3.600	-0.004397
-3.595	-0.001450
-3.590	0.001626
-3.585	0.004949
-3.580	0.007317
-3.575	0.007635
-3.570	0.006070
-3.565	0.003574
-3.560	0.001089
-3.555	-0.001136
-3.550	-0.002811
-3.545	-0.004049
-3.540	-0.004869
-3.535	-0.005459
-3.530	-0.005883
-3.525	-0.006204
-3.520	-0.006515
-3.515	-0.006770
-3.510	-0.007091
-3.505	-0.007470
-3.500	-0.007857
-3.495	-0.008267
-3.490	-0.008650
-3.485	-0.009063
-3.480	-0.009443
-3.475	-0.009844
-3.470	-0.010190
-3.465	-0.010524
-3.460	-0.010826
-3.455	-0.011078
-3.450	-0.011252
-3.445	-0.011218
-3.440	-0.010845
-3.435	-0.009606
-3.430	-0.007349
-3.425	-0.004496
-3.420	-0.001737
-3.415	0.001180
-3.410	0.004172
-3.405	0.007163
-3.400	0.008874
-3.395	0.008401
-3.390	0.006349
-3.385	0.003693
-3.380	0.001251
-3.375	-0.000770
-3.370	-0.002174
-3.365	-0.003189
-3.360	-0.003852
-3.355	-0.004366
-3.350	-0.004748
-3.345	-0.005119
-3.340	-0.005402
-3.335	-0.005761
-3.330	-0.006069
-3.325	-0.006423
-3.320	-0.006717
-3.315	-0.007040
-3.310	-0.007376
-3.305	-0.007766
-3.300	-0.008121
-3.295	-0.008532
-3.290	-0.008852
-3.285	-0.009136
-3.280	-0.009443
-3.275	-0.009717
-3.270	-0.009961
-3.265	-0.010124
-3.260	-0.010170
-3.255	-0.009931
-3.250	-0.009015
-3.245	-0.007161
-3.240	-0.004597
-3.235	-0.001883
-3.230	0.000731
-3.225	0.003503
-3.220	0.006301
-3.215	0.008558
-3.210	0.009143
-3.205	0.007898
-3.200	0.005683
-3.195	0.003225
-3.190	0.001168
-3.185	-0.000523
-3.180	-0.001716
-3.175	-0.002630
-3.170	-0.003213
-3.165	-0.003677
-3.160	-0.004050
-3.155	-0.004308
-3.150	-0.004564
-3.145	-0.004797
-3.140	-0.005070
-3.135	-0.005386
-3.130	-0.005664
-3.125	-0.005964
-3.120	-0.006264
-3.115	-0.006654
-3.110	-0.007009
-3.105	-0.007320
-3.100	-0.007630
-3.095	-0.007897
-3.090	-0.008198
-3.085	-0.008469
-3.080	-0.008725
-3.075	-0.008920
-3.070	-0.009078
-3.065	-0.009204
-3.060	-0.009247
-3.055	-0.009095
-3.050	-0.008437
-3.045	-0.006922
-3.040	-0.004692
-3.035	-0.002084
-3.030	0.000413
-3.025	0.003126
-3.020	0.005854
-3.015	0.008374
-3.010	0.009491
-3.005	0.008767
-3.000	0.006813
-2.995	0.004485
-2.990	0.002362
-2.985	0.000579
-2.980	-0.000822
-2.975	-0.001820
-2.970	-0.002516
-2.965	-0.002965
-2.960	-0.003294
-2.955	-0.003516
-2.950	-0.003750
-2.945	-0.003959
-2.940	-0.004181
-2.935	-0.004454
-2.930	-0.004742
-2.925	-0.005005
-2.920	-0.005300
-2.915	-0.005512
-2.910	-0.005777
-2.905	-0.006054
-2.900	-0.006363
-2.895	-0.006682
-2.890	-0.006970
-2.885	-0.007270
-2.880	-0.007515
-2.875	-0.007770
-2.870	-0.007964
-2.865	-0.008182
-2.860	-0.008324
-2.855	-0.008468
-2.850	-0.008616
-2.845	-0.008608
-2.840	-0.008395
-2.835	-0.007615
-2.830	-0.006048
-2.825	-0.003762
-2.820	-0.001328
-2.815	0.001181
-2.810	0.003667
-2.805	0.006267
-2.800	0.008551
-2.795	0.009457
-2.790	0.008774
-2.785	0.006963
-2.780	0.004836
-2.775	0.002771
-2.770	0.001091
-2.765	-0.000251
-2.760	-0.001203
-2.755	-0.001879
-2.750	-0.002319
-2.745	-0.002588
-2.740	-0.002830
-2.735	-0.003031
-2.730	-0.003211
-2.725	-0.003430
-2.720	-0.003649
-2.715	-0.003867
-2.710	-0.004038
-2.705	-0.004262
-2.700	-0.004461
-2.695	-0.004725
-2.690	-0.005003
-2.685	-0.005245
-2.680	-0.005499
-2.675	-0.005735
-2.670	-0.005999
-2.665	-0.006194
-2.660	-0.006394
-2.655	-0.006667
-2.650	-0.006886
-2.645	-0.007189
-2.640	-0.007440
-2.635	-0.007602
-2.630	-0.007704
-2.625	-0.007819
-2.620	-0.007897
-2.615	-0.007907
-2.610	-0.007837
-2.605	-0.007480
-2.600	-0.006644
-2.595	-0.004986
-2.590	-0.002853
-2.585	-0.000537
-2.580	0.001747
-2.575	0.004186
-2.570	0.006543
-2.565	0.008483
-2.560	0.009167
-2.555	0.008411
-2.550	0.006765
-2.545	0.004776
-2.540	0.002916
-2.535	0.001314
-2.530	0.000099
-2.525	-0.000746
-2.520	-0.001291
-2.515	-0.001640
-2.510	-0.001893
-2.505	-0.002144
-2.500	-0.002359
-2.495	-0.002566
-2.490	-0.002786
-2.485	-0.003000
-2.480	-0.003153
-2.475	-0.003348
-2.470	-0.003525
-2.465	-0.003663
-2.460	-0.003776
-2.455	-0.003933
-2.450	-0.004053
-2.445	-0.004196
-2.440	-0.004334
-2.435	-0.004579
-2.430	-0.004855
-2.425	-0.005145
-2.420	-0.005415
-2.415	-0.005649
-2.410	-0.005829
-2.405	-0.005974
-2.400	-0.006141
-2.395	-0.006312
-2.390	-0.006447
-2.385	-0.006593
-2.380	-0.006727
-2.375	-0.006857
-2.370	-0.006971
-2.365	-0.007016
-2.360	-0.007036
-2.355	-0.007028
-2.350	-0.006932
-2.345	-0.006564
-2.340	-0.005685
-2.335	-0.004084
-2.330	-0.002063
-2.325	0.000094
-2.320	0.002302
-2.315	0.004687
-2.310	0.006981
-2.305	0.008659
-2.300	0.009086
-2.295	0.008287
-2.290	0.006797
-2.285	0.004946
-2.280	0.003194
-2.275	0.001704
-2.270	0.000666
-2.265	-0.000047
-2.260	-0.000567
-2.255	-0.000971
-2.250	-0.001236
-2.245	-0.001534
-2.240	-0.001791
-2.235	-0.002019
-2.230	-0.002196
-2.225	-0.002354
-2.220	-0.002490
-2.215	-0.002604
-2.210	-0.002697
-2.205	-0.002771
-2.200	-0.002828
-2.195	-0.002909
-2.190	-0.003045
-2.185	-0.003235
-2.180	-0.003407
-2.175	-0.003605
-2.170	-0.003794
-2.165	-0.003957
-2.160	-0.004122
-2.155	-0.004256
-2.150	-0.004421
-2.145	-0.004579
-2.140	-0.004770
-2.135	-0.004931
-2.130	-0.005075
-2.125	-0.005251
-2.120	-0.005446
-2.115	-0.005629
-2.110	-0.005793
-2.105	-0.005932
-2.100	-0.006024
-2.095	-0.006078
-2.090	-0.006137
-2.085	-0.006170
-2.080	-0.006184
-2.075	-0.006209
-2.070	-0.006168
-2.065	-0.006114
-2.060	-0.005935
-2.055	-0.005526
-2.050	-0.004682
-2.045	-0.003268
-2.040	-0.001569
-2.035	0.000317
-2.030	0.002292
-2.025	0.004492
-2.020	0.006599
-2.015	0.008213
-2.010	0.008767
-2.005	0.008285
-2.000	0.007083
-1.995	0.005537
-1.990	0.004090
-1.985	0.002868
-1.980	0.001892
-1.975	0.001134
-1.970	0.000515
-1.965	-0.000026
-1.960	-0.000442
-1.955	-0.000791
-1.950	-0.001070
-1.945	-0.001256
-1.940	-0.001427
-1.935	-0.001581
-1.930	-0.001693
-1.925	-0.001770
-1.920	-0.001854
-1.915	-0.002003
-1.910	-0.002120
-1.905	-0.002224
-1.900	-0.002303
-1.895	-0.002344
-1.890	-0.002430
-1.885	-0.002470
-1.880	-0.002542
-1.875	-0.002636
-1.870	-0.002774
-1.865	-0.002906
-1.860	-0.003074
-1.855	-0.003300
-1.850	-0.003508
-1.845	-0.003689
-1.840	-0.003873
-1.835	-0.004047
-1.830	-0.004165
-1.825	-0.004258
-1.820	-0.004388
-1.815	-0.004509
-1.810	-0.004604
-1.805	-0.004717
-1.800	-0.004794
-1.795	-0.004882
-1.790	-0.004908
-1.785	-0.004971
-1.780	-0.004998
-1.775	-0.005061
-1.770	-0.005136
-1.765	-0.005171
-1.760	-0.005216
-1.755	-0.005218
-1.750	-0.005189
-1.745	-0.005180
-1.740	-0.005135
-1.735	-0.005069
-1.730	-0.004985
-1.725	-0.004812
-1.720	-0.004505
-1.715	-0.003748
-1.710	-0.002698
-1.705	-0.001236
-1.700	0.000343
-1.695	0.002089
-1.690	0.003973
-1.685	0.005955
-1.680	0.007426
-1.675	0.008163
-1.670	0.008027
-1.665	0.007276
-1.660	0.006253
-1.655	0.005148
-1.650	0.004109
-1.645	0.003103
-1.640	0.002216
-1.635	0.001365
-1.630	0.000712
-1.625	0.000222
-1.620	-0.000097
-1.615	-0.000352
-1.610	-0.000524
-1.605	-0.000631
-1.600	-0.000764
-1.595	-0.000902
-1.590	-0.001044
-1.585	-0.001122
-1.580	-0.001172
-1.575	-0.001166
-1.570	-0.001146
-1.565	-0.001187
-1.560	-0.001285
-1.555	-0.001382
-1.550	-0.001548
-1.545	-0.001706
-1.540	-0.001848
-1.535	-0.001919
-1.530	-0.002002
-1.525	-0.002086
-1.520	-0.002174
-1.515	-0.002258
-1.510	-0.002346
-1.505	-0.002414
-1.500	-0.002493
-1.495	-0.002548
-1.490	-0.002621
-1.485	-0.002719
-1.480	-0.002772
-1.475	-0.002844
-1.470	-0.002884
-1.465	-0.002913
-1.460	-0.002947
-1.455	-0.002967
-1.450	-0.003039
-1.445	-0.003132
-1.440	-0.003227
-1.435	-0.003342
-1.430	-0.003483
-1.425	-0.003571
-1.420	-0.003640
-1.415	-0.003677
-1.410	-0.003743
-1.405	-0.003793
-1.400	-0.003829
-1.395	-0.003821
-1.390	-0.003809
-1.385	-0.003823
-1.380	-0.003816
-1.375	-0.003833
-1.370	-0.003857
-1.365	-0.003914
-1.360	-0.003937
-1.355	-0.003969
-1.350	-0.003988
-1.345	-0.004000
-1.340	-0.003998
-1.335	-0.003980
-1.330	-0.003965
-1.325	-0.003951
-1.320	-0.003872
-1.315	-0.003801
-1.310	-0.003693
-1.305	-0.003519
-1.300	-0.003156
-1.295	-0.002529
-1.290	-0.001703
-1.285	-0.000655
-1.280	0.000501
-1.275	0.001827
-1.270	0.003211
-1.265	0.004629
-1.260	0.005794
-1.255	0.006617
-1.250	0.006900
-1.245	0.006781
-1.240	0.006352
-1.235	0.005706
-1.230	0.004932
-1.225	0.004072
-1.220	0.003337
-1.215	0.002663
-1.210	0.002072
-1.205	0.001544
-1.200	0.001072
-1.195	0.000729
-1.190	0.000513
-1.185	0.000381
-1.180	0.000278
-1.175	0.000081
-1.170	-0.000076
-1.165	-0.000203
-1.160	-0.000360
-1.155	-0.000478
-1.150	-0.000537
-1.145	-0.000606
-1.140	-0.000690
-1.135	-0.000714
-1.130	-0.000724
-1.125	-0.000753
-1.120	-0.000807
-1.115	-0.000865
-1.110	-0.000953
-1.105	-0.000997
-1.100	-0.001031
-1.095	-0.001050
-1.090	-0.001094
-1.085	-0.001134
-1.080	-0.001109
-1.075	-0.001088
-1.070	-0.001133
-1.065	-0.001163
-1.060	-0.001201
-1.055	-0.001230
-1.050	-0.001269
-1.045	-0.001260
-1.040	-0.001250
-1.035	-0.001262
-1.030	-0.001286
-1.025	-0.001300
-1.020	-0.001349
-1.015	-0.001414
-1.010	-0.001482
-1.005	-0.001535
-1.000	-0.001629
-0.995	-0.001669
-0.990	-0.001714
-0.985	-0.001752
-0.980	-0.001713
-0.975	-0.001688
-0.970	-0.001708
-0.965	-0.001791
-0.960	-0.001895
-0.955	-0.002002
-0.950	-0.002080
-0.945	-0.002100
-0.940	-0.002095
-0.935	-0.002072
-0.930	-0.002042
-0.925	-0.001994
-0.920	-0.001949
-0.915	-0.001906
-0.910	-0.001941
-0.905	-0.001999
-0.900	-0.002053
-0.895	-0.002144
-0.890	-0.002179
-0.885	-0.002192
-0.880	-0.002203
-0.875	-0.002204
-0.870	-0.002168
-0.865	-0.002126
-0.860	-0.002062
-0.855	-0.002000
-0.850	-0.001918
-0.845	-0.001859
-0.840	-0.001889
-0.835	-0.001983
-0.830	-0.002061
-0.825	-0.002125
-0.820	-0.002158
-0.815	-0.002117
-0.810	-0.002029
-0.805	-0.001936
-0.800	-0.001861
-0.795	-0.001812
-0.790	-0.001787
-0.785	-0.001744
-0.780	-0.001661
-0.775	-0.001588
-0.770	-0.001524
-0.765	-0.001499
-0.760	-0.001474
-0.755	-0.001455
-0.750	-0.001415
-0.745	-0.001370
-0.740	-0.001350
-0.735	-0.001296
-0.730	-0.001175
-0.725	-0.001107
-0.720	-0.001019
-0.715	-0.000917
-0.710	-0.000863
-0.705	-0.000759
-0.700	-0.000652
-0.695	-0.000573
-0.690	-0.000528
-0.685	-0.000445
-0.680	-0.000377
-0.675	-0.000274
-0.670	-0.000215
-0.665	-0.000112
-0.660	-0.000028
-0.655	0.000099
-0.650	0.000325
-0.645	0.000741
-0.640	0.001362
-0.635	0.002293
-0.630	0.003621
-0.625	0.005405
-0.620	0.007602
-0.615	0.010177
-0.610	0.012925
-0.605	0.015942
-0.600	0.018796
-0.595	0.021462
-0.590	0.023684
-0.585	0.025437
-0.580	0.026628
-0.575	0.027184
-0.570	0.027199
-0.565	0.026716
-0.560	0.025818
-0.555	0.024505
-0.550	0.022918
-0.545	0.021130
-0.540	0.019316
-0.535	0.017497
-0.530	0.015899
-0.525	0.014604
-0.520	0.013606
-0.515	0.012898
-0.510	0.012359
-0.505	0.011877
-0.500	0.011413
-0.495	0.010871
-0.490	0.010328
-0.485	0.009742
-0.480	0.009199
-0.475	0.008679
-0.470	0.008175
-0.465	0.007710
-0.460	0.007204
-0.455	0.006673
-0.450	0.006149
-0.445	0.005658
-0.440	0.005332
-0.435	0.005091
-0.430	0.004964
-0.425	0.004870
-0.420	0.004838
-0.415	0.004927
-0.410	0.005078
-0.405	0.005249
-0.400	0.005458
-0.395	0.005660
-0.390	0.005840
-0.385	0.005995
-0.380	0.006092
-0.375	0.006085
-0.370	0.005883
-0.365	0.005475
-0.360	0.004903
-0.355	0.004366
-0.350	0.004146
-0.345	0.004282
-0.340	0.004592
-0.335	0.004847
-0.330	0.004959
-0.325	0.004841
-0.320	0.004569
-0.315	0.004224
-0.310	0.004062
-0.305	0.004101
-0.300	0.004164
-0.295	0.004273
-0.290	0.004511
-0.285	0.004679
-0.280	0.004398
-0.275	0.003870
-0.270	0.003561
-0.265	0.003616
-0.260	0.004009
-0.255	0.004476
-0.250	0.004302
-0.245	0.003535
-0.240	0.002706
-0.235	0.002442
-0.230	0.002790
-0.225	0.003146
-0.220	0.003508
-0.215	0.003746
-0.210	0.003764
-0.205	0.003200
-0.200	0.002697
-0.195	0.002445
-0.190	0.001924
-0.185	0.001192
-0.180	0.000578
-0.175	-0.000051
-0.170	-0.000252
-0.165	0.000455
-0.160	0.000514
-0.155	-0.000380
-0.150	-0.000752
-0.145	-0.002145
-0.140	-0.002208
-0.135	-0.002169
-0.130	-0.003020
-0.125	-0.002232
-0.120	-0.001668
-0.115	-0.001620
-0.110	-0.004625
-0.105	-0.007055
-0.100	-0.005340
-0.095	-0.002709
-0.090	-0.001645
-0.085	-0.003405
-0.080	-0.005355
-0.075	-0.003986
-0.070	-0.003054
-0.065	-0.002162
-0.060	-0.002688
-0.055	-0.002410
-0.050	-0.004328
-0.045	-0.002765
-0.040	-0.002909
-0.035	-0.001598
-0.030	-0.005453
-0.025	-0.000226
-0.020	-0.003930
-0.015	0.003269
-0.010	-0.002454
-0.005	-0.001033
0.000	-0.000287
0.005	0.002283
0.010	0.000318
0.015	-0.000461
0.020	0.003909
0.025	0.000304
0.030	-0.000689
0.035	0.003375
0.040	0.001853
0.045	0.006572
0.050	0.002969
0.055	0.000913
0.060	0.006638
0.065	0.005019
0.070	0.000378
0.075	-0.001627
0.080	0.003049
0.085	0.009872
0.090	0.007602
0.095	0.003208
0.100	0.005543
0.105	0.004715
0.110	0.005325
0.115	0.003774
0.120	0.002404
0.125	0.003589
0.130	0.003793
0.135	0.002202
0.140	0.000726
0.145	0.000363
0.150	0.001068
0.155	0.002767
0.160	0.002948
0.165	0.002006
0.170	-0.000078
0.175	-0.001317
0.180	-0.001057
0.185	-0.000451
0.190	0.000309
0.195	-0.000005
0.200	-0.001202
0.205	-0.002089
0.210	-0.002351
0.215	-0.002592
0.220	-0.003172
0.225	-0.004283
0.230	-0.005450
0.235	-0.005523
0.240	-0.004316
0.245	-0.003208
0.250	-0.003211
0.255	-0.003997
0.260	-0.004489
0.265	-0.004146
0.270	-0.003657
0.275	-0.003610
0.280	-0.004048
0.285	-0.004415
0.290	-0.004307
0.295	-0.003742
0.300	-0.003346
0.305	-0.003453
0.310	-0.003747
0.315	-0.003824
0.320	-0.003652
0.325	-0.003610
0.330	-0.003890
0.335	-0.004400
0.340	-0.004855
0.345	-0.005040
0.350	-0.004915
0.355	-0.004568
0.360	-0.004281
0.365	-0.004079
0.370	-0.004150
0.375	-0.004577
0.380	-0.005225
0.385	-0.005823
0.390	-0.006140
0.395	-0.006115
0.400	-0.005856
0.405	-0.005482
0.410	-0.005241
0.415	-0.005159
0.420	-0.005321
0.425	-0.005606
0.430	-0.005871
0.435	-0.006101
0.440	-0.006214
0.445	-0.006269
0.450	-0.006307
0.455	-0.006382
0.460	-0.006524
0.465	-0.006769
0.470	-0.007077
0.475	-0.007409
0.480	-0.007781
0.485	-0.008157
0.490	-0.008636
0.495	-0.009185
0.500	-0.009830
0.505	-0.010588
0.510	-0.011359
0.515	-0.012144
0.520	-0.013001
0.525	-0.013970
0.530	-0.015017
0.535	-0.016204
0.540	-0.017536
0.545	-0.018967
0.550	-0.020396
0.555	-0.021922
0.560	-0.023341
0.565	-0.024751
0.570	-0.025983
0.575	-0.027019
0.580	-0.027767
0.585	-0.028098
0.590	-0.027769
0.595	-0.026670
0.600	-0.024761
0.605	-0.022120
0.610	-0.019164
0.615	-0.015961
0.620	-0.012697
0.625	-0.009433
0.630	-0.006739
0.635	-0.004541
0.640	-0.002885
0.645	-0.001730
0.650	-0.001022
0.655	-0.000600
0.660	-0.000341
0.665	-0.000223
0.670	-0.000017
0.675	0.000096
0.680	0.000218
0.685	0.000317
0.690	0.000370
0.695	0.000473
0.700	0.000576
0.705	0.000640
0.710	0.000714
0.715	0.000777
0.720	0.000826
0.725	0.000895
0.730	0.000954
0.735	0.000979
0.740	0.000979
0.745	0.001042
0.750	0.001106
0.755	0.001250
0.760	0.001407
0.765	0.001559
0.770	0.001629
0.775	0.001721
0.780	0.001765
0.785	0.001781
0.790	0.001799
0.795	0.001852
0.800	0.001861
0.805	0.001877
0.810	0.001886
0.815	0.001881
0.820	0.001862
0.825	0.001866
0.830	0.001896
0.835	0.001908
0.840	0.001942
0.845	0.001975
0.850	0.001956
0.855	0.001958
0.860	0.001967
0.865	0.001951
0.870	0.001962
0.875	0.001983
0.880	0.002007
0.885	0.002016
0.890	0.002061
0.895	0.002060
0.900	0.002129
0.905	0.002195
0.910	0.002248
0.915	0.002299
0.920	0.002290
0.925	0.002198
0.930	0.002142
0.935	0.002004
0.940	0.001881
0.945	0.001779
0.950	0.001714
0.955	0.001745
0.960	0.001784
0.965	0.001857
0.970	0.001857
0.975	0.001795
0.980	0.001701
0.985	0.001651
0.990	0.001534
0.995	0.001437
1.000	0.001364
1.005	0.001318
1.010	0.001294
1.015	0.001271
1.020	0.001290
1.025	0.001320
1.030	0.001364
1.035	0.001423
1.040	0.001492
1.045	0.001542
1.050	0.001487
1.055	0.001458
1.060	0.001360
1.065	0.001261
1.070	0.001207
1.075	0.001163
1.080	0.001163
1.085	0.001173
1.090	0.001158
1.095	0.001119
1.100	0.001075
1.105	0.000996
1.110	0.000888
1.115	0.000820
1.120	0.000702
1.125	0.000648
1.130	0.000584
1.135	0.000510
1.140	0.000505
1.145	0.000505
1.150	0.000466
1.155	0.000412
1.160	0.000348
1.165	0.000221
1.170	0.000113
1.175	-0.000039
1.180	-0.000132
1.185	-0.000264
1.190	-0.000421
1.195	-0.000646
1.200	-0.000891
1.205	-0.001146
1.210	-0.001455
1.215	-0.001868
1.220	-0.002407
1.225	-0.003105
1.230	-0.003869
1.235	-0.004657
1.240	-0.005419
1.245	-0.006077
1.250	-0.006623
1.255	-0.006921
1.260	-0.006906
1.265	-0.006419
1.270	-0.005514
1.275	-0.004211
1.280	-0.002697
1.285	-0.001097
1.290	0.000432
1.295	0.001715
1.300	0.002600
1.305	0.003107
1.310	0.003326
1.315	0.003428
1.320	0.003488
1.325	0.003552
1.330	0.003613
1.335	0.003661
1.340	0.003735
1.345	0.003722
1.350	0.003738
1.355	0.003770
1.360	0.003805
1.365	0.003864
1.370	0.003894
1.375	0.003927
1.380	0.003961
1.385	0.003984
1.390	0.003982
1.395	0.003950
1.400	0.003901
1.405	0.003833
1.410	0.003777
1.415	0.003712
1.420	0.003662
1.425	0.003590
1.430	0.003569
1.435	0.003587
1.440	0.003563
1.445	0.003506
1.450	0.003406
1.455	0.003314
1.460	0.003210
1.465	0.003071
1.470	0.002979
1.475	0.002859
1.480	0.002737
1.485	0.002586
1.490	0.002438
1.495	0.002317
1.500	0.002238
1.505	0.002156
1.510	0.002145
1.515	0.002072
1.520	0.002018
1.525	0.001993
1.530	0.001948
1.535	0.001862
1.540	0.001822
1.545	0.001752
1.550	0.001688
1.555	0.001621
1.560	0.001592
1.565	0.001498
1.570	0.001425
1.575	0.001327
1.580	0.001214
1.585	0.001111
1.590	0.001043
1.595	0.000974
1.600	0.000910
1.605	0.000773
1.610	0.000621
1.615	0.000434
1.620	0.000145
1.625	-0.000160
1.630	-0.000542
1.635	-0.000969
1.640	-0.001454
1.645	-0.002084
1.650	-0.002835
1.655	-0.003770
1.660	-0.004913
1.665	-0.006139
1.670	-0.007228
1.675	-0.007918
1.680	-0.008026
1.685	-0.007444
1.690	-0.006287
1.695	-0.004721
1.700	-0.002928
1.705	-0.000794
1.710	0.001328
1.715	0.003082
1.720	0.004103
1.725	0.004634
1.730	0.004850
1.735	0.005000
1.740	0.005093
1.745	0.005153
1.750	0.005193
1.755	0.005236
1.760	0.005218
1.765	0.005173
1.770	0.005116
1.775	0.005066
1.780	0.005012
1.785	0.004966
1.790	0.004885
1.795	0.004793
1.800	0.004688
1.805	0.004621
1.810	0.004512
1.815	0.004419
1.820	0.004272
1.825	0.004155
1.830	0.004014
1.835	0.003890
1.840	0.003792
1.845	0.003690
1.850	0.003592
1.855	0.003504
1.860	0.003372
1.865	0.003245
1.870	0.003072
1.875	0.002938
1.880	0.002805
1.885	0.002659
1.890	0.002585
1.895	0.002481
1.900	0.002388
1.905	0.002291
1.910	0.002207
1.915	0.002192
1.920	0.002094
1.925	0.002012
1.930	0.001870
1.935	0.001670
1.940	0.001459
1.945	0.001207
1.950	0.001020
1.955	0.000809
1.960	0.000573
1.965	0.000298
1.970	-0.000025
1.975	-0.000472
1.980	-0.001124
1.985	-0.002118
1.990	-0.003351
1.995	-0.004819
2.000	-0.006320
2.005	-0.007666
2.010	-0.008483
2.015	-0.008617
2.020	-0.007940
2.025	-0.006616
2.030	-0.004916
2.035	-0.002700
2.040	-0.000187
2.045	0.002391
2.050	0.004287
2.055	0.005353
2.060	0.005804
2.065	0.006012
2.070	0.006120
2.075	0.006219
2.080	0.006220
2.085	0.006224
2.090	0.006154
2.095	0.006079
2.100	0.006005
2.105	0.005918
2.110	0.005817
2.115	0.005688
2.120	0.005583
2.125	0.005423
2.130	0.005281
2.135	0.005116
2.140	0.004919
2.145	0.004701
2.150	0.004520
2.155	0.004337
2.160	0.004184
2.165	0.004024
2.170	0.003829
2.175	0.003657
2.180	0.003505
2.185	0.003352
2.190	0.003203
2.195	0.003119
2.200	0.002987
2.205	0.002854
2.210	0.002696
2.215	0.002537
2.220	0.002370
2.225	0.002275
2.230	0.002129
2.235	0.001980
2.240	0.001847
2.245	0.001682
2.250	0.001475
2.255	0.001213
2.260	0.000781
2.265	0.000192
2.270	-0.000706
2.275	-0.001831
2.280	-0.003171
2.285	-0.004784
2.290	-0.006390
2.295	-0.007852
2.300	-0.008703
2.305	-0.008676
2.310	-0.007830
2.315	-0.006346
2.320	-0.004206
2.325	-0.001410
2.330	0.001589
2.335	0.004281
2.340	0.005924
2.345	0.006683
2.350	0.006952
2.355	0.007061
2.360	0.007049
2.365	0.007002
2.370	0.006905
2.375	0.006782
2.380	0.006706
2.385	0.006590
2.390	0.006454
2.395	0.006289
2.400	0.006138
2.405	0.005952
2.410	0.005757
2.415	0.005537
2.420	0.005385
2.425	0.005170
2.430	0.004979
2.435	0.004789
2.440	0.004604
2.445	0.004399
2.450	0.004175
2.455	0.003986
2.460	0.003809
2.465	0.003633
2.470	0.003470
2.475	0.003296
2.480	0.003139
2.485	0.003027
2.490	0.002900
2.495	0.002737
2.500	0.002583
2.505	0.002403
2.510	0.002128
2.515	0.001716
2.520	0.001186
2.525	0.000419
2.530	-0.000509
2.535	-0.001786
2.540	-0.003291
2.545	-0.005084
2.550	-0.006817
2.555	-0.008243
2.560	-0.008863
2.565	-0.008474
2.570	-0.007269
2.575	-0.005409
2.580	-0.002928
2.585	0.000272
2.590	0.003514
2.595	0.005943
2.600	0.007178
2.605	0.007666
2.610	0.007890
2.615	0.007929
2.620	0.007915
2.625	0.007857
2.630	0.007732
2.635	0.007543
2.640	0.007356
2.645	0.007165
2.650	0.006977
2.655	0.006762
2.660	0.006564
2.665	0.006330
2.670	0.006061
2.675	0.005802
2.680	0.005551
2.685	0.005294
2.690	0.005048
2.695	0.004765
2.700	0.004454
2.705	0.004221
2.710	0.004000
2.715	0.003836
2.720	0.003683
2.725	0.003537
2.730	0.003361
2.735	0.003165
2.740	0.002954
2.745	0.002601
2.750	0.002220
2.755	0.001667
2.760	0.000911
2.765	-0.000135
2.770	-0.001464
2.775	-0.003154
2.780	-0.005085
2.785	-0.007029
2.790	-0.008505
2.795	-0.009050
2.800	-0.008478
2.805	-0.007001
2.810	-0.004909
2.815	-0.002050
2.820	0.001506
2.825	0.005079
2.830	0.007359
2.835	0.008372
2.840	0.008671
2.845	0.008722
2.850	0.008660
2.855	0.008565
2.860	0.008415
2.865	0.008230
2.870	0.008006
2.875	0.007735
2.880	0.007463
2.885	0.007207
2.890	0.006885
2.895	0.006580
2.900	0.006273
2.905	0.005969
2.910	0.005704
2.915	0.005462
2.920	0.005190
2.925	0.004953
2.930	0.004697
2.935	0.004445
2.940	0.004241
2.945	0.004061
2.950	0.003773
2.955	0.003433
2.960	0.003077
2.965	0.002655
2.970	0.002102
2.975	0.001290
2.980	0.000171
2.985	-0.001351
2.990	-0.003185
2.995	-0.005303
3.000	-0.007221
3.005	-0.008559
3.010	-0.008801
3.015	-0.007953
3.020	-0.006384
3.025	-0.003986
3.030	-0.000828
3.035	0.003080
3.040	0.006497
3.045	0.008489
3.050	0.009185
3.055	0.009385
3.060	0.009366
3.065	0.009248
3.070	0.009110
3.075	0.008912
3.080	0.008653
3.085	0.008369
3.090	0.008086
3.095	0.007790
3.100	0.007505
3.105	0.007212
3.110	0.006886
3.115	0.006568
3.120	0.006233
3.125	0.005920
3.130	0.005631
3.135	0.005365
3.140	0.005070
3.145	0.004768
3.150	0.004493
3.155	0.004192
3.160	0.003872
3.165	0.003478
3.170	0.002919
3.175	0.002090
3.180	0.001023
3.185	-0.000483
3.190	-0.002292
3.195	-0.004411
3.200	-0.006497
3.205	-0.008056
3.210	-0.008500
3.215	-0.007754
3.220	-0.006276
3.225	-0.003971
3.230	-0.000870
3.235	0.003031
3.240	0.006682
3.245	0.009055
3.250	0.009993
3.255	0.010244
3.260	0.010189
3.265	0.010064
3.270	0.009844
3.275	0.009600
3.280	0.009289
3.285	0.008990
3.290	0.008691
3.295	0.008342
3.300	0.008027
3.305	0.007691
3.310	0.007357
3.315	0.007046
3.320	0.006755
3.325	0.006409
3.330	0.006023
3.335	0.005695
3.340	0.005368
3.345	0.005040
3.350	0.004691
3.355	0.004183
3.360	0.003527
3.365	0.002576
3.370	0.001327
3.375	-0.000393
3.380	-0.002464
3.385	-0.004794
3.390	-0.006832
3.395	-0.008085
3.400	-0.007982
3.405	-0.006819
3.410	-0.004951
3.415	-0.002114
3.420	0.001696
3.425	0.006012
3.430	0.009284
3.435	0.010903
3.440	0.011375
3.445	0.011419
3.450	0.011282
3.455	0.011072
3.460	0.010797
3.465	0.010474
3.470	0.010176
3.475	0.009797
3.480	0.009441
3.485	0.008998
3.490	0.008604
3.495	0.008197
3.500	0.007794
3.505	0.007408
3.510	0.007083
3.515	0.006761
3.520	0.006469
3.525	0.006115
3.530	0.005725
3.535	0.005208
3.540	0.004508
3.545	0.003419
3.550	0.001926
3.555	-0.000038
3.560	-0.002314
3.565	-0.004683
3.570	-0.006423
3.575	-0.006943
3.580	-0.006119
3.585	-0.004320
3.590	-0.001816
3.595	0.001870
3.600	0.006315
3.605	0.010533
3.610	0.013058
3.615	0.014045
3.620	0.014220
3.625	0.014146
3.630	0.013878
3.635	0.013571
3.640	0.013206
3.645	0.012767
3.650	0.012303
3.655	0.011828
3.660	0.011334
3.665	0.010817
3.670	0.010331
3.675	0.009857
3.680	0.009341
3.685	0.008827
3.690	0.008306
3.695	0.007692
3.700	0.006923
3.705	0.005887
3.710	0.004487
3.715	0.002593
3.720	0.000258
3.725	-0.002528
3.730	-0.005063
3.735	-0.006707
3.740	-0.006563
3.745	-0.004933
3.750	-0.002980
3.755	-0.000466
3.760	0.003141
3.765	0.007568
3.770	0.011276
3.775	0.012298
3.780	0.011296
3.785	0.009946
3.790	0.008774
3.795	0.007765
3.800	0.006959
3.805	0.006270
3.810	0.005686
3.815	0.005227
3.820	0.004795
3.825	0.004460
3.830	0.004166
3.835	0.003915
3.840	0.003737
3.845	0.003544
3.850	0.003422
3.855	0.003320
3.860	0.003222
3.865	0.003164
3.870	0.003122
3.875	0.003096
3.880	0.003043
3.885	0.002994
3.890	0.003003
3.895	0.002990
3.900	0.002985
3.905	0.002940
3.910	0.002946
3.915	0.002930
3.920	0.002896
3.925	0.002903
3.930	0.002915
3.935	0.002895
3.940	0.002895
3.945	0.002920
3.950	0.002883
3.955	0.002913
3.960	0.002914
3.965	0.002915
3.970	0.002919
3.975	0.002907
3.980	0.002932
3.985	0.002934
3.990	0.002921
3.995	0.002935
4.000	0.002940
4.005	0.002929
4.010	0.002905
4.015	0.002921
4.020	0.002935
4.025	0.002931
4.030	0.002943
4.035	0.002944
4.040	0.002959
4.045	0.002949
4.050	0.002950
4.055	0.002973
4.060	0.002944
4.065	0.002942
4.070	0.002940
4.075	0.002938
4.080	0.002949
4.085	0.002955
4.090	0.002955
4.095	0.002971
4.100	0.002970
4.105	0.002981
4.110	0.002960
4.115	0.002967
4.120	0.002982
4.125	0.002990
4.130	0.002996
4.135	0.002975
4.140	0.003015
4.145	0.003023
4.150	0.003014
4.155	0.003027
4.160	0.003032
4.165	0.003033
4.170	0.003060
4.175	0.003046
4.180	0.003061
4.185	0.003062
4.190	0.003072
4.195	0.003072
4.200	0.003072
4.205	0.003085
4.210	0.003093
4.215	0.003077
4.220	0.003073
4.225	0.003094
4.230	0.003109
4.235	0.003106
4.240	0.003096
4.245	0.003097
4.250	0.003128
4.255	0.003117
4.260	0.003117
4.265	0.003115
4.270	0.003133
4.275	0.003121
4.280	0.003126
4.285	0.003138
4.290	0.003124
4.295	0.003141
4.300	0.003122
4.305	0.003144
4.310	0.003158
4.315	0.003166
4.320	0.003165
4.325	0.003183
4.330	0.003175
4.335	0.003212
4.340	0.003213
4.345	0.003207
4.350	0.003222
4.355	0.003228
4.360	0.003228
4.365	0.003230
4.370	0.003243
4.375	0.003244
4.380	0.003254
4.385	0.003255
4.390	0.003256
4.395	0.003241
4.400	0.003242
4.405	0.003266
4.410	0.003266
4.415	0.003286
4.420	0.003290
4.425	0.003286
4.430	0.003274
4.435	0.003282
4.440	0.003294
4.445	0.003279
4.450	0.003286
4.455	0.003284
4.460	0.003289
4.465	0.003290
4.470	0.003303
4.475	0.003341
4.480	0.003346
4.485	0.003341
4.490	0.003371
4.495	0.003350
4.500	0.003384
4.505	0.003392
4.510	0.003379
4.515	0.003389
4.520	0.003369
4.525	0.003379
4.530	0.003386
4.535	0.003421
4.540	0.003397
4.545	0.003422
4.550	0.003410
4.555	0.003404
4.560	0.003435
4.565	0.003410
4.570	0.003439
4.575	0.003448
4.580	0.003442
4.585	0.003439
4.590	0.003471
4.595	0.003453
4.600	0.003479
4.605	0.003468
4.610	0.003472
4.615	0.003480
4.620	0.003470
4.625	0.003474
4.630	0.003509
4.635	0.003494
4.640	0.003499
4.645	0.003520
4.650	0.003533
4.655	0.003529
4.660	0.003531
4.665	0.003539
4.670	0.003527
4.675	0.003543
4.680	0.003543
4.685	0.003563
4.690	0.003547
4.695	0.003567
4.700	0.003563
4.705	0.003618
4.710	0.003587
4.715	0.003585
4.720	0.003599
4.725	0.003597
4.730	0.003590
4.735	0.003589
4.740	0.003613
4.745	0.003629
4.750	0.003621
4.755	0.003631
4.760	0.003636
4.765	0.003661
4.770	0.003651
4.775	0.003665
4.780	0.003667
4.785	0.003666
4.790	0.003654
4.795	0.003693
4.800	0.003678
4.805	0.003691
4.810	0.003693
4.815	0.003709
4.820	0.003700
4.825	0.003723
4.830	0.003721
4.835	0.003733
4.840	0.003709
4.845	0.003713
4.850	0.003737
4.855	0.003750
4.860	0.003770
4.865	0.003747
4.870	0.003770
4.875	0.003774
4.880	0.003784
4.885	0.003787
4.890	0.003794
4.895	0.003787
4.900	0.003806
4.905	0.003796
4.910	0.003817
4.915	0.003816
4.920	0.003822
4.925	0.003816
4.930	0.003822
4.935	0.003831
4.940	0.003826
4.945	0.003834
4.950	0.003847
4.955	0.003846
4.960	0.003851
4.965	0.003862
4.970	0.003859
4.975	0.003863
4.980	0.003878
4.985	0.003877
4.990	0.003908
4.995	0.003876
5.000	0.003887
5.005	0.003883
5.010	0.003922
5.015	0.003926
5.020	0.003930
5.025	0.003956
5.030	0.003943
5.035	0.003957
5.040	0.003939
5.045	0.003942
5.050	0.003971
5.055	0.003961
5.060	0.003968
5.065	0.003957
5.070	0.003976
5.075	0.003991
5.080	0.003985
5.085	0.003996
5.090	0.004002
5.095	0.004010
5.100	0.004030
5.105	0.004034
5.110	0.004039
5.115	0.004036
5.120	0.004061
5.125	0.004027
5.130	0.004049
5.135	0.004078
5.140	0.004073
5.145	0.004082
5.150	0.004092
5.155	0.004097
5.160	0.004088
5.165	0.004090
5.170	0.004110
5.175	0.004115
5.180	0.004114
5.185	0.004145
5.190	0.004141
5.195	0.004156
5.200	0.004166
5.205	0.004131
5.210	0.004163
5.215	0.004180
5.220	0.004176
5.225	0.004159
5.230	0.004168
5.235	0.004193
5.240	0.004196
5.245	0.004224
5.250	0.004191
5.255	0.004201
5.260	0.004226
5.265	0.004227
5.270	0.004236
5.275	0.004231
5.280	0.004231
5.285	0.004220
5.290	0.004240
5.295	0.004276
5.300	0.004267
5.305	0.004300
5.310	0.004288
5.315	0.004275
5.320	0.004291
5.325	0.004308
5.330	0.004306
5.335	0.004313
5.340	0.004302
5.345	0.004360
5.350	0.004333
5.355	0.004341
5.360	0.004342
5.365	0.004340
5.370	0.004337
5.375	0.004351
5.380	0.004385
5.385	0.004367
5.390	0.004392
5.395	0.004387
5.400	0.004398
5.405	0.004398
5.410	0.004417
5.415	0.004440
5.420	0.004424
5.425	0.004429
5.430	0.004415
5.435	0.004435
5.440	0.004461
5.445	0.004480
5.450	0.004475
5.455	0.004485
5.460	0.004466
5.465	0.004496
5.470	0.004479
5.475	0.004495
5.480	0.004516
5.485	0.004510
5.490	0.004530
5.495	0.004517
5.500	0.004523
5.505	0.004545
5.510	0.004534
5.515	0.004555
5.520	0.004573
5.525	0.004576
5.530	0.004576
5.535	0.004586
5.540	0.004594
5.545	0.004606
5.550	0.004601
5.555	0.004612
5.560	0.004619
5.565	0.004622
5.570	0.004632
5.575	0.004655
5.580	0.004663
5.585	0.004650
5.590	0.004676
5.595	0.004676
5.600	0.004688
5.605	0.004675
5.610	0.004706
5.615	0.004694
5.620	0.004716
5.625	0.004724
5.630	0.004729
5.635	0.004719
5.640	0.004731
5.645	0.004741
5.650	0.004748
5.655	0.004774
5.660	0.004753
5.665	0.004779
5.670	0.004779
5.675	0.004794
5.680	0.004788
5.685	0.004802
5.690	0.004820
5.695	0.004797
5.700	0.004829
5.705	0.004829
5.710	0.004832
5.715	0.004833
5.720	0.004842
5.725	0.004878
5.730	0.004848
5.735	0.004871
5.740	0.004891
5.745	0.004872
5.750	0.004891
5.755	0.004920
5.760	0.004890
5.765	0.004919
5.770	0.004903
5.775	0.004939
5.780	0.004944
5.785	0.004962
5.790	0.004946
5.795	0.004963
5.800	0.004970
5.805	0.004970
5.810	0.005005
5.815	0.004987
5.820	0.005006
5.825	0.005024
5.830	0.005020
5.835	0.004999
5.840	0.005035
5.845	0.005043
5.850	0.005058
5.855	0.005060
5.860	0.005054
5.865	0.005061
5.870	0.005064
5.875	0.005106
5.880	0.005086
5.885	0.005100
5.890	0.005119
5.895	0.005115
5.900	0.005106
5.905	0.005132
5.910	0.005148
5.915	0.005155
5.920	0.005173
5.925	0.005159
5.930	0.005154
5.935	0.005174
5.940	0.005168
5.945	0.005200
5.950	0.005203
5.955	0.005224
5.960	0.005232
5.965	0.005236
5.970	0.005231
5.975	0.005270
5.980	0.005242
5.985	0.005271
5.990	0.005275
5.995	0.005275
6.000	0.005296
6.005	0.005315
6.010	0.005323
6.015	0.005329
6.020	0.005330
6.025	0.005336
6.030	0.005330
6.035	0.005348
6.040	0.005374
6.045	0.005388
6.050	0.005378
6.055	0.005382
6.060	0.005411
6.065	0.005400
6.070	0.005421
6.075	0.005434
6.080	0.005445
6.085	0.005445
6.090	0.005457
6.095	0.005448
6.100	0.005479
6.105	0.005492
6.110	0.005517
6.115	0.005508
6.120	0.005515
6.125	0.005537
6.130	0.005525
6.135	0.005532
6.140	0.005536
6.145	0.005540
6.150	0.005567
6.155	0.005569
6.160	0.005586
6.165	0.005586
6.170	0.005610
6.175	0.005619
6.180	0.005618
6.185	0.005615
6.190	0.005650
6.195	0.005643
6.200	0.005654
6.205	0.005678
6.210	0.005669
6.215	0.005678
6.220	0.005702
6.225	0.005698
6.230	0.005714
6.235	0.005723
6.240	0.005735
6.245	0.005720
6.250	0.005753
6.255	0.005741
6.260	0.005768
6.265	0.005787
6.270	0.005794
6.275	0.005786
6.280	0.005814
6.285	0.005816
6.290	0.005829
6.295	0.005827
6.300	0.005861
6.305	0.005852
6.310	0.005876
6.315	0.005847
6.320	0.005869
6.325	0.005889
6.330	0.005904
6.335	0.005916
6.340	0.005923
6.345	0.005945
6.350	0.005933
6.355	0.005950
6.360	0.005962
6.365	0.005986
6.370	0.005990
6.375	0.005998
6.380	0.006001
6.385	0.006034
6.390	0.006020
6.395	0.006051
6.400	0.006043
6.405	0.006063
6.410	0.006073
6.415	0.006106
6.420	0.006069
6.425	0.006130
6.430	0.006114
6.435	0.006125
6.440	0.006156
6.445	0.006153
6.450	0.006158
6.455	0.006161
6.460	0.006176
6.465	0.006202
6.470	0.006199
6.475	0.006219
6.480	0.006213
6.485	0.006248
6.490	0.006227
6.495	0.006227
6.500	0.006254
6.505	0.006274
6.510	0.006284
6.515	0.006315
6.520	0.006305
6.525	0.006334
6.530	0.006338
6.535	0.006315
6.540	0.006343
6.545	0.006352
6.550	0.006348
6.555	0.006350
6.560	0.006396
6.565	0.006402
6.570	0.006427
6.575	0.006432
6.580	0.006434
6.585	0.006442
6.590	0.006454
6.595	0.006471
6.600	0.006477
6.605	0.006500
6.610	0.006531
6.615	0.006518
6.620	0.006520
6.625	0.006554
6.630	0.006552
6.635	0.006570
6.640	0.006563
6.645	0.006602
6.650	0.006594
6.655	0.006614
6.660	0.006620
6.665	0.006639
6.670	0.006639
6.675	0.006668
6.680	0.006667
6.685	0.006689
6.690	0.006699
6.695	0.006702
6.700	0.006731
6.705	0.006722
6.710	0.006725
6.715	0.006745
6.720	0.006756
6.725	0.006766
6.730	0.006794
6.735	0.006807
6.740	0.006804
6.745	0.006805
6.750	0.006834
6.755	0.006856
6.760	0.006869
6.765	0.006880
6.770	0.006904
6.775	0.006926
6.780	0.006924
6.785	0.006935
6.790	0.006962
6.795	0.006935
6.800	0.006953
6.805	0.006989
6.810	0.007005
6.815	0.007033
6.820	0.007019
6.825	0.007028
6.830	0.007063
6.835	0.007066
6.840	0.007087
6.845	0.007097
6.850	0.007121
6.855	0.007109
6.860	0.007138
6.865	0.007135
6.870	0.007137
6.875	0.007184
6.880	0.007169
6.885	0.007196
6.890	0.007227
6.895	0.007257
6.900	0.007257
6.905	0.007271
6.910	0.007293
6.915	0.007288
6.920	0.007318
6.925	0.007318
6.930	0.007353
6.935	0.007337
6.940	0.007364
6.945	0.007370
6.950	0.007396
6.955	0.007382
6.960	0.007421
6.965	0.007438
6.970	0.007464
6.975	0.007480
6.980	0.007487
6.985	0.007522
6.990	0.007516
6.995	0.007534
7.000	0.007536
7.005	0.007562
7.010	0.007588
7.015	0.007576
7.020	0.007618
7.025	0.007616
7.030	0.007645
7.035	0.007634
7.040	0.007668
7.045	0.007681
7.050	0.007704
7.055	0.007717
7.060	0.007722
7.065	0.007760
7.070	0.007763
7.075	0.007779
7.080	0.007804
7.085	0.007830
7.090	0.007832
7.095	0.007856
7.100	0.007885
7.105	0.007883
7.110	0.007910
7.115	0.007921
7.120	0.007943
7.125	0.007974
7.130	0.007974
7.135	0.007971
7.140	0.007985
7.145	0.008001
7.150	0.008016
7.155	0.008054
7.160	0.008049
7.165	0.008058
7.170	0.008108
7.175	0.008084
7.180	0.008117
7.185	0.008140
7.190	0.008167
7.195	0.008187
7.200	0.008215
7.205	0.008238
7.210	0.008244
7.215	0.008250
7.220	0.008252
7.225	0.008299
7.230	0.008306
7.235	0.008312
7.240	0.008332
7.245	0.008372
7.250	0.008371
7.255	0.008415
7.260	0.008405
7.265	0.008445
7.270	0.008452
7.275	0.008467
7.280	0.008474
7.285	0.008527
7.290	0.008533
7.295	0.008542
7.300	0.008560
7.305	0.008587
7.310	0.008605
7.315	0.008622
7.320	0.008656
7.325	0.008674
7.330	0.008700
7.335	0.008724
7.340	0.008754
7.345	0.008762
7.350	0.008790
7.355	0.008789
7.360	0.008815
7.365	0.008864
7.370	0.008849
7.375	0.008905
7.380	0.008920
7.385	0.008936
7.390	0.008972
7.395	0.008976
7.400	0.009017
7.405	0.009026
7.410	0.009069
7.415	0.009076
7.420	0.009106
7.425	0.009124
7.430	0.009129
7.435	0.009175
7.440	0.009201
7.445	0.009204
7.450	0.009245
7.455	0.009267
7.460	0.009293
7.465	0.009329
7.470	0.009326
7.475	0.009370
7.480	0.009409
7.485	0.009412
7.490	0.009424
7.495	0.009469
7.500	0.009490
7.505	0.009501
7.510	0.009543
7.515	0.009541
7.520	0.009604
7.525	0.009603
7.530	0.009653
7.535	0.009657
7.540	0.009687
7.545	0.009712
7.550	0.009755
7.555	0.009754
7.560	0.009793
7.565	0.009827
7.570	0.009819
7.575	0.009866
7.580	0.009880
7.585	0.009934
7.590	0.009963
7.595	0.009989
7.600	0.010021
7.605	0.010040
7.610	0.010072
7.615	0.010102
7.620	0.010119
7.625	0.010149
7.630	0.010204
7.635	0.010206
7.640	0.010231
7.645	0.010273
7.650	0.010302
7.655	0.010331
7.660	0.010346
7.665	0.010388
7.670	0.010424
7.675	0.010439
7.680	0.010480
7.685	0.010547
7.690	0.010567
7.695	0.010585
7.700	0.010605
7.705	0.010661
7.710	0.010690
7.715	0.010695
7.720	0.010747
7.725	0.010792
7.730	0.010796
7.735	0.010849
7.740	0.010876
7.745	0.010939
7.750	0.010929
7.755	0.010986
7.760	0.011010
7.765	0.011049
7.770	0.011071
7.775	0.011131
7.780	0.011140
7.785	0.011204
7.790	0.011208
7.795	0.011270
7.800	0.011311
7.805	0.011345
7.810	0.011368
7.815	0.011420
7.820	0.011459
7.825	0.011483
7.830	0.011537
7.835	0.011552
7.840	0.011615
7.845	0.011630
7.850	0.011685
7.855	0.011704
7.860	0.011760
7.865	0.011834
7.870	0.011860
7.875	0.011887
7.880	0.011933
7.885	0.011984
7.890	0.012040
7.895	0.012067
7.900	0.012107
7.905	0.012163
7.910	0.012198
7.915	0.012240
7.920	0.012305
7.925	0.012353
7.930	0.012399
7.935	0.012444
7.940	0.012461
7.945	0.012535
7.950	0.012570
7.955	0.012601
7.960	0.012651
7.965	0.012712
7.970	0.012785
7.975	0.012831
7.980	0.012880
7.985	0.012924
7.990	0.012968
7.995	0.013041
8.000	0.013093
8.005	0.013118
8.010	0.013207
8.015	0.013250
8.020	0.013308
8.025	0.013373
8.030	0.013413
8.035	0.013494
8.040	0.013534
8.045	0.013581
8.050	0.013649
8.055	0.013692
8.060	0.013738
8.065	0.013822
8.070	0.013877
8.075	0.013929
8.080	0.014023
8.085	0.014080
8.090	0.014129
8.095	0.014199
8.100	0.014256
8.105	0.014364
8.110	0.014424
8.115	0.014462
8.120	0.014551
8.125	0.014618
8.130	0.014670
8.135	0.014762
8.140	0.014821
8.145	0.014896
8.150	0.014985
8.155	0.015077
8.160	0.015144
8.165	0.015224
8.170	0.015286
8.175	0.015372
8.180	0.015423
8.185	0.015514
8.190	0.015585
8.195	0.015667
8.200	0.015784
8.205	0.015883
8.210	0.015956
8.215	0.016040
8.220	0.016139
8.225	0.016234
8.230	0.016303
8.235	0.016417
8.240	0.016474
8.245	0.016613
8.250	0.016697
8.255	0.016791
8.260	0.016910
8.265	0.017016
8.270	0.017133
8.275	0.017203
8.280	0.017351
8.285	0.017441
8.290	0.017548
8.295	0.017677
8.300	0.017777
8.305	0.017925
8.310	0.018035
8.315	0.018143
8.320	0.018274
8.325	0.018409
8.330	0.018549
8.335	0.018671
8.340	0.018800
8.345	0.018957
8.350	0.019091
8.355	0.019231
8.360	0.019391
8.365	0.019556
8.370	0.019683
8.375	0.019834
8.380	0.020010
8.385	0.020191
8.390	0.020353
8.395	0.020535
8.400	0.020678
8.405	0.020907
8.410	0.021072
8.415	0.021277
8.420	0.021468
8.425	0.021659
8.430	0.021840
8.435	0.022081
8.440	0.022299
8.445	0.022554
8.450	0.022773
8.455	0.022990
8.460	0.023242
8.465	0.023547
8.470	0.023787
8.475	0.024070
8.480	0.024377
8.485	0.024676
8.490	0.024979
8.495	0.025307
8.500	0.025641
8.505	0.026003
8.510	0.026372
8.515	0.026758
8.520	0.027149
8.525	0.027607
8.530	0.028037
8.535	0.028491
8.540	0.029001
8.545	0.029561
8.550	0.030075
8.555	0.030676
8.560	0.031300
8.565	0.031849
8.570	0.032449
8.575	0.033355
8.580	0.034263
8.585	0.035184
8.590	0.036152
8.595	0.037201
8.600	0.038343
8.605	0.039600
8.610	0.040930
8.615	0.042343
8.620	0.043544
8.625	0.045042
8.630	0.046838
8.635	0.049063
8.640	0.051733
8.645	0.055262
8.650	0.059873
8.655	0.066299
8.660	0.075525
8.665	0.085773
8.670	0.091497
8.675	0.094863
8.680	0.094245
8.685	0.089425
8.690	0.078536
8.695	0.064540
8.700	0.049821
8.705	0.033949
8.710	0.020114
8.715	0.008934
8.720	0.002668
8.725	0.000594
8.730	0.000278
8.735	0.000199
8.740	0.000169
8.745	0.000154
8.750	0.000145
8.755	0.000110
8.760	0.000120
8.765	0.000105
8.770	0.000110
8.775	0.000100
8.780	0.000110
8.785	0.000085
8.790	0.000086
8.795	0.000076
8.800	0.000081
8.805	0.000076
8.810	0.000081
8.815	0.000081
8.820	0.000101
8.825	0.000071
8.830	0.000091
8.835	0.000071
8.840	0.000071
8.845	0.000066
8.850	0.000066
8.855	0.000076
8.860	0.000052
8.865	0.000071
8.870	0.000076
8.875	0.000077
8.880	0.000076
8.885	0.000091
8.890	0.000071
8.895	0.000077
8.900	0.000086
8.905	0.000076
8.910	0.000086
8.915	0.000092
8.920	0.000062
8.925	0.000042
8.930	0.000057
8.935	0.000062
8.940	0.000077
8.945	0.000062
8.950	0.000072
8.955	0.000092
8.960	0.000077
8.965	0.000047
8.970	0.000062
8.975	0.000082
8.980	0.000062
8.985	0.000082
8.990	0.000077
8.995	0.000092
9.000	0.000067
9.005	0.000082
9.010	0.000092
9.015	0.000082
9.020	0.000077
9.025	0.000072
9.030	0.000062
9.035	0.000082
9.040	0.000077
9.045	0.000067
9.050	0.000047
9.055	0.000092
9.060	0.000072
9.065	0.000062
9.070	0.000087
9.075	0.000073
9.080	0.000102
9.085	0.000077
9.090	0.000043
9.095	0.000087
9.100	0.000068
9.105	0.000068
9.110	0.000068
9.115	0.000063
9.120	0.000078
9.125	0.000073
9.130	0.000068
9.135	0.000073
9.140	0.000068
9.145	0.000088
9.150	0.000078
9.155	0.000068
9.160	0.000073
9.165	0.000103
9.170	0.000088
9.175	0.000073
9.180	0.000073
9.185	0.000048
9.190	0.000093
9.195	0.000053
9.200	0.000088
9.205	0.000088
9.210	0.000063
9.215	0.000073
9.220	0.000073
9.225	0.000093
9.230	0.000083
9.235	0.000068
9.240	0.000088
9.245	0.000078
9.250	0.000063
9.255	0.000048
9.260	0.000063
9.265	0.000088
9.270	0.000088
9.275	0.000063
9.280	0.000073
9.285	0.000088
9.290	0.000103
9.295	0.000088
9.300	0.000063
9.305	0.000084
9.310	0.000103
9.315	0.000073
9.320	0.000088
9.325	0.000088
9.330	0.000079
9.335	0.000088
9.340	0.000093
9.345	0.000123
9.350	0.000108
9.355	0.000098
9.360	0.000093
9.365	0.000123
9.370	0.000113
9.375	0.000108
9.380	0.000133
9.385	0.000158
9.390	0.000163
9.395	0.000187
9.400	0.000197
9.405	0.000173
9.410	0.000158
9.415	0.000113
9.420	0.000103
9.425	0.000089
9.430	0.000069
9.435	0.000054
9.440	0.000040
9.445	0.000050
9.450	0.000035
9.455	0.000015
9.460	0.000025
9.465	0.000035
9.470	0.000005
9.475	0.000015
9.480	0.000000
9.485	0.000035
9.490	0.000020
9.495	0.000005
9.500	-0.000005
9.505	0.000030
9.510	0.000015
9.515	0.000025
9.520	0.000020
9.525	0.000021
9.530	0.000015
9.535	-0.000015
9.540	0.000010
9.545	0.000021
9.550	0.000035
9.555	0.000010
9.560	0.000005
9.565	0.000035
9.570	0.000011
9.575	-0.000014
9.580	0.000010
9.585	0.000006
9.590	0.000021
9.595	-0.000004
9.600	-0.000014
9.605	0.000006
9.610	0.000036
9.615	0.000016
9.620	0.000016
9.625	0.000021
9.630	0.000026
9.635	0.000011
9.640	0.000016
9.645	0.000026
9.650	0.000026
9.655	0.000001
9.660	0.000021
9.665	0.000026
9.670	0.000021
9.675	-0.000018
9.680	-0.000014
9.685	0.000016
9.690	0.000026
9.695	0.000016
9.700	0.000002
9.705	0.000002
9.710	0.000026
9.715	0.000007
9.720	0.000007
9.725	0.000051
9.730	-0.000008
9.735	-0.000023
9.740	0.000012
9.745	0.000012
9.750	0.000002
9.755	0.000007
9.760	-0.000003
9.765	0.000007
9.770	-0.000003
9.775	-0.000003
9.780	0.000002
9.785	-0.000003
9.790	0.000012
9.795	-0.000013
9.800	0.000027
9.805	0.000032
9.810	0.000027
9.815	0.000022
9.820	0.000017
9.825	-0.000003
9.830	0.000012
9.835	0.000007
9.840	-0.000012
9.845	0.000017
9.850	0.000022
9.855	0.000012
9.860	0.000017
9.865	-0.000003
9.870	0.000022
9.875	0.000012
9.880	-0.000002
9.885	0.000007
9.890	0.000017
9.895	0.000013
9.900	0.000013
9.905	-0.000003
9.910	-0.000012
9.915	0.000028
9.920	0.000003
9.925	0.000002
9.930	0.000007
9.935	0.000008
9.940	0.000003
9.945	-0.000012
9.950	-0.000007
9.955	-0.000002
9.960	0.000003
9.965	-0.000012
9.970	0.000002
9.975	0.000003
9.980	0.000003
9.985	-0.000012
9.990	0.000003
9.995	-0.000012
10.000	0.000003
10.005	-0.000002
10.010	0.000003
10.015	-0.000007
10.020	-0.000002
10.025	-0.000017
10.030	-0.000007
10.035	0.000003
10.040	-0.000012
10.045	-0.000017
10.050	-0.000007
10.055	-0.000002
10.060	-0.000007
10.065	0.000023
10.070	-0.000032
10.075	0.000013
10.080	0.000013
10.085	-0.000022
10.090	-0.000017
10.095	-0.000007
10.100	-0.000022
10.105	0.000013
10.110	-0.000007
10.115	-0.000007
10.120	-0.000017
10.125	-0.000011
10.130	-0.000012
10.135	-0.000007
10.140	0.000013
10.145	-0.000001
10.150	0.000008
10.155	0.000008
10.160	-0.000006
10.165	0.000009
10.170	0.000004
10.175	-0.000006
10.180	-0.000006
10.185	0.000004
10.190	0.000009
10.195	0.000004
10.200	-0.000021
10.205	0.000014
10.210	-0.000006
10.215	0.000009
10.220	-0.000006
10.225	0.000009
10.230	-0.000016
10.235	0.000019
10.240	-0.000006
10.245	0.000014
10.250	-0.000016
10.255	0.000004
10.260	0.000004
10.265	-0.000006
10.270	0.000009
10.275	-0.000005
10.280	-0.000005
10.285	0.000009
10.290	-0.000011
10.295	0.000009
10.300	0.000005
10.305	0.000014
10.310	0.000019
10.315	-0.000005
10.320	-0.000000
10.325	-0.000020
10.330	-0.000001
10.335	-0.000000
10.340	-0.000000
10.345	-0.000020
10.350	-0.000005
10.355	0.000010
10.360	0.000010
10.365	-0.000000
10.370	0.000000
10.375	0.000000
10.380	0.000000
10.385	-0.000010
10.390	0.000005
10.395	-0.000035
10.400	0.000010
10.405	0.000010
10.410	0.000005
10.415	-0.000010
10.420	-0.000005
10.425	0.000005
10.430	0.000005
10.435	-0.000010
10.440	0.000000
10.445	0.000045
10.450	0.000020
10.455	0.000019
10.460	0.000034
10.465	-0.000015
10.470	-0.000054
10.475	-0.000059
10.480	-0.000024
10.485	0.000015
10.490	0.000010
10.495	0.000000
10.500	-0.000010
10.505	0.000035
10.510	0.000000
10.515	-0.000020
10.520	-0.000015
10.525	0.000000
10.530	-0.000005
10.535	-0.000005
10.540	-0.000014
10.545	-0.000005
10.550	-0.000005
10.555	-0.000029
10.560	0.000001
10.565	-0.000009
10.570	-0.000004
10.575	0.000011
10.580	0.000001
10.585	-0.000009
10.590	-0.000009
10.595	-0.000009
10.600	0.000016
10.605	-0.000014
10.610	-0.000034
10.615	0.000011
10.620	0.000001
10.625	-0.000019
10.630	-0.000004
10.635	-0.000009
10.640	0.000011
10.645	0.000006
10.650	0.000006
10.655	-0.000023
10.660	0.000016
10.665	0.000001
10.670	-0.000008
10.675	0.000007
10.680	-0.000018
10.685	-0.000003
10.690	0.000026
10.695	0.000026
10.700	0.000017
10.705	0.000007
10.710	-0.000003
10.715	0.000012
10.720	0.000007
10.725	0.000017
10.730	-0.000013
10.735	0.000012
10.740	0.000022
10.745	-0.000003
10.750	-0.000003
10.755	-0.000003
10.760	0.000002
10.765	0.000017
10.770	-0.000003
10.775	0.000012
10.780	0.000002
10.785	0.000012
10.790	0.000007
10.795	-0.000038
10.800	-0.000018
10.805	0.000007
10.810	0.000007
10.815	0.000017
10.820	0.000012
10.825	-0.000023
10.830	-0.000008
10.835	0.000007
10.840	0.000002
10.845	0.000007
10.850	0.000007
10.855	-0.000002
10.860	-0.000002
10.865	-0.000013
10.870	-0.000003
10.875	0.000018
10.880	-0.000012
10.885	-0.000008
10.890	-0.000003
10.895	0.000013
10.900	0.000013
10.905	0.000002
10.910	-0.000002
10.915	0.000003
10.920	-0.000012
10.925	0.000003
10.930	0.000003
10.935	-0.000002
10.940	-0.000017
10.945	-0.000007
10.950	0.000028
10.955	0.000018
10.960	0.000013
10.965	-0.000002
10.970	0.000008
10.975	-0.000007
10.980	0.000003
10.985	0.000003
10.990	-0.000012
10.995	0.000003
11.000	-0.000012
11.005	-0.000027
11.010	-0.000007
11.015	-0.000007
11.020	-0.000012
11.025	-0.000017
11.030	-0.000022
11.035	0.000008
11.040	-0.000002
11.045	-0.000007
11.050	-0.000002
11.055	-0.000006
11.060	0.000008
11.065	-0.000007
11.070	0.000008
11.075	-0.000006
11.080	-0.000001
11.085	-0.000007
11.090	-0.000006
11.095	0.000009
11.100	-0.000001
11.105	-0.000016
11.110	-0.000006
11.115	0.000004
11.120	0.000004
11.125	-0.000021
11.130	-0.000026
11.135	-0.000011
11.140	-0.000011
11.145	0.000003
11.150	-0.000002
11.155	0.000004
11.160	-0.000006
11.165	0.000008
11.170	-0.000021
11.175	0.000009
11.180	-0.000026
11.185	-0.000002
11.190	-0.000011
11.195	-0.000026
11.200	-0.000006
11.205	-0.000031
11.210	-0.000016
11.215	-0.000016
11.220	-0.000036
11.225	-0.000026
11.230	-0.000036
11.235	-0.000016
11.240	-0.000006
11.245	-0.000036
11.250	-0.000011
11.255	-0.000006
11.260	-0.000011
11.265	-0.000011
11.270	-0.000026
11.275	-0.000016
11.280	-0.000011
11.285	-0.000031
11.290	-0.000011
11.295	-0.000006
11.300	-0.000040
11.305	-0.000011
11.310	-0.000020
11.315	-0.000016
11.320	-0.000020
11.325	-0.000010
11.330	0.000009
11.335	-0.000025
11.340	-0.000020
11.345	-0.000020
11.350	-0.000020
11.355	-0.000015
11.360	-0.000006
11.365	0.000015
11.370	-0.000005
11.375	-0.000020
11.380	-0.000025
11.385	-0.000010
11.390	0.000005
11.395	-0.000005
11.400	-0.000025
11.405	0.000005
11.410	-0.000010
11.415	-0.000015
11.420	-0.000010
11.425	-0.000019
11.430	0.000005
11.435	-0.000020
11.440	-0.000040
11.445	-0.000009
11.450	-0.000004
11.455	0.000000
11.460	-0.000015
11.465	0.000006
11.470	-0.000009
11.475	-0.000034
11.480	-0.000020
11.485	0.000001
11.490	0.000025
11.495	-0.000020
11.500	-0.000010
11.505	-0.000004
11.510	0.000001
11.515	-0.000010
11.520	-0.000019
11.525	-0.000009
11.530	-0.000009
11.535	-0.000039
11.540	-0.000014
11.545	-0.000014
11.550	0.000016
11.555	0.000006
11.560	-0.000019
11.565	-0.000014
11.570	0.000001
11.575	-0.000019
11.580	-0.000014
11.585	0.000011
11.590	0.000006
11.595	-0.000004
11.600	-0.000019
11.605	-0.000009
11.610	-0.000009
11.615	-0.000019
11.620	-0.000004
11.625	0.000006
11.630	-0.000008
11.635	-0.000024
11.640	-0.000018
11.645	0.000002
11.650	-0.000013
11.655	-0.000028
11.660	-0.000019
11.665	-0.000018
11.670	-0.000018
11.675	-0.000034
11.680	-0.000033
11.685	-0.000018
11.690	0.000006
11.695	-0.000038
11.700	-0.000019
11.705	-0.000023
11.710	-0.000014
11.715	-0.000024
11.720	-0.000028
11.725	-0.000008
11.730	-0.000008
11.735	-0.000018
11.740	-0.000033
11.745	-0.000018
11.750	-0.000028
11.755	-0.000018
11.760	-0.000028
11.765	-0.000008
11.770	-0.000008
11.775	-0.000038
11.780	-0.000033
11.785	0.000012
11.790	-0.000008
11.795	-0.000028
11.800	-0.000013
11.805	-0.000013
11.810	-0.000008
11.815	-0.000023
11.820	-0.000013
11.825	-0.000013
11.830	-0.000033
11.835	-0.000048
11.840	-0.000013
11.845	-0.000008
11.850	-0.000023
11.855	-0.000018
11.860	-0.000018
11.865	-0.000013
11.870	-0.000028
11.875	-0.000038
11.880	-0.000038
11.885	-0.000037
11.890	-0.000018
11.895	-0.000018
11.900	-0.000047
11.905	-0.000017
11.910	-0.000042
11.915	-0.000032
11.920	-0.000027
11.925	-0.000027
11.930	-0.000027
11.935	-0.000027
11.940	0.000037
11.945	-0.000007
11.950	0.000120
11.955	-0.000166
11.960	-0.000017
11.965	-0.000012
11.970	0.000008
11.975	-0.000007
11.980	-0.000022
11.985	-0.000016
11.990	-0.000022
11.995	-0.000032
12.000	-0.000037
12.005	-0.000021
12.010	-0.000027
12.015	-0.000027
12.020	-0.000027
12.025	-0.000026
12.030	-0.000017
12.035	-0.000007
12.040	-0.000022
12.045	-0.000002
12.050	-0.000007
12.055	-0.000017
12.060	-0.000027
12.065	-0.000011
12.070	-0.000011
12.075	-0.000036
12.080	-0.000056
12.085	-0.000016
12.090	-0.000021
12.095	-0.000056
12.100	-0.000041
12.105	-0.000026
12.110	-0.000001
12.115	-0.000017
12.120	-0.000026
12.125	-0.000011
12.130	-0.000011
12.135	-0.000026
12.140	-0.000031
12.145	-0.000011
12.150	-0.000036
12.155	-0.000021
12.160	-0.000016
12.165	0.000009
12.170	-0.000006
12.175	-0.000041
12.180	-0.000031
12.185	-0.000021
12.190	-0.000016
12.195	-0.000006
12.200	-0.000031
12.205	-0.000011
12.210	-0.000021
12.215	-0.000031
12.220	-0.000016
12.225	-0.000006
12.230	-0.000011
12.235	-0.000021
12.240	-0.000021
12.245	-0.000021
12.250	-0.000021
12.255	-0.000006
12.260	-0.000016
12.265	-0.000025
12.270	-0.000016
12.275	-0.000040
12.280	-0.000031
12.285	-0.000011
12.290	-0.000030
12.295	-0.000040
12.300	-0.000040
12.305	-0.000020
12.310	-0.000035
12.315	-0.000050
12.320	-0.000011
12.325	-0.000035
12.330	-0.000035
12.335	-0.000030
12.340	-0.000025
12.345	-0.000015
12.350	-0.000006
12.355	-0.000005
12.360	-0.000020
12.365	-0.000040
12.370	-0.000035
12.375	-0.000055
12.380	-0.000035
12.385	-0.000020
12.390	-0.000015
12.395	-0.000025
12.400	-0.000015
12.405	-0.000025
12.410	-0.000030
12.415	-0.000020
12.420	-0.000030
12.425	-0.000030
12.430	-0.000015
12.435	-0.000034
12.440	-0.000020
12.445	-0.000025
12.450	-0.000010
12.455	-0.000020
12.460	-0.000030
12.465	-0.000015
12.470	-0.000025
12.475	-0.000039
12.480	-0.000015
12.485	-0.000020
12.490	-0.000010
12.495	-0.000034
12.500	-0.000029
12.505	-0.000029
12.510	-0.000039
12.515	-0.000039
12.520	-0.000009
12.525	-0.000009
12.530	-0.000029
12.535	0.000001
12.540	-0.000009
12.545	-0.000034
12.550	-0.000024
12.555	-0.000014
12.560	-0.000024
12.565	-0.000029
12.570	-0.000029
12.575	0.000006
12.580	-0.000004
12.585	-0.000024
12.590	-0.000024
12.595	-0.000014
12.600	-0.000053
12.605	-0.000024
12.610	-0.000009
12.615	-0.000018
12.620	0.000001
12.625	-0.000004
12.630	-0.000043
12.635	-0.000013
12.640	-0.000033
12.645	-0.000034
12.650	-0.000014
12.655	-0.000013
12.660	-0.000003
12.665	-0.000038
12.670	-0.000013
12.675	-0.000003
12.680	-0.000023
12.685	-0.000008
12.690	-0.000018
12.695	-0.000033
12.700	-0.000013
12.705	-0.000018
12.710	-0.000023
12.715	-0.000013
12.720	-0.000013
12.725	-0.000033
12.730	-0.000018
12.735	-0.000023
12.740	-0.000038
12.745	-0.000018
12.750	-0.000043
12.755	-0.000033
12.760	-0.000008
12.765	-0.000023
12.770	-0.000023
12.775	-0.000033
12.780	-0.000023
12.785	-0.000018
12.790	-0.000013
12.795	-0.000052
12.800	-0.000028
12.805	-0.000008
12.810	-0.000033
12.815	-0.000008
12.820	-0.000003
12.825	-0.000023
12.830	-0.000033
12.835	-0.000018
12.840	-0.000023
12.845	-0.000003
12.850	-0.000008
12.855	-0.000008
12.860	-0.000018
12.865	-0.000028
12.870	-0.000023
12.875	-0.000003
12.880	-0.000023
12.885	-0.000028
12.890	-0.000013
12.895	-0.000022
12.900	-0.000037
12.905	-0.000003
12.910	-0.000032
12.915	-0.000007
12.920	-0.000012
12.925	-0.000008
12.930	-0.000027
12.935	-0.000022
12.940	-0.000032
12.945	-0.000027
12.950	-0.000027
12.955	-0.000012
12.960	-0.000022
12.965	-0.000003
12.970	-0.000017
12.975	-0.000027
12.980	-0.000027
12.985	-0.000007
12.990	0.000007
12.995	-0.000022
13.000	-0.000032
13.005	-0.000042
13.010	-0.000007
13.015	-0.000007
13.020	-0.000037
13.025	-0.000012
13.030	-0.000022
13.035	-0.000027
13.040	-0.000027
13.045	0.000008
13.050	0.000003
13.055	-0.000012
13.060	-0.000022
13.065	-0.000022
13.070	-0.000002
13.075	-0.000012
13.080	-0.000002
13.085	-0.000011
13.090	-0.000006
13.095	-0.000027
13.100	-0.000012
13.105	-0.000016
13.110	-0.000021
13.115	-0.000031
13.120	-0.000046
13.125	-0.000011
13.130	-0.000036
13.135	-0.000031
13.140	-0.000031
13.145	-0.000016
13.150	-0.000041
13.155	-0.000041
13.160	-0.000021
13.165	-0.000016
13.170	-0.000021
13.175	-0.000036
13.180	-0.000016
13.185	-0.000006
13.190	-0.000001
13.195	-0.000036
13.200	-0.000031
13.205	-0.000030
13.210	-0.000020
13.215	-0.000011
13.220	-0.000021
13.225	0.000014
13.230	-0.000025
13.235	-0.000026
13.240	-0.000025
13.245	-0.000005
13.250	-0.000015
13.255	-0.000006
13.260	-0.000030
13.265	-0.000035
13.270	-0.000020
13.275	-0.000015
13.280	-0.000015
13.285	-0.000005
13.290	0.000010
13.295	-0.000025
13.300	-0.000015
13.305	-0.000010
13.310	-0.000010
13.315	-0.000045
13.320	-0.000045
13.325	-0.000020
13.330	-0.000025
13.335	-0.000030
13.340	-0.000020
13.345	-0.000020
13.350	-0.000000
13.355	-0.000010
13.360	-0.000035
13.365	-0.000015
13.370	-0.000015
13.375	-0.000035
13.380	-0.000025
13.385	-0.000020
13.390	-0.000015
13.395	-0.000050
13.400	-0.000040
13.405	-0.000039
13.410	-0.000034
13.415	-0.000025
13.420	-0.000030
13.425	-0.000010
13.430	-0.000015
13.435	-0.000020
13.440	-0.000015
13.445	-0.000024
13.450	-0.000029
13.455	-0.000035
13.460	-0.000035
13.465	-0.000044
13.470	-0.000010
13.475	-0.000059
13.480	-0.000035
13.485	-0.000025
13.490	-0.000045
13.495	-0.000039
13.500	-0.000044
13.505	-0.000015
13.510	-0.000030
13.515	-0.000039
13.520	-0.000054
13.525	-0.000059
13.530	-0.000049
13.535	-0.000059
13.540	-0.000054
13.545	-0.000064
13.550	-0.000059
13.555	-0.000054
13.560	-0.000059
13.565	-0.000059
13.570	-0.000059
13.575	-0.000079
13.580	-0.000054
13.585	-0.000044
13.590	-0.000044
13.595	-0.000049
13.600	-0.000039
13.605	-0.000034
13.610	-0.000014
13.615	-0.000034
13.620	-0.000019
13.625	-0.000034
13.630	-0.000039
13.635	-0.000039
13.640	-0.000019
13.645	-0.000019
13.650	-0.000014
13.655	-0.000009
13.660	-0.000019
13.665	-0.000029
13.670	-0.000009
13.675	-0.000029
13.680	-0.000024
13.685	-0.000029
13.690	-0.000014
13.695	-0.000024
13.700	-0.000034
13.705	-0.000024
13.710	-0.000033
