PK2650 Deflection Data
Z Position (mm)	105.000	W Position (deg)	144.00
Preform ID	Diameter (mm)	Time Stamp	Start Time	Operator	Serial Number
Test 1	25	03-Nov-22 18:05:01	03-Nov-22 18:06:59	[no user]	266007708
Radius (mm)	Deflection
-26.280	0.000010
-26.275	-0.000024
-26.270	-0.000010
-26.265	-0.000024
-26.260	0.000003
-26.255	-0.000024
-26.250	-0.000010
-26.245	0.000017
-26.240	0.000030
-26.235	-0.000018
-26.230	-0.000031
-26.225	0.000016
-26.220	0.000010
-26.215	-0.000004
-26.210	-0.000004
-26.205	0.000010
-26.200	0.000003
-26.195	-0.000004
-26.190	0.000003
-26.185	-0.000004
-26.180	0.000010
-26.175	-0.000004
-26.170	-0.000004
-26.165	-0.000025
-26.160	0.000002
-26.155	0.000036
-26.150	0.000023
-26.145	0.000023
-26.140	0.000023
-26.135	-0.000005
-26.130	-0.000011
-26.125	-0.000025
-26.120	-0.000018
-26.115	-0.000018
-26.110	0.000009
-26.105	-0.000005
-26.100	0.000036
-26.095	0.000029
-26.090	0.000009
-26.085	0.000009
-26.080	0.000049
-26.075	0.000022
-26.070	0.000002
-26.065	0.000009
-26.060	0.000015
-26.055	0.000008
-26.050	-0.000012
-26.045	-0.000018
-26.040	0.000009
-26.035	-0.000026
-26.030	0.000001
-26.025	0.000015
-26.020	0.000022
-26.015	-0.000005
-26.010	-0.000006
-26.005	0.000015
-26.000	0.000015
-25.995	-0.000020
-25.990	0.000014
-25.985	-0.000013
-25.980	0.000008
-25.975	0.000001
-25.970	0.000001
-25.965	0.000001
-25.960	0.000028
-25.955	0.000035
-25.950	0.000015
-25.945	-0.000013
-25.940	0.000014
-25.935	0.000008
-25.930	-0.000006
-25.925	-0.000006
-25.920	-0.000006
-25.915	-0.000006
-25.910	-0.000026
-25.905	0.000001
-25.900	-0.000013
-25.895	0.000000
-25.890	0.000000
-25.885	0.000014
-25.880	0.000014
-25.875	-0.000013
-25.870	-0.000007
-25.865	0.000041
-25.860	0.000000
-25.855	0.000000
-25.850	0.000007
-25.845	0.000007
-25.840	-0.000020
-25.835	-0.000007
-25.830	0.000007
-25.825	0.000014
-25.820	0.000014
-25.815	0.000014
-25.810	0.000000
-25.805	-0.000007
-25.800	-0.000000
-25.795	0.000013
-25.790	-0.000021
-25.785	-0.000027
-25.780	-0.000006
-25.775	-0.000007
-25.770	-0.000020
-25.765	0.000007
-25.760	0.000027
-25.755	-0.000007
-25.750	-0.000021
-25.745	-0.000014
-25.740	-0.000007
-25.735	-0.000000
-25.730	0.000013
-25.725	-0.000007
-25.720	-0.000007
-25.715	-0.000007
-25.710	-0.000000
-25.705	0.000006
-25.700	0.000013
-25.695	0.000013
-25.690	0.000033
-25.685	-0.000001
-25.680	0.000006
-25.675	-0.000014
-25.670	0.000020
-25.665	-0.000001
-25.660	0.000033
-25.655	0.000019
-25.650	-0.000028
-25.645	0.000020
-25.640	-0.000000
-25.635	0.000019
-25.630	-0.000008
-25.625	-0.000014
-25.620	0.000033
-25.615	0.000019
-25.610	0.000006
-25.605	-0.000001
-25.600	-0.000008
-25.595	-0.000001
-25.590	-0.000015
-25.585	-0.000021
-25.580	0.000013
-25.575	-0.000001
-25.570	0.000012
-25.565	0.000033
-25.560	0.000006
-25.555	0.000033
-25.550	0.000012
-25.545	0.000019
-25.540	0.000012
-25.535	0.000005
-25.530	-0.000001
-25.525	-0.000008
-25.520	0.000005
-25.515	-0.000021
-25.510	0.000026
-25.505	0.000033
-25.500	0.000025
-25.495	0.000005
-25.490	0.000005
-25.485	0.000025
-25.480	0.000012
-25.475	0.000005
-25.470	-0.000009
-25.465	-0.000009
-25.460	0.000019
-25.455	-0.000015
-25.450	-0.000029
-25.445	-0.000015
-25.440	-0.000022
-25.435	0.000005
-25.430	-0.000029
-25.425	-0.000002
-25.420	0.000039
-25.415	0.000025
-25.410	-0.000009
-25.405	0.000005
-25.400	-0.000029
-25.395	-0.000022
-25.390	-0.000002
-25.385	0.000005
-25.380	0.000026
-25.375	0.000012
-25.370	0.000012
-25.365	-0.000002
-25.360	0.000025
-25.355	-0.000016
-25.350	0.000018
-25.345	0.000025
-25.340	-0.000009
-25.335	-0.000003
-25.330	-0.000030
-25.325	-0.000023
-25.320	-0.000009
-25.315	0.000005
-25.310	-0.000009
-25.305	0.000004
-25.300	0.000011
-25.295	0.000045
-25.290	0.000011
-25.285	0.000031
-25.280	0.000018
-25.275	-0.000002
-25.270	0.000025
-25.265	0.000018
-25.260	0.000004
-25.255	-0.000016
-25.250	-0.000002
-25.245	-0.000036
-25.240	0.000004
-25.235	0.000011
-25.230	0.000011
-25.225	0.000004
-25.220	0.000018
-25.215	0.000045
-25.210	0.000011
-25.205	0.000011
-25.200	-0.000010
-25.195	-0.000023
-25.190	0.000011
-25.185	-0.000030
-25.180	-0.000023
-25.175	-0.000003
-25.170	0.000017
-25.165	-0.000010
-25.160	0.000017
-25.155	0.000004
-25.150	-0.000003
-25.145	0.000017
-25.140	0.000010
-25.135	0.000010
-25.130	0.000004
-25.125	0.000003
-25.120	0.000003
-25.115	-0.000010
-25.110	-0.000003
-25.105	-0.000003
-25.100	0.000003
-25.095	0.000037
-25.090	0.000017
-25.085	0.000024
-25.080	0.000017
-25.075	0.000010
-25.070	-0.000010
-25.065	-0.000031
-25.060	0.000010
-25.055	0.000010
-25.050	0.000037
-25.045	-0.000017
-25.040	0.000017
-25.035	-0.000010
-25.030	0.000023
-25.025	0.000024
-25.020	0.000030
-25.015	0.000017
-25.010	0.000010
-25.005	0.000010
-25.000	0.000003
-24.995	0.000023
-24.990	-0.000038
-24.985	0.000010
-24.980	0.000003
-24.975	0.000003
-24.970	0.000010
-24.965	0.000016
-24.960	0.000010
-24.955	0.000003
-24.950	-0.000004
-24.945	0.000010
-24.940	-0.000004
-24.935	-0.000025
-24.930	0.000003
-24.925	-0.000004
-24.920	-0.000011
-24.915	-0.000004
-24.910	0.000017
-24.905	-0.000004
-24.900	0.000003
-24.895	0.000010
-24.890	0.000003
-24.885	0.000037
-24.880	0.000016
-24.875	0.000023
-24.870	-0.000004
-24.865	0.000016
-24.860	0.000016
-24.855	-0.000018
-24.850	0.000003
-24.845	-0.000004
-24.840	0.000010
-24.835	-0.000011
-24.830	0.000030
-24.825	0.000002
-24.820	0.000016
-24.815	0.000029
-24.810	0.000030
-24.805	-0.000004
-24.800	-0.000005
-24.795	0.000002
-24.790	-0.000011
-24.785	-0.000018
-24.780	-0.000011
-24.775	0.000016
-24.770	-0.000005
-24.765	0.000002
-24.760	0.000030
-24.755	0.000030
-24.750	0.000009
-24.745	0.000002
-24.740	0.000036
-24.735	0.000002
-24.730	0.000002
-24.725	-0.000018
-24.720	-0.000005
-24.715	0.000009
-24.710	-0.000004
-24.705	0.000023
-24.700	0.000009
-24.695	0.000029
-24.690	-0.000005
-24.685	0.000002
-24.680	0.000036
-24.675	0.000022
-24.670	-0.000012
-24.665	0.000002
-24.660	0.000009
-24.655	-0.000019
-24.650	0.000002
-24.645	0.000029
-24.640	0.000022
-24.635	0.000015
-24.630	0.000029
-24.625	0.000015
-24.620	0.000036
-24.615	0.000022
-24.610	0.000036
-24.605	0.000022
-24.600	0.000029
-24.595	0.000008
-24.590	0.000015
-24.585	0.000008
-24.580	0.000009
-24.575	0.000049
-24.570	0.000001
-24.565	0.000049
-24.560	0.000015
-24.555	-0.000012
-24.550	-0.000005
-24.545	0.000022
-24.540	-0.000012
-24.535	0.000015
-24.530	0.000001
-24.525	-0.000012
-24.520	0.000028
-24.515	0.000029
-24.510	0.000015
-24.505	-0.000006
-24.500	0.000028
-24.495	0.000049
-24.490	0.000042
-24.485	0.000028
-24.480	0.000029
-24.475	0.000008
-24.470	0.000022
-24.465	0.000042
-24.460	0.000015
-24.455	-0.000013
-24.450	0.000008
-24.445	0.000002
-24.440	-0.000005
-24.435	0.000015
-24.430	0.000015
-24.425	0.000001
-24.420	0.000015
-24.415	0.000048
-24.410	0.000028
-24.405	0.000008
-24.400	0.000008
-24.395	-0.000013
-24.390	-0.000006
-24.385	0.000028
-24.380	-0.000012
-24.375	0.000028
-24.370	0.000021
-24.365	0.000014
-24.360	0.000048
-24.355	0.000062
-24.350	0.000021
-24.345	0.000028
-24.340	-0.000027
-24.335	0.000021
-24.330	0.000028
-24.325	-0.000013
-24.320	0.000014
-24.315	-0.000019
-24.310	0.000042
-24.305	0.000021
-24.300	0.000014
-24.295	0.000034
-24.290	0.000041
-24.285	0.000021
-24.280	0.000041
-24.275	0.000014
-24.270	0.000027
-24.265	-0.000000
-24.260	0.000027
-24.255	0.000020
-24.250	0.000000
-24.245	0.000014
-24.240	0.000020
-24.235	0.000020
-24.230	0.000034
-24.225	0.000020
-24.220	0.000054
-24.215	0.000027
-24.210	-0.000007
-24.205	0.000041
-24.200	0.000020
-24.195	0.000020
-24.190	0.000034
-24.185	0.000020
-24.180	0.000021
-24.175	0.000007
-24.170	0.000061
-24.165	0.000054
-24.160	0.000068
-24.155	0.000027
-24.150	0.000047
-24.145	0.000020
-24.140	0.000040
-24.135	0.000013
-24.130	0.000026
-24.125	0.000026
-24.120	0.000040
-24.115	0.000041
-24.110	0.000040
-24.105	0.000020
-24.100	-0.000008
-24.095	0.000013
-24.090	0.000020
-24.085	0.000020
-24.080	0.000006
-24.075	0.000013
-24.070	0.000026
-24.065	0.000013
-24.060	-0.000001
-24.055	0.000013
-24.050	-0.000001
-24.045	0.000027
-24.040	0.000006
-24.035	0.000033
-24.030	0.000019
-24.025	0.000026
-24.020	0.000013
-24.015	0.000033
-24.010	0.000033
-24.005	0.000060
-24.000	0.000012
-23.995	0.000005
-23.990	-0.000002
-23.985	0.000033
-23.980	-0.000001
-23.975	0.000039
-23.970	0.000032
-23.965	0.000053
-23.960	0.000033
-23.955	0.000026
-23.950	-0.000002
-23.945	0.000019
-23.940	0.000019
-23.935	0.000019
-23.930	-0.000015
-23.925	0.000012
-23.920	0.000018
-23.915	0.000012
-23.910	0.000026
-23.905	-0.000009
-23.900	0.000025
-23.895	0.000011
-23.890	0.000046
-23.885	-0.000002
-23.880	0.000025
-23.875	0.000038
-23.870	-0.000002
-23.865	-0.000009
-23.860	-0.000023
-23.855	-0.000030
-23.850	0.000018
-23.845	-0.000016
-23.840	0.000011
-23.835	0.000018
-23.830	-0.000009
-23.825	0.000038
-23.820	0.000025
-23.815	0.000025
-23.810	0.000011
-23.805	0.000052
-23.800	-0.000016
-23.795	0.000011
-23.790	0.000011
-23.785	-0.000016
-23.780	-0.000016
-23.775	-0.000002
-23.770	0.000004
-23.765	0.000018
-23.760	0.000011
-23.755	0.000038
-23.750	-0.000010
-23.745	-0.000003
-23.740	-0.000010
-23.735	-0.000003
-23.730	-0.000003
-23.725	-0.000003
-23.720	0.000011
-23.715	0.000004
-23.710	-0.000010
-23.705	-0.000010
-23.700	0.000031
-23.695	0.000051
-23.690	0.000004
-23.685	0.000017
-23.680	-0.000010
-23.675	-0.000017
-23.670	-0.000024
-23.665	0.000010
-23.660	-0.000010
-23.655	0.000017
-23.650	0.000024
-23.645	0.000011
-23.640	0.000024
-23.635	0.000010
-23.630	0.000037
-23.625	0.000037
-23.620	-0.000017
-23.615	0.000003
-23.610	-0.000004
-23.605	-0.000011
-23.600	-0.000031
-23.595	-0.000018
-23.590	-0.000011
-23.585	-0.000017
-23.580	-0.000010
-23.575	-0.000045
-23.570	0.000016
-23.565	-0.000038
-23.560	0.000003
-23.555	0.000003
-23.550	-0.000011
-23.545	-0.000018
-23.540	-0.000018
-23.535	-0.000032
-23.530	-0.000018
-23.525	-0.000052
-23.520	-0.000011
-23.515	-0.000038
-23.510	-0.000031
-23.505	-0.000004
-23.500	-0.000032
-23.495	-0.000038
-23.490	-0.000005
-23.485	-0.000039
-23.480	-0.000066
-23.475	-0.000046
-23.470	-0.000039
-23.465	-0.000039
-23.460	-0.000018
-23.455	-0.000080
-23.450	-0.000059
-23.445	-0.000025
-23.440	0.000002
-23.435	-0.000025
-23.430	-0.000019
-23.425	-0.000025
-23.420	0.000009
-23.415	-0.000019
-23.410	-0.000025
-23.405	-0.000019
-23.400	-0.000053
-23.395	-0.000032
-23.390	-0.000046
-23.385	-0.000012
-23.380	0.000009
-23.375	-0.000032
-23.370	-0.000053
-23.365	-0.000033
-23.360	-0.000026
-23.355	-0.000006
-23.350	-0.000039
-23.345	-0.000012
-23.340	-0.000040
-23.335	-0.000040
-23.330	-0.000026
-23.325	-0.000013
-23.320	-0.000053
-23.315	-0.000026
-23.310	-0.000033
-23.305	-0.000033
-23.300	0.000001
-23.295	-0.000033
-23.290	0.000001
-23.285	-0.000006
-23.280	-0.000006
-23.275	-0.000019
-23.270	-0.000026
-23.265	-0.000006
-23.260	-0.000026
-23.255	0.000001
-23.250	-0.000047
-23.245	-0.000026
-23.240	-0.000006
-23.235	0.000007
-23.230	-0.000006
-23.225	0.000021
-23.220	0.000000
-23.215	0.000000
-23.210	0.000000
-23.205	-0.000020
-23.200	-0.000034
-23.195	-0.000054
-23.190	-0.000034
-23.185	-0.000040
-23.180	0.000001
-23.175	-0.000033
-23.170	-0.000013
-23.165	-0.000013
-23.160	-0.000027
-23.155	0.000007
-23.150	-0.000034
-23.145	-0.000013
-23.140	-0.000013
-23.135	0.000000
-23.130	-0.000020
-23.125	-0.000041
-23.120	-0.000034
-23.115	-0.000033
-23.110	-0.000027
-23.105	0.000000
-23.100	-0.000014
-23.095	-0.000007
-23.090	-0.000000
-23.085	-0.000007
-23.080	-0.000021
-23.075	-0.000007
-23.070	-0.000041
-23.065	-0.000028
-23.060	-0.000014
-23.055	-0.000041
-23.050	-0.000027
-23.045	-0.000014
-23.040	-0.000007
-23.035	-0.000007
-23.030	-0.000007
-23.025	0.000013
-23.020	0.000013
-23.015	-0.000021
-23.010	-0.000041
-23.005	-0.000007
-23.000	-0.000028
-22.995	-0.000028
-22.990	-0.000028
-22.985	-0.000034
-22.980	-0.000007
-22.975	0.000020
-22.970	-0.000001
-22.965	0.000013
-22.960	-0.000008
-22.955	-0.000021
-22.950	0.000006
-22.945	-0.000008
-22.940	-0.000021
-22.935	-0.000028
-22.930	0.000026
-22.925	-0.000021
-22.920	-0.000008
-22.915	-0.000000
-22.910	-0.000014
-22.905	-0.000015
-22.900	0.000026
-22.895	-0.000015
-22.890	0.000013
-22.885	0.000019
-22.880	0.000006
-22.875	-0.000001
-22.870	-0.000001
-22.865	-0.000001
-22.860	0.000012
-22.855	-0.000042
-22.850	-0.000008
-22.845	-0.000028
-22.840	-0.000001
-22.835	-0.000008
-22.830	0.000019
-22.825	0.000026
-22.820	0.000012
-22.815	0.000026
-22.810	-0.000002
-22.805	-0.000002
-22.800	0.000012
-22.795	-0.000049
-22.790	-0.000002
-22.785	-0.000022
-22.780	-0.000001
-22.775	-0.000008
-22.770	-0.000015
-22.765	0.000005
-22.760	-0.000022
-22.755	-0.000002
-22.750	0.000005
-22.745	0.000019
-22.740	0.000012
-22.735	-0.000022
-22.730	0.000005
-22.725	-0.000036
-22.720	-0.000015
-22.715	-0.000001
-22.710	-0.000029
-22.705	0.000012
-22.700	0.000032
-22.695	0.000011
-22.690	0.000011
-22.685	-0.000002
-22.680	0.000018
-22.675	-0.000023
-22.670	-0.000029
-22.665	0.000018
-22.660	0.000018
-22.655	0.000004
-22.650	-0.000009
-22.645	0.000005
-22.640	-0.000023
-22.635	0.000025
-22.630	0.000025
-22.625	0.000011
-22.620	-0.000002
-22.615	0.000004
-22.610	-0.000023
-22.605	-0.000023
-22.600	-0.000030
-22.595	-0.000030
-22.590	-0.000009
-22.585	-0.000030
-22.580	-0.000002
-22.575	-0.000016
-22.570	0.000024
-22.565	0.000004
-22.560	-0.000016
-22.555	-0.000003
-22.550	0.000017
-22.545	0.000004
-22.540	-0.000010
-22.535	0.000017
-22.530	-0.000024
-22.525	-0.000023
-22.520	0.000004
-22.515	-0.000016
-22.510	-0.000023
-22.505	-0.000003
-22.500	-0.000017
-22.495	-0.000010
-22.490	0.000010
-22.485	-0.000003
-22.480	-0.000010
-22.475	-0.000010
-22.470	-0.000003
-22.465	-0.000010
-22.460	-0.000017
-22.455	-0.000038
-22.450	-0.000017
-22.445	-0.000017
-22.440	-0.000010
-22.435	0.000010
-22.430	-0.000031
-22.425	-0.000017
-22.420	-0.000017
-22.415	0.000003
-22.410	-0.000011
-22.405	-0.000011
-22.400	-0.000024
-22.395	-0.000024
-22.390	-0.000018
-22.385	-0.000017
-22.380	-0.000024
-22.375	-0.000024
-22.370	-0.000011
-22.365	-0.000004
-22.360	-0.000018
-22.355	-0.000024
-22.350	-0.000018
-22.345	0.000003
-22.340	-0.000031
-22.335	-0.000004
-22.330	-0.000018
-22.325	-0.000032
-22.320	-0.000018
-22.315	-0.000011
-22.310	-0.000031
-22.305	-0.000004
-22.300	0.000003
-22.295	-0.000025
-22.290	0.000023
-22.285	0.000009
-22.280	-0.000011
-22.275	0.000002
-22.270	-0.000011
-22.265	-0.000012
-22.260	-0.000018
-22.255	-0.000011
-22.250	-0.000059
-22.245	-0.000031
-22.240	-0.000005
-22.235	-0.000018
-22.230	-0.000005
-22.225	-0.000018
-22.220	-0.000011
-22.215	-0.000025
-22.210	-0.000011
-22.205	-0.000018
-22.200	-0.000039
-22.195	-0.000059
-22.190	-0.000046
-22.185	-0.000032
-22.180	-0.000011
-22.175	-0.000011
-22.170	-0.000025
-22.165	-0.000025
-22.160	-0.000005
-22.155	-0.000032
-22.150	-0.000032
-22.145	-0.000032
-22.140	-0.000026
-22.135	-0.000026
-22.130	-0.000012
-22.125	-0.000005
-22.120	-0.000039
-22.115	0.000002
-22.110	-0.000032
-22.105	0.000022
-22.100	0.000015
-22.095	-0.000012
-22.090	0.000015
-22.085	-0.000019
-22.080	-0.000005
-22.075	-0.000032
-22.070	0.000001
-22.065	-0.000040
-22.060	-0.000046
-22.055	-0.000026
-22.050	-0.000032
-22.045	-0.000032
-22.040	0.000008
-22.035	-0.000033
-22.030	-0.000012
-22.025	-0.000012
-22.020	-0.000019
-22.015	-0.000012
-22.010	-0.000026
-22.005	-0.000006
-22.000	-0.000040
-21.995	-0.000040
-21.990	-0.000033
-21.985	-0.000060
-21.980	-0.000033
-21.975	-0.000019
-21.970	-0.000047
-21.965	-0.000020
-21.960	-0.000026
-21.955	-0.000026
-21.950	-0.000013
-21.945	-0.000013
-21.940	0.000001
-21.935	-0.000006
-21.930	-0.000020
-21.925	-0.000033
-21.920	-0.000053
-21.915	-0.000040
-21.910	-0.000019
-21.905	-0.000027
-21.900	-0.000006
-21.895	-0.000033
-21.890	-0.000020
-21.885	-0.000020
-21.880	0.000000
-21.875	-0.000034
-21.870	-0.000027
-21.865	-0.000034
-21.860	-0.000054
-21.855	-0.000034
-21.850	-0.000026
-21.845	-0.000020
-21.840	-0.000034
-21.835	-0.000034
-21.830	-0.000020
-21.825	-0.000013
-21.820	-0.000006
-21.815	-0.000027
-21.810	-0.000034
-21.805	-0.000047
-21.800	-0.000034
-21.795	-0.000027
-21.790	-0.000027
-21.785	-0.000034
-21.780	-0.000047
-21.775	-0.000027
-21.770	-0.000034
-21.765	-0.000034
-21.760	-0.000020
-21.755	-0.000041
-21.750	-0.000014
-21.745	-0.000034
-21.740	-0.000034
-21.735	-0.000034
-21.730	-0.000027
-21.725	-0.000068
-21.720	-0.000041
-21.715	-0.000040
-21.710	-0.000014
-21.705	0.000013
-21.700	-0.000021
-21.695	-0.000028
-21.690	-0.000021
-21.685	-0.000021
-21.680	-0.000014
-21.675	-0.000034
-21.670	-0.000000
-21.665	-0.000014
-21.660	-0.000034
-21.655	-0.000034
-21.650	-0.000054
-21.645	-0.000041
-21.640	-0.000007
-21.635	-0.000007
-21.630	-0.000048
-21.625	-0.000001
-21.620	-0.000041
-21.615	-0.000021
-21.610	-0.000028
-21.605	-0.000035
-21.600	-0.000035
-21.595	-0.000035
-21.590	-0.000028
-21.585	-0.000007
-21.580	-0.000055
-21.575	-0.000001
-21.570	0.000006
-21.565	-0.000001
-21.560	-0.000028
-21.555	0.000013
-21.550	-0.000028
-21.545	0.000013
-21.540	-0.000015
-21.535	-0.000008
-21.530	-0.000035
-21.525	-0.000028
-21.520	-0.000035
-21.515	-0.000034
-21.510	-0.000014
-21.505	0.000012
-21.500	-0.000021
-21.495	0.000019
-21.490	0.000019
-21.485	0.000006
-21.480	-0.000028
-21.475	0.000013
-21.470	0.000026
-21.465	0.000026
-21.460	0.000026
-21.455	0.000040
-21.450	0.000081
-21.445	0.000115
-21.440	0.000231
-21.435	0.000375
-21.430	0.000621
-21.425	0.000951
-21.420	0.001405
-21.415	0.001958
-21.410	0.002777
-21.405	0.003812
-21.400	0.005055
-21.395	0.006587
-21.390	0.008353
-21.385	0.010428
-21.380	0.012845
-21.375	0.015688
-21.370	0.018745
-21.365	0.021997
-21.360	0.025492
-21.355	0.029121
-21.350	0.032800
-21.345	0.036428
-21.340	0.040065
-21.335	0.043755
-21.330	0.047245
-21.325	0.050236
-21.320	0.050581
-21.315	0.049512
-21.310	0.048737
-21.305	0.047034
-21.300	0.045276
-21.295	0.044408
-21.290	0.043581
-21.285	0.042667
-21.280	0.042050
-21.275	0.041622
-21.270	0.040209
-21.265	0.038856
-21.260	0.037996
-21.255	0.037088
-21.250	0.036324
-21.245	0.035868
-21.240	0.035054
-21.235	0.034299
-21.230	0.034116
-21.225	0.033430
-21.220	0.032870
-21.215	0.032381
-21.210	0.031916
-21.205	0.031486
-21.200	0.031147
-21.195	0.030909
-21.190	0.030631
-21.185	0.030510
-21.180	0.029882
-21.175	0.029075
-21.170	0.028615
-21.165	0.028475
-21.160	0.028229
-21.155	0.027714
-21.150	0.027306
-21.145	0.027207
-21.140	0.027216
-21.135	0.027501
-21.130	0.027281
-21.125	0.026258
-21.120	0.025769
-21.115	0.025700
-21.110	0.025516
-21.105	0.025263
-21.100	0.025096
-21.095	0.024957
-21.090	0.024680
-21.085	0.024360
-21.080	0.024090
-21.075	0.023897
-21.070	0.023721
-21.065	0.023465
-21.060	0.023230
-21.055	0.022982
-21.050	0.022822
-21.045	0.022719
-21.040	0.022618
-21.035	0.022460
-21.030	0.022288
-21.025	0.022156
-21.020	0.022015
-21.015	0.021875
-21.010	0.021788
-21.005	0.021699
-21.000	0.021618
-20.995	0.021503
-20.990	0.021336
-20.985	0.021120
-20.980	0.020898
-20.975	0.020803
-20.970	0.020687
-20.965	0.020562
-20.960	0.020412
-20.955	0.020274
-20.950	0.020187
-20.945	0.020064
-20.940	0.019929
-20.935	0.019831
-20.930	0.019693
-20.925	0.019557
-20.920	0.019462
-20.915	0.019369
-20.910	0.019236
-20.905	0.019136
-20.900	0.019045
-20.895	0.018951
-20.890	0.018854
-20.885	0.018731
-20.880	0.018626
-20.875	0.018563
-20.870	0.018463
-20.865	0.018443
-20.860	0.018312
-20.855	0.018225
-20.850	0.018170
-20.845	0.018010
-20.840	0.017914
-20.835	0.017795
-20.830	0.017733
-20.825	0.017627
-20.820	0.017514
-20.815	0.017448
-20.810	0.017329
-20.805	0.017240
-20.800	0.017175
-20.795	0.017118
-20.790	0.017061
-20.785	0.016977
-20.780	0.016950
-20.775	0.016863
-20.770	0.016823
-20.765	0.016756
-20.760	0.016709
-20.755	0.016584
-20.750	0.016527
-20.745	0.016374
-20.740	0.016348
-20.735	0.016287
-20.730	0.016197
-20.725	0.016128
-20.720	0.016045
-20.715	0.015995
-20.710	0.015940
-20.705	0.015871
-20.700	0.015794
-20.695	0.015747
-20.690	0.015672
-20.685	0.015634
-20.680	0.015558
-20.675	0.015514
-20.670	0.015463
-20.665	0.015374
-20.660	0.015366
-20.655	0.015308
-20.650	0.015207
-20.645	0.015193
-20.640	0.015116
-20.635	0.015070
-20.630	0.015045
-20.625	0.014982
-20.620	0.014954
-20.615	0.014908
-20.610	0.014839
-20.605	0.014762
-20.600	0.014724
-20.595	0.014699
-20.590	0.014626
-20.585	0.014561
-20.580	0.014546
-20.575	0.014520
-20.570	0.014433
-20.565	0.014396
-20.560	0.014342
-20.555	0.014269
-20.550	0.014255
-20.545	0.014179
-20.540	0.014127
-20.535	0.014084
-20.530	0.014055
-20.525	0.014049
-20.520	0.013938
-20.515	0.013942
-20.510	0.013905
-20.505	0.013851
-20.500	0.013866
-20.495	0.013791
-20.490	0.013771
-20.485	0.013727
-20.480	0.013701
-20.475	0.013650
-20.470	0.013652
-20.465	0.013604
-20.460	0.013540
-20.455	0.013533
-20.450	0.013402
-20.445	0.013430
-20.440	0.013362
-20.435	0.013353
-20.430	0.013300
-20.425	0.013267
-20.420	0.013196
-20.415	0.013147
-20.410	0.013104
-20.405	0.013098
-20.400	0.013043
-20.395	0.013010
-20.390	0.012979
-20.385	0.012975
-20.380	0.012906
-20.375	0.012907
-20.370	0.012850
-20.365	0.012835
-20.360	0.012782
-20.355	0.012753
-20.350	0.012735
-20.345	0.012724
-20.340	0.012641
-20.335	0.012590
-20.330	0.012563
-20.325	0.012530
-20.320	0.012494
-20.315	0.012443
-20.310	0.012430
-20.305	0.012388
-20.300	0.012358
-20.295	0.012320
-20.290	0.012310
-20.285	0.012286
-20.280	0.012229
-20.275	0.012214
-20.270	0.012130
-20.265	0.012116
-20.260	0.012085
-20.255	0.012100
-20.250	0.012069
-20.245	0.012038
-20.240	0.012015
-20.235	0.011989
-20.230	0.011953
-20.225	0.011952
-20.220	0.011945
-20.215	0.011914
-20.210	0.011878
-20.205	0.011822
-20.200	0.011814
-20.195	0.011761
-20.190	0.011745
-20.185	0.011714
-20.180	0.011698
-20.175	0.011678
-20.170	0.011690
-20.165	0.011619
-20.160	0.011621
-20.155	0.011592
-20.150	0.011542
-20.145	0.011517
-20.140	0.011503
-20.135	0.011451
-20.130	0.011470
-20.125	0.011418
-20.120	0.011377
-20.115	0.011346
-20.110	0.011332
-20.105	0.011349
-20.100	0.011270
-20.095	0.011254
-20.090	0.011211
-20.085	0.011222
-20.080	0.011178
-20.075	0.011121
-20.070	0.011112
-20.065	0.011106
-20.060	0.011078
-20.055	0.011027
-20.050	0.011001
-20.045	0.011012
-20.040	0.011001
-20.035	0.010966
-20.030	0.010952
-20.025	0.010925
-20.020	0.010897
-20.015	0.010883
-20.010	0.010876
-20.005	0.010833
-20.000	0.010785
-19.995	0.010764
-19.990	0.010764
-19.985	0.010766
-19.980	0.010742
-19.975	0.010710
-19.970	0.010668
-19.965	0.010697
-19.960	0.010657
-19.955	0.010659
-19.950	0.010594
-19.945	0.010587
-19.940	0.010558
-19.935	0.010537
-19.930	0.010522
-19.925	0.010502
-19.920	0.010479
-19.915	0.010467
-19.910	0.010428
-19.905	0.010435
-19.900	0.010417
-19.895	0.010391
-19.890	0.010377
-19.885	0.010384
-19.880	0.010359
-19.875	0.010319
-19.870	0.010306
-19.865	0.010281
-19.860	0.010233
-19.855	0.010217
-19.850	0.010222
-19.845	0.010180
-19.840	0.010195
-19.835	0.010182
-19.830	0.010168
-19.825	0.010146
-19.820	0.010124
-19.815	0.010091
-19.810	0.010064
-19.805	0.010050
-19.800	0.010019
-19.795	0.009988
-19.790	0.009983
-19.785	0.009928
-19.780	0.009909
-19.775	0.009911
-19.770	0.009890
-19.765	0.009881
-19.760	0.009834
-19.755	0.009821
-19.750	0.009814
-19.745	0.009785
-19.740	0.009765
-19.735	0.009721
-19.730	0.009714
-19.725	0.009721
-19.720	0.009691
-19.715	0.009663
-19.710	0.009645
-19.705	0.009616
-19.700	0.009590
-19.695	0.009605
-19.690	0.009571
-19.685	0.009558
-19.680	0.009545
-19.675	0.009495
-19.670	0.009459
-19.665	0.009429
-19.660	0.009435
-19.655	0.009445
-19.650	0.009421
-19.645	0.009407
-19.640	0.009425
-19.635	0.009375
-19.630	0.009377
-19.625	0.009370
-19.620	0.009330
-19.615	0.009316
-19.610	0.009300
-19.605	0.009277
-19.600	0.009253
-19.595	0.009258
-19.590	0.009216
-19.585	0.009246
-19.580	0.009213
-19.575	0.009199
-19.570	0.009215
-19.565	0.009227
-19.560	0.009199
-19.555	0.009199
-19.550	0.009214
-19.545	0.009142
-19.540	0.009118
-19.535	0.009101
-19.530	0.009135
-19.525	0.009098
-19.520	0.009080
-19.515	0.009093
-19.510	0.009040
-19.505	0.009061
-19.500	0.009060
-19.495	0.009037
-19.490	0.009037
-19.485	0.009028
-19.480	0.009007
-19.475	0.008972
-19.470	0.008993
-19.465	0.008974
-19.460	0.008961
-19.455	0.008916
-19.450	0.008931
-19.445	0.008880
-19.440	0.008921
-19.435	0.008888
-19.430	0.008884
-19.425	0.008871
-19.420	0.008839
-19.415	0.008813
-19.410	0.008813
-19.405	0.008766
-19.400	0.008766
-19.395	0.008766
-19.390	0.008767
-19.385	0.008750
-19.380	0.008722
-19.375	0.008713
-19.370	0.008715
-19.365	0.008703
-19.360	0.008716
-19.355	0.008703
-19.350	0.008639
-19.345	0.008643
-19.340	0.008640
-19.335	0.008649
-19.330	0.008615
-19.325	0.008586
-19.320	0.008593
-19.315	0.008575
-19.310	0.008593
-19.305	0.008583
-19.300	0.008555
-19.295	0.008540
-19.290	0.008552
-19.285	0.008545
-19.280	0.008527
-19.275	0.008490
-19.270	0.008494
-19.265	0.008477
-19.260	0.008476
-19.255	0.008441
-19.250	0.008434
-19.245	0.008437
-19.240	0.008435
-19.235	0.008398
-19.230	0.008431
-19.225	0.008395
-19.220	0.008400
-19.215	0.008385
-19.210	0.008365
-19.205	0.008322
-19.200	0.008317
-19.195	0.008310
-19.190	0.008313
-19.185	0.008315
-19.180	0.008294
-19.175	0.008285
-19.170	0.008294
-19.165	0.008282
-19.160	0.008290
-19.155	0.008263
-19.150	0.008252
-19.145	0.008259
-19.140	0.008241
-19.135	0.008221
-19.130	0.008185
-19.125	0.008179
-19.120	0.008192
-19.115	0.008179
-19.110	0.008192
-19.105	0.008157
-19.100	0.008172
-19.095	0.008151
-19.090	0.008142
-19.085	0.008139
-19.080	0.008124
-19.075	0.008117
-19.070	0.008111
-19.065	0.008097
-19.060	0.008071
-19.055	0.008061
-19.050	0.008032
-19.045	0.008049
-19.040	0.008000
-19.035	0.008049
-19.030	0.008029
-19.025	0.007995
-19.020	0.007987
-19.015	0.007971
-19.010	0.007992
-19.005	0.007950
-19.000	0.007945
-18.995	0.007925
-18.990	0.007921
-18.985	0.007895
-18.980	0.007890
-18.975	0.007892
-18.970	0.007892
-18.965	0.007892
-18.960	0.007878
-18.955	0.007836
-18.950	0.007815
-18.945	0.007778
-18.940	0.007798
-18.935	0.007785
-18.930	0.007737
-18.925	0.007759
-18.920	0.007736
-18.915	0.007729
-18.910	0.007714
-18.905	0.007733
-18.900	0.007734
-18.895	0.007686
-18.890	0.007721
-18.885	0.007681
-18.880	0.007654
-18.875	0.007641
-18.870	0.007633
-18.865	0.007612
-18.860	0.007667
-18.855	0.007598
-18.850	0.007577
-18.845	0.007582
-18.840	0.007587
-18.835	0.007567
-18.830	0.007540
-18.825	0.007567
-18.820	0.007545
-18.815	0.007538
-18.810	0.007545
-18.805	0.007481
-18.800	0.007535
-18.795	0.007477
-18.790	0.007478
-18.785	0.007458
-18.780	0.007468
-18.775	0.007448
-18.770	0.007495
-18.765	0.007466
-18.760	0.007451
-18.755	0.007449
-18.750	0.007421
-18.745	0.007447
-18.740	0.007438
-18.735	0.007409
-18.730	0.007396
-18.725	0.007382
-18.720	0.007377
-18.715	0.007350
-18.710	0.007333
-18.705	0.007365
-18.700	0.007358
-18.695	0.007336
-18.690	0.007343
-18.685	0.007327
-18.680	0.007320
-18.675	0.007306
-18.670	0.007291
-18.665	0.007284
-18.660	0.007276
-18.655	0.007264
-18.650	0.007265
-18.645	0.007248
-18.640	0.007252
-18.635	0.007260
-18.630	0.007233
-18.625	0.007245
-18.620	0.007237
-18.615	0.007188
-18.610	0.007209
-18.605	0.007139
-18.600	0.007201
-18.595	0.007179
-18.590	0.007153
-18.585	0.007168
-18.580	0.007148
-18.575	0.007166
-18.570	0.007159
-18.565	0.007165
-18.560	0.007145
-18.555	0.007109
-18.550	0.007088
-18.545	0.007094
-18.540	0.007102
-18.535	0.007067
-18.530	0.007081
-18.525	0.007061
-18.520	0.007029
-18.515	0.007042
-18.510	0.007055
-18.505	0.007068
-18.500	0.007068
-18.495	0.007027
-18.490	0.007035
-18.485	0.007021
-18.480	0.007028
-18.475	0.007041
-18.470	0.006999
-18.465	0.006992
-18.460	0.006951
-18.455	0.006974
-18.450	0.006982
-18.445	0.006979
-18.440	0.006970
-18.435	0.006942
-18.430	0.006957
-18.425	0.006942
-18.420	0.006934
-18.415	0.006900
-18.410	0.006927
-18.405	0.006920
-18.400	0.006900
-18.395	0.006878
-18.390	0.006888
-18.385	0.006861
-18.380	0.006894
-18.375	0.006899
-18.370	0.006886
-18.365	0.006859
-18.360	0.006852
-18.355	0.006866
-18.350	0.006880
-18.345	0.006830
-18.340	0.006838
-18.335	0.006823
-18.330	0.006782
-18.325	0.006761
-18.320	0.006798
-18.315	0.006769
-18.310	0.006767
-18.305	0.006779
-18.300	0.006745
-18.295	0.006746
-18.290	0.006739
-18.285	0.006731
-18.280	0.006744
-18.275	0.006716
-18.270	0.006710
-18.265	0.006716
-18.260	0.006661
-18.255	0.006671
-18.250	0.006692
-18.245	0.006690
-18.240	0.006696
-18.235	0.006683
-18.230	0.006678
-18.225	0.006679
-18.220	0.006645
-18.215	0.006597
-18.210	0.006632
-18.205	0.006606
-18.200	0.006607
-18.195	0.006614
-18.190	0.006595
-18.185	0.006576
-18.180	0.006612
-18.175	0.006590
-18.170	0.006611
-18.165	0.006591
-18.160	0.006585
-18.155	0.006572
-18.150	0.006593
-18.145	0.006557
-18.140	0.006524
-18.135	0.006531
-18.130	0.006538
-18.125	0.006532
-18.120	0.006550
-18.115	0.006543
-18.110	0.006543
-18.105	0.006537
-18.100	0.006546
-18.095	0.006540
-18.090	0.006526
-18.085	0.006499
-18.080	0.006506
-18.075	0.006497
-18.070	0.006491
-18.065	0.006463
-18.060	0.006506
-18.055	0.006514
-18.050	0.006501
-18.045	0.006464
-18.040	0.006495
-18.035	0.006452
-18.030	0.006459
-18.025	0.006458
-18.020	0.006458
-18.015	0.006423
-18.010	0.006428
-18.005	0.006406
-18.000	0.006371
-17.995	0.006412
-17.990	0.006385
-17.985	0.006385
-17.980	0.006370
-17.975	0.006395
-17.970	0.006381
-17.965	0.006367
-17.960	0.006381
-17.955	0.006367
-17.950	0.006332
-17.945	0.006324
-17.940	0.006351
-17.935	0.006329
-17.930	0.006321
-17.925	0.006309
-17.920	0.006339
-17.915	0.006325
-17.910	0.006343
-17.905	0.006260
-17.900	0.006314
-17.895	0.006307
-17.890	0.006294
-17.885	0.006272
-17.880	0.006279
-17.875	0.006264
-17.870	0.006251
-17.865	0.006237
-17.860	0.006237
-17.855	0.006205
-17.850	0.006246
-17.845	0.006217
-17.840	0.006209
-17.835	0.006271
-17.830	0.006265
-17.825	0.006203
-17.820	0.006230
-17.815	0.006229
-17.810	0.006181
-17.805	0.006215
-17.800	0.006194
-17.795	0.006179
-17.790	0.006180
-17.785	0.006167
-17.780	0.006158
-17.775	0.006169
-17.770	0.006163
-17.765	0.006149
-17.760	0.006169
-17.755	0.006148
-17.750	0.006126
-17.745	0.006119
-17.740	0.006118
-17.735	0.006111
-17.730	0.006076
-17.725	0.006084
-17.720	0.006058
-17.715	0.006036
-17.710	0.006076
-17.705	0.006096
-17.700	0.006062
-17.695	0.006048
-17.690	0.006048
-17.685	0.006054
-17.680	0.006013
-17.675	0.006019
-17.670	0.006032
-17.665	0.005984
-17.660	0.005977
-17.655	0.005980
-17.650	0.005981
-17.645	0.005973
-17.640	0.005950
-17.635	0.006026
-17.630	0.005958
-17.625	0.005945
-17.620	0.005945
-17.615	0.005938
-17.610	0.005973
-17.605	0.005937
-17.600	0.005945
-17.595	0.005911
-17.590	0.005914
-17.585	0.005887
-17.580	0.005905
-17.575	0.005897
-17.570	0.005919
-17.565	0.005912
-17.560	0.005919
-17.555	0.005911
-17.550	0.005904
-17.545	0.005855
-17.540	0.005876
-17.535	0.005855
-17.530	0.005848
-17.525	0.005855
-17.520	0.005857
-17.515	0.005835
-17.510	0.005827
-17.505	0.005840
-17.500	0.005826
-17.495	0.005846
-17.490	0.005819
-17.485	0.005811
-17.480	0.005811
-17.475	0.005802
-17.470	0.005780
-17.465	0.005766
-17.460	0.005772
-17.455	0.005775
-17.450	0.005789
-17.445	0.005773
-17.440	0.005766
-17.435	0.005766
-17.430	0.005780
-17.425	0.005752
-17.420	0.005739
-17.415	0.005732
-17.410	0.005746
-17.405	0.005717
-17.400	0.005724
-17.395	0.005668
-17.390	0.005705
-17.385	0.005706
-17.380	0.005712
-17.375	0.005695
-17.370	0.005695
-17.365	0.005687
-17.360	0.005673
-17.355	0.005720
-17.350	0.005699
-17.345	0.005705
-17.340	0.005671
-17.335	0.005642
-17.330	0.005657
-17.325	0.005657
-17.320	0.005672
-17.315	0.005623
-17.310	0.005662
-17.305	0.005655
-17.300	0.005615
-17.295	0.005628
-17.290	0.005635
-17.285	0.005606
-17.280	0.005606
-17.275	0.005591
-17.270	0.005570
-17.265	0.005591
-17.260	0.005578
-17.255	0.005574
-17.250	0.005574
-17.245	0.005558
-17.240	0.005578
-17.235	0.005571
-17.230	0.005570
-17.225	0.005570
-17.220	0.005556
-17.215	0.005555
-17.210	0.005528
-17.205	0.005507
-17.200	0.005528
-17.195	0.005509
-17.190	0.005518
-17.185	0.005533
-17.180	0.005505
-17.175	0.005511
-17.170	0.005525
-17.165	0.005511
-17.160	0.005505
-17.155	0.005504
-17.150	0.005497
-17.145	0.005489
-17.140	0.005455
-17.135	0.005475
-17.130	0.005476
-17.125	0.005469
-17.120	0.005457
-17.115	0.005477
-17.110	0.005482
-17.105	0.005426
-17.100	0.005474
-17.095	0.005446
-17.090	0.005432
-17.085	0.005480
-17.080	0.005411
-17.075	0.005410
-17.070	0.005410
-17.065	0.005417
-17.060	0.005425
-17.055	0.005434
-17.050	0.005399
-17.045	0.005451
-17.040	0.005409
-17.035	0.005395
-17.030	0.005389
-17.025	0.005415
-17.020	0.005396
-17.015	0.005382
-17.010	0.005375
-17.005	0.005367
-17.000	0.005360
-16.995	0.005354
-16.990	0.005350
-16.985	0.005357
-16.980	0.005355
-16.975	0.005333
-16.970	0.005367
-16.965	0.005334
-16.960	0.005327
-16.955	0.005327
-16.950	0.005347
-16.945	0.005320
-16.940	0.005285
-16.935	0.005305
-16.930	0.005312
-16.925	0.005300
-16.920	0.005288
-16.915	0.005287
-16.910	0.005292
-16.905	0.005265
-16.900	0.005273
-16.895	0.005280
-16.890	0.005287
-16.885	0.005266
-16.880	0.005280
-16.875	0.005245
-16.870	0.005266
-16.865	0.005294
-16.860	0.005247
-16.855	0.005257
-16.850	0.005251
-16.845	0.005262
-16.840	0.005255
-16.835	0.005263
-16.830	0.005229
-16.825	0.005244
-16.820	0.005230
-16.815	0.005216
-16.810	0.005244
-16.805	0.005201
-16.800	0.005208
-16.795	0.005180
-16.790	0.005183
-16.785	0.005219
-16.780	0.005217
-16.775	0.005195
-16.770	0.005203
-16.765	0.005182
-16.760	0.005162
-16.755	0.005175
-16.750	0.005196
-16.745	0.005168
-16.740	0.005154
-16.735	0.005132
-16.730	0.005154
-16.725	0.005128
-16.720	0.005101
-16.715	0.005122
-16.710	0.005148
-16.705	0.005120
-16.700	0.005127
-16.695	0.005133
-16.690	0.005119
-16.685	0.005097
-16.680	0.005091
-16.675	0.005062
-16.670	0.005042
-16.665	0.005056
-16.660	0.005064
-16.655	0.005039
-16.650	0.005053
-16.645	0.005052
-16.640	0.005079
-16.635	0.005045
-16.630	0.005038
-16.625	0.005031
-16.620	0.005032
-16.615	0.005004
-16.610	0.005032
-16.605	0.005024
-16.600	0.005004
-16.595	0.005011
-16.590	0.005007
-16.585	0.004987
-16.580	0.004986
-16.575	0.004983
-16.570	0.004997
-16.565	0.004976
-16.560	0.004990
-16.555	0.004962
-16.550	0.004949
-16.545	0.004948
-16.540	0.004948
-16.535	0.004934
-16.530	0.004983
-16.525	0.004943
-16.520	0.004965
-16.515	0.004944
-16.510	0.004949
-16.505	0.004935
-16.500	0.004964
-16.495	0.004943
-16.490	0.004929
-16.485	0.004942
-16.480	0.004935
-16.475	0.004913
-16.470	0.004919
-16.465	0.004877
-16.460	0.004898
-16.455	0.004873
-16.450	0.004900
-16.445	0.004891
-16.440	0.004912
-16.435	0.004932
-16.430	0.004925
-16.425	0.004883
-16.420	0.004882
-16.415	0.004868
-16.410	0.004888
-16.405	0.004868
-16.400	0.004881
-16.395	0.004867
-16.390	0.004870
-16.385	0.004890
-16.380	0.004868
-16.375	0.004825
-16.370	0.004867
-16.365	0.004867
-16.360	0.004868
-16.355	0.004826
-16.350	0.004880
-16.345	0.004818
-16.340	0.004810
-16.335	0.004837
-16.330	0.004789
-16.325	0.004810
-16.320	0.004806
-16.315	0.004804
-16.310	0.004837
-16.305	0.004837
-16.300	0.004797
-16.295	0.004810
-16.290	0.004818
-16.285	0.004796
-16.280	0.004775
-16.275	0.004788
-16.270	0.004767
-16.265	0.004768
-16.260	0.004734
-16.255	0.004749
-16.250	0.004763
-16.245	0.004782
-16.240	0.004769
-16.235	0.004770
-16.230	0.004744
-16.225	0.004779
-16.220	0.004786
-16.215	0.004744
-16.210	0.004723
-16.205	0.004750
-16.200	0.004730
-16.195	0.004722
-16.190	0.004712
-16.185	0.004691
-16.180	0.004746
-16.175	0.004718
-16.170	0.004739
-16.165	0.004739
-16.160	0.004734
-16.155	0.004713
-16.150	0.004706
-16.145	0.004706
-16.140	0.004693
-16.135	0.004714
-16.130	0.004708
-16.125	0.004669
-16.120	0.004684
-16.115	0.004676
-16.110	0.004682
-16.105	0.004683
-16.100	0.004692
-16.095	0.004679
-16.090	0.004699
-16.085	0.004664
-16.080	0.004657
-16.075	0.004657
-16.070	0.004664
-16.065	0.004656
-16.060	0.004630
-16.055	0.004645
-16.050	0.004665
-16.045	0.004690
-16.040	0.004641
-16.035	0.004641
-16.030	0.004635
-16.025	0.004649
-16.020	0.004606
-16.015	0.004641
-16.010	0.004634
-16.005	0.004627
-16.000	0.004613
-15.995	0.004606
-15.990	0.004588
-15.985	0.004607
-15.980	0.004612
-15.975	0.004604
-15.970	0.004611
-15.965	0.004611
-15.960	0.004618
-15.955	0.004625
-15.950	0.004589
-15.945	0.004609
-15.940	0.004581
-15.935	0.004560
-15.930	0.004552
-15.925	0.004573
-15.920	0.004539
-15.915	0.004539
-15.910	0.004585
-15.905	0.004571
-15.900	0.004584
-15.895	0.004529
-15.890	0.004542
-15.885	0.004541
-15.880	0.004562
-15.875	0.004520
-15.870	0.004533
-15.865	0.004498
-15.860	0.004519
-15.855	0.004507
-15.850	0.004505
-15.845	0.004524
-15.840	0.004545
-15.835	0.004538
-15.830	0.004497
-15.825	0.004495
-15.820	0.004509
-15.815	0.004482
-15.810	0.004473
-15.805	0.004459
-15.800	0.004473
-15.795	0.004431
-15.790	0.004496
-15.785	0.004455
-15.780	0.004467
-15.775	0.004466
-15.770	0.004486
-15.765	0.004493
-15.760	0.004459
-15.755	0.004452
-15.750	0.004445
-15.745	0.004431
-15.740	0.004430
-15.735	0.004409
-15.730	0.004451
-15.725	0.004433
-15.720	0.004454
-15.715	0.004391
-15.710	0.004458
-15.705	0.004418
-15.700	0.004418
-15.695	0.004391
-15.690	0.004412
-15.685	0.004412
-15.680	0.004385
-15.675	0.004405
-15.670	0.004384
-15.665	0.004384
-15.660	0.004399
-15.655	0.004380
-15.650	0.004359
-15.645	0.004371
-15.640	0.004364
-15.635	0.004378
-15.630	0.004385
-15.625	0.004351
-15.620	0.004358
-15.615	0.004371
-15.610	0.004385
-15.605	0.004357
-15.600	0.004338
-15.595	0.004338
-15.590	0.004340
-15.585	0.004353
-15.580	0.004345
-15.575	0.004331
-15.570	0.004366
-15.565	0.004338
-15.560	0.004345
-15.555	0.004318
-15.550	0.004338
-15.545	0.004310
-15.540	0.004338
-15.535	0.004289
-15.530	0.004288
-15.525	0.004270
-15.520	0.004285
-15.515	0.004304
-15.510	0.004303
-15.505	0.004310
-15.500	0.004276
-15.495	0.004296
-15.490	0.004297
-15.485	0.004311
-15.480	0.004269
-15.475	0.004249
-15.470	0.004263
-15.465	0.004290
-15.460	0.004270
-15.455	0.004257
-15.450	0.004276
-15.445	0.004282
-15.440	0.004255
-15.435	0.004261
-15.430	0.004275
-15.425	0.004262
-15.420	0.004269
-15.415	0.004220
-15.410	0.004234
-15.405	0.004220
-15.400	0.004205
-15.395	0.004233
-15.390	0.004215
-15.385	0.004221
-15.380	0.004220
-15.375	0.004232
-15.370	0.004218
-15.365	0.004231
-15.360	0.004210
-15.355	0.004204
-15.350	0.004211
-15.345	0.004183
-15.340	0.004183
-15.335	0.004169
-15.330	0.004218
-15.325	0.004171
-15.320	0.004179
-15.315	0.004191
-15.310	0.004169
-15.305	0.004184
-15.300	0.004177
-15.295	0.004157
-15.290	0.004191
-15.285	0.004136
-15.280	0.004136
-15.275	0.004129
-15.270	0.004123
-15.265	0.004143
-15.260	0.004152
-15.255	0.004119
-15.250	0.004112
-15.245	0.004118
-15.240	0.004159
-15.235	0.004152
-15.230	0.004132
-15.225	0.004125
-15.220	0.004132
-15.215	0.004125
-15.210	0.004098
-15.205	0.004092
-15.200	0.004107
-15.195	0.004080
-15.190	0.004070
-15.185	0.004112
-15.180	0.004063
-15.175	0.004098
-15.170	0.004113
-15.165	0.004107
-15.160	0.004074
-15.155	0.004075
-15.150	0.004089
-15.145	0.004098
-15.140	0.004078
-15.135	0.004085
-15.130	0.004058
-15.125	0.004060
-15.120	0.004083
-15.115	0.004067
-15.110	0.004073
-15.105	0.004080
-15.100	0.004060
-15.095	0.004073
-15.090	0.004053
-15.085	0.004059
-15.080	0.004038
-15.075	0.004009
-15.070	0.004030
-15.065	0.004030
-15.060	0.004039
-15.055	0.004054
-15.050	0.004032
-15.045	0.004052
-15.040	0.004060
-15.035	0.004053
-15.030	0.004073
-15.025	0.004073
-15.020	0.004066
-15.015	0.004038
-15.010	0.004031
-15.005	0.004016
-15.000	0.004015
-14.995	0.004050
-14.990	0.004030
-14.985	0.004036
-14.980	0.004048
-14.975	0.004073
-14.970	0.004031
-14.965	0.004038
-14.960	0.004037
-14.955	0.004022
-14.950	0.004021
-14.945	0.003985
-14.940	0.004019
-14.935	0.003984
-14.930	0.003978
-14.925	0.004006
-14.920	0.003978
-14.915	0.004012
-14.910	0.004017
-14.905	0.003995
-14.900	0.003996
-14.895	0.004002
-14.890	0.003988
-14.885	0.003987
-14.880	0.003973
-14.875	0.003924
-14.870	0.003965
-14.865	0.003957
-14.860	0.003958
-14.855	0.003952
-14.850	0.003958
-14.845	0.003921
-14.840	0.003969
-14.835	0.003962
-14.830	0.003962
-14.825	0.003934
-14.820	0.003954
-14.815	0.003892
-14.810	0.003919
-14.805	0.003891
-14.800	0.003912
-14.795	0.003913
-14.790	0.003894
-14.785	0.003900
-14.780	0.003899
-14.775	0.003905
-14.770	0.003912
-14.765	0.003912
-14.760	0.003899
-14.755	0.003899
-14.750	0.003886
-14.745	0.003878
-14.740	0.003878
-14.735	0.003858
-14.730	0.003872
-14.725	0.003860
-14.720	0.003888
-14.715	0.003873
-14.710	0.003900
-14.705	0.003893
-14.700	0.003893
-14.695	0.003865
-14.690	0.003872
-14.685	0.003872
-14.680	0.003865
-14.675	0.003852
-14.670	0.003867
-14.665	0.003859
-14.660	0.003826
-14.655	0.003847
-14.650	0.003791
-14.645	0.003824
-14.640	0.003832
-14.635	0.003839
-14.630	0.003833
-14.625	0.003825
-14.620	0.003846
-14.615	0.003818
-14.610	0.003817
-14.605	0.003830
-14.600	0.003803
-14.595	0.003817
-14.590	0.003818
-14.585	0.003818
-14.580	0.003789
-14.575	0.003836
-14.570	0.003815
-14.565	0.003808
-14.560	0.003801
-14.555	0.003829
-14.550	0.003787
-14.545	0.003779
-14.540	0.003772
-14.535	0.003772
-14.530	0.003778
-14.525	0.003787
-14.520	0.003801
-14.515	0.003773
-14.510	0.003792
-14.505	0.003772
-14.500	0.003786
-14.495	0.003765
-14.490	0.003799
-14.485	0.003737
-14.480	0.003730
-14.475	0.003757
-14.470	0.003743
-14.465	0.003735
-14.460	0.003723
-14.455	0.003744
-14.450	0.003771
-14.445	0.003748
-14.440	0.003721
-14.435	0.003721
-14.430	0.003747
-14.425	0.003719
-14.420	0.003740
-14.415	0.003732
-14.410	0.003725
-14.405	0.003725
-14.400	0.003677
-14.395	0.003718
-14.390	0.003692
-14.385	0.003705
-14.380	0.003711
-14.375	0.003684
-14.370	0.003697
-14.365	0.003732
-14.360	0.003705
-14.355	0.003725
-14.350	0.003690
-14.345	0.003690
-14.340	0.003663
-14.335	0.003675
-14.330	0.003697
-14.325	0.003698
-14.320	0.003671
-14.315	0.003677
-14.310	0.003682
-14.305	0.003648
-14.300	0.003689
-14.295	0.003675
-14.290	0.003689
-14.285	0.003655
-14.280	0.003668
-14.275	0.003668
-14.270	0.003633
-14.265	0.003627
-14.260	0.003608
-14.255	0.003643
-14.250	0.003649
-14.245	0.003606
-14.240	0.003668
-14.235	0.003620
-14.230	0.003620
-14.225	0.003669
-14.220	0.003648
-14.215	0.003600
-14.210	0.003600
-14.205	0.003620
-14.200	0.003627
-14.195	0.003613
-14.190	0.003628
-14.185	0.003614
-14.180	0.003613
-14.175	0.003633
-14.170	0.003613
-14.165	0.003619
-14.160	0.003626
-14.155	0.003612
-14.150	0.003598
-14.145	0.003571
-14.140	0.003591
-14.135	0.003577
-14.130	0.003585
-14.125	0.003600
-14.120	0.003600
-14.115	0.003564
-14.110	0.003550
-14.105	0.003577
-14.100	0.003571
-14.095	0.003585
-14.090	0.003570
-14.085	0.003570
-14.080	0.003557
-14.075	0.003535
-14.070	0.003542
-14.065	0.003522
-14.060	0.003557
-14.055	0.003538
-14.050	0.003544
-14.045	0.003556
-14.040	0.003536
-14.035	0.003556
-14.030	0.003528
-14.025	0.003527
-14.020	0.003555
-14.015	0.003534
-14.010	0.003506
-14.005	0.003506
-14.000	0.003534
-13.995	0.003500
-13.990	0.003488
-13.985	0.003515
-13.980	0.003521
-13.975	0.003534
-13.970	0.003521
-13.965	0.003493
-13.960	0.003501
-13.955	0.003486
-13.950	0.003521
-13.945	0.003465
-13.940	0.003507
-13.935	0.003472
-13.930	0.003445
-13.925	0.003468
-13.920	0.003488
-13.915	0.003473
-13.910	0.003479
-13.905	0.003499
-13.900	0.003479
-13.895	0.003486
-13.890	0.003465
-13.885	0.003479
-13.880	0.003418
-13.875	0.003444
-13.870	0.003438
-13.865	0.003438
-13.860	0.003453
-13.855	0.003460
-13.850	0.003473
-13.845	0.003444
-13.840	0.003437
-13.835	0.003465
-13.830	0.003451
-13.825	0.003472
-13.820	0.003464
-13.815	0.003437
-13.810	0.003423
-13.805	0.003443
-13.800	0.003443
-13.795	0.003382
-13.790	0.003417
-13.785	0.003437
-13.780	0.003436
-13.775	0.003408
-13.770	0.003456
-13.765	0.003456
-13.760	0.003435
-13.755	0.003414
-13.750	0.003428
-13.745	0.003400
-13.740	0.003427
-13.735	0.003393
-13.730	0.003394
-13.725	0.003388
-13.720	0.003422
-13.715	0.003399
-13.710	0.003379
-13.705	0.003399
-13.700	0.003386
-13.695	0.003407
-13.690	0.003414
-13.685	0.003386
-13.680	0.003406
-13.675	0.003371
-13.670	0.003391
-13.665	0.003378
-13.660	0.003359
-13.655	0.003387
-13.650	0.003393
-13.645	0.003364
-13.640	0.003378
-13.635	0.003371
-13.630	0.003364
-13.625	0.003371
-13.620	0.003372
-13.615	0.003358
-13.610	0.003336
-13.605	0.003344
-13.600	0.003330
-13.595	0.003345
-13.590	0.003326
-13.585	0.003339
-13.580	0.003359
-13.575	0.003324
-13.570	0.003345
-13.565	0.003332
-13.560	0.003339
-13.555	0.003325
-13.550	0.003298
-13.545	0.003325
-13.540	0.003325
-13.535	0.003346
-13.530	0.003312
-13.525	0.003293
-13.520	0.003308
-13.515	0.003334
-13.510	0.003313
-13.505	0.003293
-13.500	0.003313
-13.495	0.003307
-13.490	0.003300
-13.485	0.003300
-13.480	0.003300
-13.475	0.003280
-13.470	0.003260
-13.465	0.003315
-13.460	0.003290
-13.455	0.003284
-13.450	0.003276
-13.445	0.003303
-13.440	0.003297
-13.435	0.003284
-13.430	0.003284
-13.425	0.003270
-13.420	0.003299
-13.415	0.003285
-13.410	0.003251
-13.405	0.003271
-13.400	0.003236
-13.395	0.003251
-13.390	0.003259
-13.385	0.003251
-13.380	0.003299
-13.375	0.003250
-13.370	0.003264
-13.365	0.003284
-13.360	0.003263
-13.355	0.003242
-13.350	0.003229
-13.345	0.003228
-13.340	0.003270
-13.335	0.003249
-13.330	0.003291
-13.325	0.003231
-13.320	0.003251
-13.315	0.003242
-13.310	0.003283
-13.305	0.003228
-13.300	0.003249
-13.295	0.003249
-13.290	0.003228
-13.285	0.003255
-13.280	0.003249
-13.275	0.003206
-13.270	0.003227
-13.265	0.003226
-13.260	0.003228
-13.255	0.003221
-13.250	0.003228
-13.245	0.003240
-13.240	0.003233
-13.235	0.003240
-13.230	0.003240
-13.225	0.003212
-13.220	0.003211
-13.215	0.003190
-13.210	0.003204
-13.205	0.003197
-13.200	0.003176
-13.195	0.003191
-13.190	0.003206
-13.185	0.003184
-13.180	0.003169
-13.175	0.003203
-13.170	0.003189
-13.165	0.003196
-13.160	0.003225
-13.155	0.003175
-13.150	0.003175
-13.145	0.003175
-13.140	0.003161
-13.135	0.003174
-13.130	0.003189
-13.125	0.003156
-13.120	0.003190
-13.115	0.003168
-13.110	0.003139
-13.105	0.003146
-13.100	0.003147
-13.095	0.003126
-13.090	0.003167
-13.085	0.003147
-13.080	0.003133
-13.075	0.003147
-13.070	0.003161
-13.065	0.003120
-13.060	0.003156
-13.055	0.003122
-13.050	0.003135
-13.045	0.003126
-13.040	0.003114
-13.035	0.003127
-13.030	0.003142
-13.025	0.003115
-13.020	0.003101
-13.015	0.003128
-13.010	0.003100
-13.005	0.003086
-13.000	0.003107
-12.995	0.003102
-12.990	0.003131
-12.985	0.003117
-12.980	0.003122
-12.975	0.003115
-12.970	0.003088
-12.965	0.003108
-12.960	0.003082
-12.955	0.003088
-12.950	0.003115
-12.945	0.003073
-12.940	0.003081
-12.935	0.003074
-12.930	0.003054
-12.925	0.003069
-12.920	0.003075
-12.915	0.003074
-12.910	0.003039
-12.905	0.003074
-12.900	0.003096
-12.895	0.003068
-12.890	0.003068
-12.885	0.003074
-12.880	0.003047
-12.875	0.003054
-12.870	0.003047
-12.865	0.003019
-12.860	0.003042
-12.855	0.003014
-12.850	0.003040
-12.845	0.003045
-12.840	0.003031
-12.835	0.003045
-12.830	0.003038
-12.825	0.003038
-12.820	0.003017
-12.815	0.003037
-12.810	0.003051
-12.805	0.003016
-12.800	0.003002
-12.795	0.002996
-12.790	0.003017
-12.785	0.003022
-12.780	0.003014
-12.775	0.003021
-12.770	0.003015
-12.765	0.003028
-12.760	0.003022
-12.755	0.003027
-12.750	0.003013
-12.745	0.003020
-12.740	0.002985
-12.735	0.002985
-12.730	0.003007
-12.725	0.002953
-12.720	0.003008
-12.715	0.003000
-12.710	0.002992
-12.705	0.002993
-12.700	0.003000
-12.695	0.003006
-12.690	0.002986
-12.685	0.003019
-12.680	0.002977
-12.675	0.002991
-12.670	0.002985
-12.665	0.002971
-12.660	0.002972
-12.655	0.002944
-12.650	0.002957
-12.645	0.002949
-12.640	0.002977
-12.635	0.002963
-12.630	0.002956
-12.625	0.002977
-12.620	0.002963
-12.615	0.002956
-12.610	0.002984
-12.605	0.002949
-12.600	0.002942
-12.595	0.002944
-12.590	0.002972
-12.585	0.002971
-12.580	0.002955
-12.575	0.002955
-12.570	0.002976
-12.565	0.002970
-12.560	0.002962
-12.555	0.002948
-12.550	0.002942
-12.545	0.002941
-12.540	0.002935
-12.535	0.002928
-12.530	0.002949
-12.525	0.002929
-12.520	0.002929
-12.515	0.002941
-12.510	0.002934
-12.505	0.002962
-12.500	0.002935
-12.495	0.002893
-12.490	0.002914
-12.485	0.002935
-12.480	0.002900
-12.475	0.002955
-12.470	0.002921
-12.465	0.002879
-12.460	0.002922
-12.455	0.002902
-12.450	0.002873
-12.445	0.002879
-12.440	0.002913
-12.435	0.002913
-12.430	0.002892
-12.425	0.002927
-12.420	0.002885
-12.415	0.002905
-12.410	0.002891
-12.405	0.002905
-12.400	0.002871
-12.395	0.002899
-12.390	0.002880
-12.385	0.002893
-12.380	0.002884
-12.375	0.002899
-12.370	0.002885
-12.365	0.002878
-12.360	0.002912
-12.355	0.002858
-12.350	0.002878
-12.345	0.002912
-12.340	0.002830
-12.335	0.002863
-12.330	0.002823
-12.325	0.002865
-12.320	0.002824
-12.315	0.002863
-12.310	0.002863
-12.305	0.002870
-12.300	0.002856
-12.295	0.002855
-12.290	0.002863
-12.285	0.002862
-12.280	0.002862
-12.275	0.002841
-12.270	0.002821
-12.265	0.002827
-12.260	0.002823
-12.255	0.002829
-12.250	0.002835
-12.245	0.002841
-12.240	0.002821
-12.235	0.002835
-12.230	0.002835
-12.225	0.002835
-12.220	0.002807
-12.215	0.002834
-12.210	0.002793
-12.205	0.002827
-12.200	0.002799
-12.195	0.002786
-12.190	0.002794
-12.185	0.002835
-12.180	0.002819
-12.175	0.002805
-12.170	0.002812
-12.165	0.002819
-12.160	0.002791
-12.155	0.002798
-12.150	0.002811
-12.145	0.002804
-12.140	0.002790
-12.135	0.002777
-12.130	0.002798
-12.125	0.002792
-12.120	0.002778
-12.115	0.002804
-12.110	0.002811
-12.105	0.002797
-12.100	0.002783
-12.095	0.002783
-12.090	0.002769
-12.085	0.002762
-12.080	0.002776
-12.075	0.002761
-12.070	0.002782
-12.065	0.002754
-12.060	0.002770
-12.055	0.002763
-12.050	0.002748
-12.045	0.002761
-12.040	0.002781
-12.035	0.002726
-12.030	0.002753
-12.025	0.002753
-12.020	0.002753
-12.015	0.002732
-12.010	0.002732
-12.005	0.002719
-12.000	0.002725
-11.995	0.002740
-11.990	0.002741
-11.985	0.002746
-11.980	0.002739
-11.975	0.002732
-11.970	0.002753
-11.965	0.002740
-11.960	0.002746
-11.955	0.002718
-11.950	0.002725
-11.945	0.002711
-11.940	0.002711
-11.935	0.002725
-11.930	0.002732
-11.925	0.002719
-11.920	0.002754
-11.915	0.002683
-11.910	0.002697
-11.905	0.002725
-11.900	0.002745
-11.895	0.002731
-11.890	0.002731
-11.885	0.002717
-11.880	0.002676
-11.875	0.002716
-11.870	0.002696
-11.865	0.002703
-11.860	0.002711
-11.855	0.002704
-11.850	0.002696
-11.845	0.002703
-11.840	0.002703
-11.835	0.002683
-11.830	0.002731
-11.825	0.002669
-11.820	0.002676
-11.815	0.002662
-11.810	0.002655
-11.805	0.002689
-11.800	0.002703
-11.795	0.002663
-11.790	0.002698
-11.785	0.002697
-11.780	0.002682
-11.775	0.002662
-11.770	0.002682
-11.765	0.002662
-11.760	0.002703
-11.755	0.002675
-11.750	0.002675
-11.745	0.002682
-11.740	0.002675
-11.735	0.002648
-11.730	0.002649
-11.725	0.002636
-11.720	0.002643
-11.715	0.002662
-11.710	0.002662
-11.705	0.002669
-11.700	0.002663
-11.695	0.002656
-11.690	0.002670
-11.685	0.002663
-11.680	0.002608
-11.675	0.002628
-11.670	0.002635
-11.665	0.002607
-11.660	0.002602
-11.655	0.002623
-11.650	0.002629
-11.645	0.002634
-11.640	0.002628
-11.635	0.002614
-11.630	0.002649
-11.625	0.002649
-11.620	0.002635
-11.615	0.002614
-11.610	0.002607
-11.605	0.002628
-11.600	0.002587
-11.595	0.002602
-11.590	0.002602
-11.585	0.002601
-11.580	0.002601
-11.575	0.002601
-11.570	0.002615
-11.565	0.002621
-11.560	0.002594
-11.555	0.002587
-11.550	0.002608
-11.545	0.002587
-11.540	0.002615
-11.535	0.002608
-11.530	0.002595
-11.525	0.002596
-11.520	0.002603
-11.515	0.002608
-11.510	0.002615
-11.505	0.002588
-11.500	0.002602
-11.495	0.002609
-11.490	0.002588
-11.485	0.002601
-11.480	0.002567
-11.475	0.002580
-11.470	0.002567
-11.465	0.002580
-11.460	0.002568
-11.455	0.002568
-11.450	0.002553
-11.445	0.002581
-11.440	0.002588
-11.435	0.002609
-11.430	0.002575
-11.425	0.002526
-11.420	0.002553
-11.415	0.002533
-11.410	0.002546
-11.405	0.002546
-11.400	0.002573
-11.395	0.002561
-11.390	0.002548
-11.385	0.002554
-11.380	0.002546
-11.375	0.002539
-11.370	0.002566
-11.365	0.002566
-11.360	0.002539
-11.355	0.002538
-11.350	0.002545
-11.345	0.002559
-11.340	0.002552
-11.335	0.002552
-11.330	0.002505
-11.325	0.002519
-11.320	0.002560
-11.315	0.002538
-11.310	0.002539
-11.305	0.002546
-11.300	0.002545
-11.295	0.002553
-11.290	0.002539
-11.285	0.002511
-11.280	0.002532
-11.275	0.002545
-11.270	0.002490
-11.265	0.002504
-11.260	0.002519
-11.255	0.002513
-11.250	0.002505
-11.245	0.002483
-11.240	0.002518
-11.235	0.002518
-11.230	0.002497
-11.225	0.002517
-11.220	0.002531
-11.215	0.002489
-11.210	0.002490
-11.205	0.002531
-11.200	0.002483
-11.195	0.002491
-11.190	0.002484
-11.185	0.002490
-11.180	0.002489
-11.175	0.002490
-11.170	0.002511
-11.165	0.002469
-11.160	0.002490
-11.155	0.002463
-11.150	0.002497
-11.145	0.002483
-11.140	0.002456
-11.135	0.002476
-11.130	0.002476
-11.125	0.002477
-11.120	0.002456
-11.115	0.002469
-11.110	0.002483
-11.105	0.002470
-11.100	0.002448
-11.095	0.002503
-11.090	0.002461
-11.085	0.002468
-11.080	0.002462
-11.075	0.002448
-11.070	0.002441
-11.065	0.002456
-11.060	0.002436
-11.055	0.002456
-11.050	0.002455
-11.045	0.002454
-11.040	0.002448
-11.035	0.002441
-11.030	0.002462
-11.025	0.002455
-11.020	0.002475
-11.015	0.002455
-11.010	0.002469
-11.005	0.002434
-11.000	0.002440
-10.995	0.002428
-10.990	0.002456
-10.985	0.002434
-10.980	0.002427
-10.975	0.002433
-10.970	0.002427
-10.965	0.002426
-10.960	0.002427
-10.955	0.002419
-10.950	0.002391
-10.945	0.002426
-10.940	0.002405
-10.935	0.002419
-10.930	0.002427
-10.925	0.002385
-10.920	0.002392
-10.915	0.002418
-10.910	0.002404
-10.905	0.002411
-10.900	0.002405
-10.895	0.002398
-10.890	0.002376
-10.885	0.002369
-10.880	0.002362
-10.875	0.002383
-10.870	0.002390
-10.865	0.002376
-10.860	0.002405
-10.855	0.002398
-10.850	0.002390
-10.845	0.002382
-10.840	0.002403
-10.835	0.002396
-10.830	0.002390
-10.825	0.002396
-10.820	0.002368
-10.815	0.002381
-10.810	0.002395
-10.805	0.002375
-10.800	0.002347
-10.795	0.002383
-10.790	0.002341
-10.785	0.002367
-10.780	0.002367
-10.775	0.002374
-10.770	0.002382
-10.765	0.002388
-10.760	0.002361
-10.755	0.002374
-10.750	0.002340
-10.745	0.002367
-10.740	0.002367
-10.735	0.002374
-10.730	0.002368
-10.725	0.002342
-10.720	0.002341
-10.715	0.002346
-10.710	0.002340
-10.705	0.002353
-10.700	0.002367
-10.695	0.002346
-10.690	0.002353
-10.685	0.002359
-10.680	0.002353
-10.675	0.002360
-10.670	0.002339
-10.665	0.002361
-10.660	0.002313
-10.655	0.002327
-10.650	0.002340
-10.645	0.002367
-10.640	0.002327
-10.635	0.002326
-10.630	0.002340
-10.625	0.002319
-10.620	0.002320
-10.615	0.002333
-10.610	0.002299
-10.605	0.002312
-10.600	0.002319
-10.595	0.002327
-10.590	0.002300
-10.585	0.002292
-10.580	0.002306
-10.575	0.002347
-10.570	0.002285
-10.565	0.002320
-10.560	0.002313
-10.555	0.002320
-10.550	0.002320
-10.545	0.002306
-10.540	0.002320
-10.535	0.002286
-10.530	0.002273
-10.525	0.002301
-10.520	0.002294
-10.515	0.002306
-10.510	0.002313
-10.505	0.002300
-10.500	0.002314
-10.495	0.002300
-10.490	0.002308
-10.485	0.002307
-10.480	0.002294
-10.475	0.002300
-10.470	0.002258
-10.465	0.002293
-10.460	0.002315
-10.455	0.002294
-10.450	0.002306
-10.445	0.002272
-10.440	0.002286
-10.435	0.002299
-10.430	0.002299
-10.425	0.002265
-10.420	0.002292
-10.415	0.002264
-10.410	0.002285
-10.405	0.002278
-10.400	0.002264
-10.395	0.002272
-10.390	0.002293
-10.385	0.002258
-10.380	0.002244
-10.375	0.002265
-10.370	0.002257
-10.365	0.002257
-10.360	0.002272
-10.355	0.002258
-10.350	0.002258
-10.345	0.002279
-10.340	0.002243
-10.335	0.002244
-10.330	0.002259
-10.325	0.002238
-10.320	0.002279
-10.315	0.002264
-10.310	0.002257
-10.305	0.002263
-10.300	0.002284
-10.295	0.002249
-10.290	0.002270
-10.285	0.002256
-10.280	0.002228
-10.275	0.002201
-10.270	0.002194
-10.265	0.002256
-10.260	0.002237
-10.255	0.002216
-10.250	0.002242
-10.245	0.002221
-10.240	0.002236
-10.235	0.002229
-10.230	0.002256
-10.225	0.002187
-10.220	0.002236
-10.215	0.002221
-10.210	0.002194
-10.205	0.002201
-10.200	0.002187
-10.195	0.002230
-10.190	0.002223
-10.185	0.002201
-10.180	0.002215
-10.175	0.002207
-10.170	0.002214
-10.165	0.002200
-10.160	0.002207
-10.155	0.002207
-10.150	0.002194
-10.145	0.002193
-10.140	0.002180
-10.135	0.002186
-10.130	0.002174
-10.125	0.002215
-10.120	0.002194
-10.115	0.002214
-10.110	0.002193
-10.105	0.002173
-10.100	0.002215
-10.095	0.002200
-10.090	0.002180
-10.085	0.002166
-10.080	0.002166
-10.075	0.002179
-10.070	0.002172
-10.065	0.002173
-10.060	0.002188
-10.055	0.002180
-10.050	0.002173
-10.045	0.002158
-10.040	0.002172
-10.035	0.002186
-10.030	0.002192
-10.025	0.002185
-10.020	0.002192
-10.015	0.002123
-10.010	0.002164
-10.005	0.002130
-10.000	0.002158
-9.995	0.002166
-9.990	0.002159
-9.985	0.002144
-9.980	0.002151
-9.975	0.002158
-9.970	0.002165
-9.965	0.002165
-9.960	0.002165
-9.955	0.002158
-9.950	0.002179
-9.945	0.002171
-9.940	0.002144
-9.935	0.002137
-9.930	0.002152
-9.925	0.002132
-9.920	0.002152
-9.915	0.002144
-9.910	0.002138
-9.905	0.002165
-9.900	0.002165
-9.895	0.002137
-9.890	0.002109
-9.885	0.002116
-9.880	0.002137
-9.875	0.002116
-9.870	0.002110
-9.865	0.002145
-9.860	0.002166
-9.855	0.002117
-9.850	0.002130
-9.845	0.002110
-9.840	0.002097
-9.835	0.002103
-9.830	0.002145
-9.825	0.002138
-9.820	0.002103
-9.815	0.002117
-9.810	0.002103
-9.805	0.002130
-9.800	0.002096
-9.795	0.002097
-9.790	0.002097
-9.785	0.002096
-9.780	0.002089
-9.775	0.002123
-9.770	0.002123
-9.765	0.002123
-9.760	0.002102
-9.755	0.002088
-9.750	0.002109
-9.745	0.002095
-9.740	0.002081
-9.735	0.002068
-9.730	0.002076
-9.725	0.002048
-9.720	0.002089
-9.715	0.002081
-9.710	0.002088
-9.705	0.002068
-9.700	0.002096
-9.695	0.002068
-9.690	0.002047
-9.685	0.002095
-9.680	0.002082
-9.675	0.002068
-9.670	0.002054
-9.665	0.002062
-9.660	0.002035
-9.655	0.002075
-9.650	0.002068
-9.645	0.002075
-9.640	0.002054
-9.635	0.002082
-9.630	0.002055
-9.625	0.002034
-9.620	0.002075
-9.615	0.002068
-9.610	0.002054
-9.605	0.002054
-9.600	0.002021
-9.595	0.002021
-9.590	0.002021
-9.585	0.002000
-9.580	0.002033
-9.575	0.002020
-9.570	0.002027
-9.565	0.001986
-9.560	0.001965
-9.555	0.001951
-9.550	0.001951
-9.545	0.001944
-9.540	0.001930
-9.535	0.001828
-9.530	0.001664
-9.525	0.001353
-9.520	0.000891
-9.515	0.000141
-9.510	-0.000954
-9.505	-0.002381
-9.500	-0.004203
-9.495	-0.006559
-9.490	-0.009267
-9.485	-0.012332
-9.480	-0.015796
-9.475	-0.019413
-9.470	-0.023471
-9.465	-0.027874
-9.460	-0.032310
-9.455	-0.036750
-9.450	-0.041127
-9.445	-0.045132
-9.440	-0.048967
-9.435	-0.052158
-9.430	-0.053843
-9.425	-0.053233
-9.420	-0.050388
-9.415	-0.046397
-9.410	-0.042106
-9.405	-0.038306
-9.400	-0.035133
-9.395	-0.032605
-9.390	-0.030633
-9.385	-0.029056
-9.380	-0.027772
-9.375	-0.026632
-9.370	-0.025667
-9.365	-0.024802
-9.360	-0.024016
-9.355	-0.023315
-9.350	-0.022651
-9.345	-0.022053
-9.340	-0.021538
-9.335	-0.021030
-9.330	-0.020545
-9.325	-0.020073
-9.320	-0.019601
-9.315	-0.019203
-9.310	-0.018836
-9.305	-0.018407
-9.300	-0.018127
-9.295	-0.017785
-9.290	-0.017474
-9.285	-0.017139
-9.280	-0.016866
-9.275	-0.016606
-9.270	-0.016328
-9.265	-0.016078
-9.260	-0.015792
-9.255	-0.015553
-9.250	-0.015269
-9.245	-0.015052
-9.240	-0.014831
-9.235	-0.014639
-9.230	-0.014405
-9.225	-0.014183
-9.220	-0.014046
-9.215	-0.013831
-9.210	-0.013667
-9.205	-0.013480
-9.200	-0.013281
-9.195	-0.013138
-9.190	-0.012943
-9.185	-0.012825
-9.180	-0.012632
-9.175	-0.012510
-9.170	-0.012372
-9.165	-0.012242
-9.160	-0.012097
-9.155	-0.011938
-9.150	-0.011850
-9.145	-0.011742
-9.140	-0.011603
-9.135	-0.011522
-9.130	-0.011413
-9.125	-0.011233
-9.120	-0.011193
-9.115	-0.011045
-9.110	-0.010940
-9.105	-0.010823
-9.100	-0.010727
-9.095	-0.010610
-9.090	-0.010534
-9.085	-0.010397
-9.080	-0.010342
-9.075	-0.010253
-9.070	-0.010156
-9.065	-0.010071
-9.060	-0.009955
-9.055	-0.009877
-9.050	-0.009772
-9.045	-0.009712
-9.040	-0.009609
-9.035	-0.009554
-9.030	-0.009481
-9.025	-0.009404
-9.020	-0.009299
-9.015	-0.009285
-9.010	-0.009193
-9.005	-0.009143
-9.000	-0.009061
-8.995	-0.009019
-8.990	-0.008934
-8.985	-0.008850
-8.980	-0.008800
-8.975	-0.008745
-8.970	-0.008675
-8.965	-0.008614
-8.960	-0.008571
-8.955	-0.008515
-8.950	-0.008451
-8.945	-0.008355
-8.940	-0.008346
-8.935	-0.008269
-8.930	-0.008237
-8.925	-0.008196
-8.920	-0.008079
-8.915	-0.008064
-8.910	-0.007994
-8.905	-0.007939
-8.900	-0.007890
-8.895	-0.007820
-8.890	-0.007757
-8.885	-0.007703
-8.880	-0.007689
-8.875	-0.007615
-8.870	-0.007561
-8.865	-0.007542
-8.860	-0.007466
-8.855	-0.007410
-8.850	-0.007369
-8.845	-0.007328
-8.840	-0.007282
-8.835	-0.007249
-8.830	-0.007201
-8.825	-0.007126
-8.820	-0.007173
-8.815	-0.007110
-8.810	-0.007090
-8.805	-0.007042
-8.800	-0.007002
-8.795	-0.006991
-8.790	-0.006900
-8.785	-0.006899
-8.780	-0.006892
-8.775	-0.006790
-8.770	-0.006704
-8.765	-0.006611
-8.760	-0.006606
-8.755	-0.006679
-8.750	-0.006652
-8.745	-0.006654
-8.740	-0.006591
-8.735	-0.006557
-8.730	-0.006523
-8.725	-0.006501
-8.720	-0.006450
-8.715	-0.006393
-8.710	-0.006358
-8.705	-0.006338
-8.700	-0.006283
-8.695	-0.006262
-8.690	-0.006268
-8.685	-0.006219
-8.680	-0.006143
-8.675	-0.006095
-8.670	-0.006083
-8.665	-0.006083
-8.660	-0.006027
-8.655	-0.006032
-8.650	-0.005955
-8.645	-0.005942
-8.640	-0.005927
-8.635	-0.005878
-8.630	-0.005843
-8.625	-0.005822
-8.620	-0.005808
-8.615	-0.005794
-8.610	-0.005759
-8.605	-0.005731
-8.600	-0.005684
-8.595	-0.005685
-8.590	-0.005601
-8.585	-0.005620
-8.580	-0.005552
-8.575	-0.005566
-8.570	-0.005518
-8.565	-0.005491
-8.560	-0.005483
-8.555	-0.005456
-8.550	-0.005401
-8.545	-0.005387
-8.540	-0.005386
-8.535	-0.005346
-8.530	-0.005340
-8.525	-0.005271
-8.520	-0.005235
-8.515	-0.005228
-8.510	-0.005241
-8.505	-0.005206
-8.500	-0.005179
-8.495	-0.005152
-8.490	-0.005131
-8.485	-0.005124
-8.480	-0.005083
-8.475	-0.005083
-8.470	-0.005055
-8.465	-0.005050
-8.460	-0.005043
-8.455	-0.004994
-8.450	-0.004993
-8.445	-0.004917
-8.440	-0.004931
-8.435	-0.004925
-8.430	-0.004876
-8.425	-0.004877
-8.420	-0.004891
-8.415	-0.004848
-8.410	-0.004814
-8.405	-0.004835
-8.400	-0.004767
-8.395	-0.004747
-8.390	-0.004732
-8.385	-0.004731
-8.380	-0.004718
-8.375	-0.004663
-8.370	-0.004649
-8.365	-0.004656
-8.360	-0.004621
-8.355	-0.004600
-8.350	-0.004600
-8.345	-0.004594
-8.340	-0.004573
-8.335	-0.004512
-8.330	-0.004520
-8.325	-0.004506
-8.320	-0.004498
-8.315	-0.004450
-8.310	-0.004430
-8.305	-0.004465
-8.300	-0.004417
-8.295	-0.004397
-8.290	-0.004376
-8.285	-0.004389
-8.280	-0.004368
-8.275	-0.004326
-8.270	-0.004326
-8.265	-0.004307
-8.260	-0.004307
-8.255	-0.004279
-8.250	-0.004230
-8.245	-0.004237
-8.240	-0.004202
-8.235	-0.004223
-8.230	-0.004182
-8.225	-0.004154
-8.220	-0.004175
-8.215	-0.004134
-8.210	-0.004127
-8.205	-0.004120
-8.200	-0.004128
-8.195	-0.004101
-8.190	-0.004066
-8.185	-0.004059
-8.180	-0.004025
-8.175	-0.004018
-8.170	-0.003984
-8.165	-0.003956
-8.160	-0.003991
-8.155	-0.003956
-8.150	-0.003956
-8.145	-0.003963
-8.140	-0.003928
-8.135	-0.003929
-8.130	-0.003929
-8.125	-0.003881
-8.120	-0.003873
-8.115	-0.003832
-8.110	-0.003825
-8.105	-0.003804
-8.100	-0.003818
-8.095	-0.003770
-8.090	-0.003770
-8.085	-0.003770
-8.080	-0.003797
-8.075	-0.003757
-8.070	-0.003743
-8.065	-0.003737
-8.060	-0.003689
-8.055	-0.003674
-8.050	-0.003701
-8.045	-0.003668
-8.040	-0.003667
-8.035	-0.003661
-8.030	-0.003661
-8.025	-0.003647
-8.020	-0.003626
-8.015	-0.003612
-8.010	-0.003626
-8.005	-0.003578
-8.000	-0.003606
-7.995	-0.003613
-7.990	-0.003565
-7.985	-0.003571
-7.980	-0.003551
-7.975	-0.003530
-7.970	-0.003516
-7.965	-0.003523
-7.960	-0.003509
-7.955	-0.003544
-7.950	-0.003482
-7.945	-0.003489
-7.940	-0.003475
-7.935	-0.003435
-7.930	-0.003428
-7.925	-0.003435
-7.920	-0.003413
-7.915	-0.003406
-7.910	-0.003379
-7.905	-0.003386
-7.900	-0.003379
-7.895	-0.003393
-7.890	-0.003359
-7.885	-0.003365
-7.880	-0.003359
-7.875	-0.003366
-7.870	-0.003324
-7.865	-0.003339
-7.860	-0.003284
-7.855	-0.003318
-7.850	-0.003283
-7.845	-0.003269
-7.840	-0.003269
-7.835	-0.003269
-7.830	-0.003214
-7.825	-0.003221
-7.820	-0.003228
-7.815	-0.003228
-7.810	-0.003214
-7.805	-0.003214
-7.800	-0.003201
-7.795	-0.003201
-7.790	-0.003201
-7.785	-0.003180
-7.780	-0.003160
-7.775	-0.003146
-7.770	-0.003181
-7.765	-0.003125
-7.760	-0.003125
-7.755	-0.003125
-7.750	-0.003125
-7.745	-0.003125
-7.740	-0.003112
-7.735	-0.003098
-7.730	-0.003119
-7.725	-0.003078
-7.720	-0.003043
-7.715	-0.003043
-7.710	-0.003057
-7.705	-0.003050
-7.700	-0.002995
-7.695	-0.003036
-7.690	-0.003015
-7.685	-0.003015
-7.680	-0.003009
-7.675	-0.002995
-7.670	-0.003023
-7.665	-0.003003
-7.660	-0.003002
-7.655	-0.002995
-7.650	-0.002940
-7.645	-0.002974
-7.640	-0.002975
-7.635	-0.002940
-7.630	-0.002968
-7.625	-0.002926
-7.620	-0.002954
-7.615	-0.002933
-7.610	-0.002933
-7.605	-0.002926
-7.600	-0.002920
-7.595	-0.002886
-7.590	-0.002872
-7.585	-0.002844
-7.580	-0.002851
-7.575	-0.002844
-7.570	-0.002851
-7.565	-0.002817
-7.560	-0.002823
-7.555	-0.002782
-7.550	-0.002796
-7.545	-0.002775
-7.540	-0.002775
-7.535	-0.002755
-7.530	-0.002742
-7.525	-0.002735
-7.520	-0.002700
-7.515	-0.002721
-7.510	-0.002673
-7.505	-0.002700
-7.500	-0.002687
-7.495	-0.002708
-7.490	-0.002666
-7.485	-0.002693
-7.480	-0.002700
-7.475	-0.002666
-7.470	-0.002673
-7.465	-0.002673
-7.460	-0.002638
-7.455	-0.002652
-7.450	-0.002652
-7.445	-0.002638
-7.440	-0.002645
-7.435	-0.002631
-7.430	-0.002617
-7.425	-0.002610
-7.420	-0.002617
-7.415	-0.002638
-7.410	-0.002604
-7.405	-0.002618
-7.400	-0.002611
-7.395	-0.002583
-7.390	-0.002583
-7.385	-0.002590
-7.380	-0.002590
-7.375	-0.002542
-7.370	-0.002569
-7.365	-0.002556
-7.360	-0.002556
-7.355	-0.002576
-7.350	-0.002556
-7.345	-0.002542
-7.340	-0.002528
-7.335	-0.002542
-7.330	-0.002536
-7.325	-0.002529
-7.320	-0.002542
-7.315	-0.002528
-7.310	-0.002515
-7.305	-0.002508
-7.300	-0.002515
-7.295	-0.002514
-7.290	-0.002521
-7.285	-0.002508
-7.280	-0.002508
-7.275	-0.002473
-7.270	-0.002515
-7.265	-0.002467
-7.260	-0.002473
-7.255	-0.002453
-7.250	-0.002425
-7.245	-0.002425
-7.240	-0.002398
-7.235	-0.002391
-7.230	-0.002418
-7.225	-0.002391
-7.220	-0.002370
-7.215	-0.002370
-7.210	-0.002377
-7.205	-0.002350
-7.200	-0.002323
-7.195	-0.002330
-7.190	-0.002337
-7.185	-0.002288
-7.180	-0.002330
-7.175	-0.002336
-7.170	-0.002295
-7.165	-0.002288
-7.160	-0.002281
-7.155	-0.002274
-7.150	-0.002302
-7.145	-0.002281
-7.140	-0.002288
-7.135	-0.002274
-7.130	-0.002302
-7.125	-0.002274
-7.120	-0.002246
-7.115	-0.002240
-7.110	-0.002260
-7.105	-0.002247
-7.100	-0.002226
-7.095	-0.002212
-7.090	-0.002233
-7.085	-0.002212
-7.080	-0.002233
-7.075	-0.002233
-7.070	-0.002226
-7.065	-0.002213
-7.060	-0.002206
-7.055	-0.002192
-7.050	-0.002212
-7.045	-0.002171
-7.040	-0.002157
-7.035	-0.002185
-7.030	-0.002178
-7.025	-0.002178
-7.020	-0.002151
-7.015	-0.002171
-7.010	-0.002178
-7.005	-0.002171
-7.000	-0.002185
-6.995	-0.002137
-6.990	-0.002124
-6.985	-0.002117
-6.980	-0.002124
-6.975	-0.002131
-6.970	-0.002124
-6.965	-0.002144
-6.960	-0.002103
-6.955	-0.002131
-6.950	-0.002103
-6.945	-0.002089
-6.940	-0.002117
-6.935	-0.002103
-6.930	-0.002103
-6.925	-0.002096
-6.920	-0.002110
-6.915	-0.002110
-6.910	-0.002076
-6.905	-0.002096
-6.900	-0.002089
-6.895	-0.002069
-6.890	-0.002103
-6.885	-0.002083
-6.880	-0.002069
-6.875	-0.002083
-6.870	-0.002062
-6.865	-0.002069
-6.860	-0.002069
-6.855	-0.002055
-6.850	-0.002049
-6.845	-0.002090
-6.840	-0.002042
-6.835	-0.002076
-6.830	-0.002056
-6.825	-0.002069
-6.820	-0.002104
-6.815	-0.002090
-6.810	-0.002097
-6.805	-0.002125
-6.800	-0.002119
-6.795	-0.002119
-6.790	-0.002084
-6.785	-0.002112
-6.780	-0.002126
-6.775	-0.002106
-6.770	-0.002099
-6.765	-0.002106
-6.760	-0.002079
-6.755	-0.002086
-6.750	-0.002100
-6.745	-0.002087
-6.740	-0.002046
-6.735	-0.002060
-6.730	-0.002040
-6.725	-0.002032
-6.720	-0.002046
-6.715	-0.002004
-6.710	-0.002024
-6.705	-0.001989
-6.700	-0.002017
-6.695	-0.001989
-6.690	-0.002002
-6.685	-0.001995
-6.680	-0.002002
-6.675	-0.001988
-6.670	-0.001988
-6.665	-0.001995
-6.660	-0.001975
-6.655	-0.001988
-6.650	-0.001974
-6.645	-0.001988
-6.640	-0.001961
-6.635	-0.001961
-6.630	-0.001967
-6.625	-0.001940
-6.620	-0.001933
-6.615	-0.001974
-6.610	-0.001954
-6.605	-0.001988
-6.600	-0.001927
-6.595	-0.001920
-6.590	-0.001899
-6.585	-0.001899
-6.580	-0.001885
-6.575	-0.001892
-6.570	-0.001878
-6.565	-0.001865
-6.560	-0.001865
-6.555	-0.001858
-6.550	-0.001858
-6.545	-0.001858
-6.540	-0.001844
-6.535	-0.001838
-6.530	-0.001824
-6.525	-0.001831
-6.520	-0.001844
-6.515	-0.001844
-6.510	-0.001824
-6.505	-0.001831
-6.500	-0.001831
-6.495	-0.001776
-6.490	-0.001852
-6.485	-0.001824
-6.480	-0.001810
-6.475	-0.001859
-6.470	-0.001831
-6.465	-0.001825
-6.460	-0.001804
-6.455	-0.001804
-6.450	-0.001784
-6.445	-0.001812
-6.440	-0.001791
-6.435	-0.001784
-6.430	-0.001798
-6.425	-0.001806
-6.420	-0.001785
-6.415	-0.001778
-6.410	-0.001785
-6.405	-0.001799
-6.400	-0.001758
-6.395	-0.001800
-6.390	-0.001730
-6.385	-0.001730
-6.380	-0.001750
-6.375	-0.001757
-6.370	-0.001729
-6.365	-0.001736
-6.360	-0.001722
-6.355	-0.001736
-6.350	-0.001756
-6.345	-0.001749
-6.340	-0.001756
-6.335	-0.001770
-6.330	-0.001756
-6.325	-0.001749
-6.320	-0.001735
-6.315	-0.001715
-6.310	-0.001735
-6.305	-0.001715
-6.300	-0.001701
-6.295	-0.001708
-6.290	-0.001763
-6.285	-0.001701
-6.280	-0.001687
-6.275	-0.001715
-6.270	-0.001715
-6.265	-0.001708
-6.260	-0.001681
-6.255	-0.001694
-6.250	-0.001681
-6.245	-0.001694
-6.240	-0.001694
-6.235	-0.001639
-6.230	-0.001681
-6.225	-0.001681
-6.220	-0.001701
-6.215	-0.001674
-6.210	-0.001653
-6.205	-0.001695
-6.200	-0.001681
-6.195	-0.001660
-6.190	-0.001667
-6.185	-0.001653
-6.180	-0.001660
-6.175	-0.001660
-6.170	-0.001640
-6.165	-0.001681
-6.160	-0.001660
-6.155	-0.001660
-6.150	-0.001654
-6.145	-0.001640
-6.140	-0.001654
-6.135	-0.001626
-6.130	-0.001633
-6.125	-0.001654
-6.120	-0.001612
-6.115	-0.001654
-6.110	-0.001599
-6.105	-0.001633
-6.100	-0.001619
-6.095	-0.001599
-6.090	-0.001626
-6.085	-0.001613
-6.080	-0.001619
-6.075	-0.001613
-6.070	-0.001592
-6.065	-0.001599
-6.060	-0.001592
-6.055	-0.001585
-6.050	-0.001565
-6.045	-0.001544
-6.040	-0.001558
-6.035	-0.001544
-6.030	-0.001585
-6.025	-0.001558
-6.020	-0.001551
-6.015	-0.001551
-6.010	-0.001537
-6.005	-0.001537
-6.000	-0.001524
-5.995	-0.001517
-5.990	-0.001503
-5.985	-0.001475
-5.980	-0.001482
-5.975	-0.001469
-5.970	-0.001462
-5.965	-0.001476
-5.960	-0.001462
-5.955	-0.001462
-5.950	-0.001469
-5.945	-0.001441
-5.940	-0.001428
-5.935	-0.001434
-5.930	-0.001434
-5.925	-0.001393
-5.920	-0.001421
-5.915	-0.001386
-5.910	-0.001393
-5.905	-0.001380
-5.900	-0.001386
-5.895	-0.001373
-5.890	-0.001366
-5.885	-0.001359
-5.880	-0.001387
-5.875	-0.001352
-5.870	-0.001345
-5.865	-0.001352
-5.860	-0.001297
-5.855	-0.001339
-5.850	-0.001311
-5.845	-0.001304
-5.840	-0.001304
-5.835	-0.001318
-5.830	-0.001318
-5.825	-0.001311
-5.820	-0.001304
-5.815	-0.001304
-5.810	-0.001311
-5.805	-0.001332
-5.800	-0.001373
-5.795	-0.001373
-5.790	-0.001401
-5.785	-0.001415
-5.780	-0.001428
-5.775	-0.001463
-5.770	-0.001559
-5.765	-0.001621
-5.760	-0.001676
-5.755	-0.001745
-5.750	-0.001883
-5.745	-0.001952
-5.740	-0.002083
-5.735	-0.002166
-5.730	-0.002262
-5.725	-0.002352
-5.720	-0.002475
-5.715	-0.002551
-5.710	-0.002599
-5.705	-0.002648
-5.700	-0.002703
-5.695	-0.002716
-5.690	-0.002682
-5.685	-0.002655
-5.680	-0.002551
-5.675	-0.002441
-5.670	-0.002359
-5.665	-0.002235
-5.660	-0.002028
-5.655	-0.001911
-5.650	-0.001760
-5.645	-0.001615
-5.640	-0.001525
-5.635	-0.001408
-5.630	-0.001319
-5.625	-0.001291
-5.620	-0.001236
-5.615	-0.001168
-5.610	-0.001175
-5.605	-0.001161
-5.600	-0.001119
-5.595	-0.001147
-5.590	-0.001175
-5.585	-0.001154
-5.580	-0.001168
-5.575	-0.001140
-5.570	-0.001147
-5.565	-0.001133
-5.560	-0.001175
-5.555	-0.001189
-5.550	-0.001175
-5.545	-0.001175
-5.540	-0.001154
-5.535	-0.001189
-5.530	-0.001133
-5.525	-0.001147
-5.520	-0.001182
-5.515	-0.001147
-5.510	-0.001141
-5.505	-0.001182
-5.500	-0.001175
-5.495	-0.001168
-5.490	-0.001168
-5.485	-0.001154
-5.480	-0.001203
-5.475	-0.001203
-5.470	-0.001168
-5.465	-0.001182
-5.460	-0.001223
-5.455	-0.001182
-5.450	-0.001168
-5.445	-0.001106
-5.440	-0.000851
-5.435	-0.000417
-5.430	0.000362
-5.425	0.001404
-5.420	0.003032
-5.415	0.005279
-5.410	0.008107
-5.405	0.011688
-5.400	0.015353
-5.395	0.019787
-5.390	0.025006
-5.385	0.030141
-5.380	0.036078
-5.375	0.042770
-5.370	0.048949
-5.365	0.054441
-5.360	0.060218
-5.355	0.066522
-5.350	0.071730
-5.345	0.073867
-5.340	0.072739
-5.335	0.069429
-5.330	0.065274
-5.325	0.061124
-5.320	0.057249
-5.315	0.053851
-5.310	0.050931
-5.305	0.048507
-5.300	0.046438
-5.295	0.044664
-5.290	0.043003
-5.285	0.041608
-5.280	0.040219
-5.275	0.039066
-5.270	0.037973
-5.265	0.037004
-5.260	0.036103
-5.255	0.035275
-5.250	0.034512
-5.245	0.033768
-5.240	0.033073
-5.235	0.032461
-5.230	0.031860
-5.225	0.031290
-5.220	0.030701
-5.215	0.030139
-5.210	0.029652
-5.205	0.029189
-5.200	0.028747
-5.195	0.028271
-5.190	0.027785
-5.185	0.027296
-5.180	0.026788
-5.175	0.026264
-5.170	0.025823
-5.165	0.025477
-5.160	0.025098
-5.155	0.024778
-5.150	0.024452
-5.145	0.024146
-5.140	0.023895
-5.135	0.023628
-5.130	0.023347
-5.125	0.023000
-5.120	0.022755
-5.115	0.022494
-5.110	0.022266
-5.105	0.022070
-5.100	0.021931
-5.095	0.021748
-5.090	0.021526
-5.085	0.021332
-5.080	0.021078
-5.075	0.020892
-5.070	0.020772
-5.065	0.020653
-5.060	0.020521
-5.055	0.020377
-5.050	0.020196
-5.045	0.019944
-5.040	0.019752
-5.035	0.019539
-5.030	0.019304
-5.025	0.019083
-5.020	0.018813
-5.015	0.018642
-5.010	0.018533
-5.005	0.018460
-5.000	0.018384
-4.995	0.018240
-4.990	0.018089
-4.985	0.017884
-4.980	0.017706
-4.975	0.017561
-4.970	0.017350
-4.965	0.017273
-4.960	0.017144
-4.955	0.016979
-4.950	0.016742
-4.945	0.016626
-4.940	0.016545
-4.935	0.016448
-4.930	0.016382
-4.925	0.016280
-4.920	0.016103
-4.915	0.016016
-4.910	0.015896
-4.905	0.015854
-4.900	0.015776
-4.895	0.015723
-4.890	0.015639
-4.885	0.015562
-4.880	0.015515
-4.875	0.015469
-4.870	0.015392
-4.865	0.015325
-4.860	0.015294
-4.855	0.015199
-4.850	0.015101
-4.845	0.015066
-4.840	0.015012
-4.835	0.014929
-4.830	0.014891
-4.825	0.014774
-4.820	0.014677
-4.815	0.014574
-4.810	0.014397
-4.805	0.014279
-4.800	0.014178
-4.795	0.014045
-4.790	0.013981
-4.785	0.013919
-4.780	0.013897
-4.775	0.013894
-4.770	0.013785
-4.765	0.013738
-4.760	0.013661
-4.755	0.013518
-4.750	0.013379
-4.745	0.013238
-4.740	0.013122
-4.735	0.013056
-4.730	0.013065
-4.725	0.013078
-4.720	0.013106
-4.715	0.013069
-4.710	0.013005
-4.705	0.013020
-4.700	0.013016
-4.695	0.012972
-4.690	0.012943
-4.685	0.012851
-4.680	0.012779
-4.675	0.012711
-4.670	0.012640
-4.665	0.012503
-4.660	0.012451
-4.655	0.012339
-4.650	0.012263
-4.645	0.012146
-4.640	0.012036
-4.635	0.011934
-4.630	0.011822
-4.625	0.011705
-4.620	0.011612
-4.615	0.011640
-4.610	0.011623
-4.605	0.011522
-4.600	0.011504
-4.595	0.011489
-4.590	0.011484
-4.585	0.011544
-4.580	0.011492
-4.575	0.011466
-4.570	0.011431
-4.565	0.011407
-4.560	0.011379
-4.555	0.011399
-4.550	0.011355
-4.545	0.011356
-4.540	0.011364
-4.535	0.011285
-4.530	0.011251
-4.525	0.011090
-4.520	0.011019
-4.515	0.010909
-4.510	0.010819
-4.505	0.010745
-4.500	0.010716
-4.495	0.010620
-4.490	0.010545
-4.485	0.010505
-4.480	0.010496
-4.475	0.010568
-4.470	0.010537
-4.465	0.010579
-4.460	0.010539
-4.455	0.010414
-4.450	0.010338
-4.445	0.010290
-4.440	0.010260
-4.435	0.010143
-4.430	0.009986
-4.425	0.009925
-4.420	0.009967
-4.415	0.009976
-4.410	0.009914
-4.405	0.009842
-4.400	0.009830
-4.395	0.009868
-4.390	0.009887
-4.385	0.009873
-4.380	0.009858
-4.375	0.009755
-4.370	0.009713
-4.365	0.009754
-4.360	0.009700
-4.355	0.009685
-4.350	0.009649
-4.345	0.009561
-4.340	0.009546
-4.335	0.009468
-4.330	0.009433
-4.325	0.009436
-4.320	0.009449
-4.315	0.009503
-4.310	0.009490
-4.305	0.009491
-4.300	0.009442
-4.295	0.009298
-4.290	0.009254
-4.285	0.009169
-4.280	0.009038
-4.275	0.008970
-4.270	0.008982
-4.265	0.008963
-4.260	0.008921
-4.255	0.008913
-4.250	0.008838
-4.245	0.008871
-4.240	0.008912
-4.235	0.008973
-4.230	0.008979
-4.225	0.008958
-4.220	0.008965
-4.215	0.008960
-4.210	0.008982
-4.205	0.009000
-4.200	0.008946
-4.195	0.008841
-4.190	0.008782
-4.185	0.008715
-4.180	0.008612
-4.175	0.008516
-4.170	0.008399
-4.165	0.008288
-4.160	0.008144
-4.155	0.008064
-4.150	0.007872
-4.145	0.007557
-4.140	0.007037
-4.135	0.006264
-4.130	0.005186
-4.125	0.003651
-4.120	0.001630
-4.115	-0.000914
-4.110	-0.004127
-4.105	-0.007949
-4.100	-0.012396
-4.095	-0.017277
-4.090	-0.022833
-4.085	-0.028798
-4.080	-0.035153
-4.075	-0.041630
-4.070	-0.048166
-4.065	-0.054677
-4.060	-0.060884
-4.055	-0.066244
-4.050	-0.070279
-4.045	-0.072631
-4.040	-0.072984
-4.035	-0.071291
-4.030	-0.067946
-4.025	-0.063559
-4.020	-0.058944
-4.015	-0.054725
-4.010	-0.051019
-4.005	-0.047902
-4.000	-0.045287
-3.995	-0.043116
-3.990	-0.041142
-3.985	-0.039495
-3.980	-0.037925
-3.975	-0.036594
-3.970	-0.035335
-3.965	-0.034232
-3.960	-0.033228
-3.955	-0.032293
-3.950	-0.031431
-3.945	-0.030654
-3.940	-0.029959
-3.935	-0.029263
-3.930	-0.028697
-3.925	-0.028061
-3.920	-0.027463
-3.915	-0.026940
-3.910	-0.026464
-3.905	-0.025980
-3.900	-0.025520
-3.895	-0.025073
-3.890	-0.024653
-3.885	-0.024261
-3.880	-0.023818
-3.875	-0.023409
-3.870	-0.022998
-3.865	-0.022632
-3.860	-0.022193
-3.855	-0.021850
-3.850	-0.021494
-3.845	-0.021151
-3.840	-0.020814
-3.835	-0.020475
-3.830	-0.020188
-3.825	-0.019870
-3.820	-0.019565
-3.815	-0.019297
-3.810	-0.018995
-3.805	-0.018710
-3.800	-0.018437
-3.795	-0.018213
-3.790	-0.017965
-3.785	-0.017710
-3.780	-0.017496
-3.775	-0.017306
-3.770	-0.017028
-3.765	-0.016807
-3.760	-0.016604
-3.755	-0.016453
-3.750	-0.016250
-3.745	-0.016027
-3.740	-0.015844
-3.735	-0.015643
-3.730	-0.015476
-3.725	-0.015303
-3.720	-0.015152
-3.715	-0.014972
-3.710	-0.014815
-3.705	-0.014673
-3.700	-0.014571
-3.695	-0.014405
-3.690	-0.014251
-3.685	-0.014079
-3.680	-0.013955
-3.675	-0.013843
-3.670	-0.013729
-3.665	-0.013591
-3.660	-0.013428
-3.655	-0.013299
-3.650	-0.013162
-3.645	-0.013013
-3.640	-0.012929
-3.635	-0.012841
-3.630	-0.012716
-3.625	-0.012613
-3.620	-0.012463
-3.615	-0.012332
-3.610	-0.012210
-3.605	-0.012049
-3.600	-0.011859
-3.595	-0.011685
-3.590	-0.011440
-3.585	-0.011209
-3.580	-0.011018
-3.575	-0.010773
-3.570	-0.010510
-3.565	-0.010123
-3.560	-0.009791
-3.555	-0.009413
-3.550	-0.008966
-3.545	-0.008504
-3.540	-0.008014
-3.535	-0.007462
-3.530	-0.006919
-3.525	-0.006266
-3.520	-0.005698
-3.515	-0.005016
-3.510	-0.004376
-3.505	-0.003689
-3.500	-0.003077
-3.495	-0.002452
-3.490	-0.001881
-3.485	-0.001392
-3.480	-0.000897
-3.475	-0.000422
-3.470	0.000052
-3.465	0.000417
-3.460	0.000610
-3.455	0.000775
-3.450	0.000878
-3.445	0.000940
-3.440	0.000967
-3.435	0.000906
-3.430	0.000912
-3.425	0.000891
-3.420	0.000912
-3.415	0.000945
-3.410	0.001151
-3.405	0.001511
-3.400	0.001947
-3.395	0.002450
-3.390	0.003107
-3.385	0.003833
-3.380	0.004665
-3.375	0.005605
-3.370	0.006695
-3.365	0.007751
-3.360	0.008889
-3.355	0.009957
-3.350	0.011037
-3.345	0.011981
-3.340	0.012504
-3.335	0.012546
-3.330	0.012264
-3.325	0.011685
-3.320	0.011042
-3.315	0.010565
-3.310	0.010197
-3.305	0.009923
-3.300	0.009709
-3.295	0.009496
-3.290	0.009277
-3.285	0.009161
-3.280	0.009058
-3.275	0.009024
-3.270	0.008972
-3.265	0.009011
-3.260	0.009001
-3.255	0.008987
-3.250	0.009042
-3.245	0.009070
-3.240	0.009096
-3.235	0.009144
-3.230	0.009172
-3.225	0.009193
-3.220	0.009261
-3.215	0.009349
-3.210	0.009418
-3.205	0.009490
-3.200	0.009580
-3.195	0.009711
-3.190	0.009826
-3.185	0.009984
-3.180	0.010128
-3.175	0.010307
-3.170	0.010465
-3.165	0.010626
-3.160	0.010699
-3.155	0.010759
-3.150	0.010739
-3.145	0.010711
-3.140	0.010701
-3.135	0.010784
-3.130	0.010925
-3.125	0.010969
-3.120	0.011009
-3.115	0.011149
-3.110	0.011251
-3.105	0.011377
-3.100	0.011413
-3.095	0.011437
-3.090	0.011472
-3.085	0.011551
-3.080	0.011644
-3.075	0.011756
-3.070	0.011864
-3.065	0.011948
-3.060	0.012011
-3.055	0.012112
-3.050	0.012177
-3.045	0.012161
-3.040	0.012133
-3.035	0.012221
-3.030	0.012377
-3.025	0.012481
-3.020	0.012561
-3.015	0.012589
-3.010	0.012708
-3.005	0.012872
-3.000	0.013040
-2.995	0.013106
-2.990	0.013210
-2.985	0.013237
-2.980	0.013262
-2.975	0.013315
-2.970	0.013520
-2.965	0.013638
-2.960	0.013727
-2.955	0.013752
-2.950	0.013815
-2.945	0.013885
-2.940	0.013903
-2.935	0.013975
-2.930	0.014105
-2.925	0.014237
-2.920	0.014326
-2.915	0.014455
-2.910	0.014571
-2.905	0.014688
-2.900	0.014743
-2.895	0.014759
-2.890	0.014831
-2.885	0.014841
-2.880	0.014907
-2.875	0.015070
-2.870	0.015289
-2.865	0.015436
-2.860	0.015627
-2.855	0.015785
-2.850	0.015908
-2.845	0.015958
-2.840	0.015992
-2.835	0.015957
-2.830	0.015838
-2.825	0.015767
-2.820	0.015733
-2.815	0.015762
-2.810	0.015751
-2.805	0.015717
-2.800	0.015685
-2.795	0.015683
-2.790	0.015539
-2.785	0.015402
-2.780	0.015636
-2.775	0.016050
-2.770	0.016175
-2.765	0.016130
-2.760	0.016149
-2.755	0.016275
-2.750	0.016455
-2.745	0.016551
-2.740	0.016596
-2.735	0.016672
-2.730	0.016785
-2.725	0.016965
-2.720	0.017090
-2.715	0.017187
-2.710	0.017256
-2.705	0.017247
-2.700	0.017329
-2.695	0.017367
-2.690	0.017383
-2.685	0.017383
-2.680	0.017450
-2.675	0.017470
-2.670	0.017544
-2.665	0.017619
-2.660	0.017648
-2.655	0.017751
-2.650	0.017964
-2.645	0.018128
-2.640	0.018329
-2.635	0.018464
-2.630	0.018520
-2.625	0.018547
-2.620	0.018531
-2.615	0.018442
-2.610	0.018466
-2.605	0.018531
-2.600	0.018538
-2.595	0.018561
-2.590	0.018516
-2.585	0.018481
-2.580	0.018377
-2.575	0.018314
-2.570	0.018254
-2.565	0.018235
-2.560	0.018284
-2.555	0.018352
-2.550	0.018433
-2.545	0.018488
-2.540	0.018552
-2.535	0.018598
-2.530	0.018623
-2.525	0.018622
-2.520	0.018631
-2.515	0.018729
-2.510	0.018839
-2.505	0.018929
-2.500	0.018969
-2.495	0.018975
-2.490	0.019024
-2.485	0.019089
-2.480	0.019158
-2.475	0.019160
-2.470	0.019175
-2.465	0.019179
-2.460	0.019197
-2.455	0.019191
-2.450	0.019118
-2.445	0.019069
-2.440	0.019000
-2.435	0.019003
-2.430	0.019009
-2.425	0.019051
-2.420	0.019026
-2.415	0.019047
-2.410	0.019045
-2.405	0.019110
-2.400	0.019196
-2.395	0.019343
-2.390	0.019484
-2.385	0.019656
-2.380	0.019863
-2.375	0.019983
-2.370	0.020085
-2.365	0.020173
-2.360	0.020170
-2.355	0.020186
-2.350	0.020225
-2.345	0.020290
-2.340	0.020298
-2.335	0.020279
-2.330	0.020222
-2.325	0.020244
-2.320	0.020234
-2.315	0.020204
-2.310	0.020119
-2.305	0.019973
-2.300	0.019805
-2.295	0.019694
-2.290	0.019606
-2.285	0.019502
-2.280	0.019447
-2.275	0.019395
-2.270	0.019470
-2.265	0.019528
-2.260	0.019568
-2.255	0.019642
-2.250	0.019608
-2.245	0.019680
-2.240	0.019797
-2.235	0.019895
-2.230	0.019919
-2.225	0.019978
-2.220	0.019956
-2.215	0.019988
-2.210	0.020084
-2.205	0.020151
-2.200	0.020171
-2.195	0.020174
-2.190	0.020132
-2.185	0.020107
-2.180	0.020078
-2.175	0.020005
-2.170	0.019931
-2.165	0.019792
-2.160	0.019715
-2.155	0.019631
-2.150	0.019496
-2.145	0.019414
-2.140	0.019362
-2.135	0.019330
-2.130	0.019432
-2.125	0.019478
-2.120	0.019647
-2.115	0.019799
-2.110	0.019940
-2.105	0.020116
-2.100	0.020274
-2.095	0.020401
-2.090	0.020470
-2.085	0.020482
-2.080	0.020503
-2.075	0.020419
-2.070	0.020422
-2.065	0.020419
-2.060	0.020452
-2.055	0.020393
-2.050	0.020399
-2.045	0.020332
-2.040	0.020325
-2.035	0.020319
-2.030	0.020341
-2.025	0.020281
-2.020	0.020228
-2.015	0.020081
-2.010	0.020046
-2.005	0.019958
-2.000	0.019884
-1.995	0.019912
-1.990	0.019873
-1.985	0.019858
-1.980	0.019862
-1.975	0.019843
-1.970	0.019763
-1.965	0.019796
-1.960	0.019810
-1.955	0.019848
-1.950	0.019844
-1.945	0.019868
-1.940	0.019886
-1.935	0.019838
-1.930	0.019815
-1.925	0.019806
-1.920	0.019739
-1.915	0.019684
-1.910	0.019637
-1.905	0.019622
-1.900	0.019602
-1.895	0.019632
-1.890	0.019618
-1.885	0.019582
-1.880	0.019615
-1.875	0.019658
-1.870	0.019672
-1.865	0.019654
-1.860	0.019647
-1.855	0.019517
-1.850	0.019379
-1.845	0.019279
-1.840	0.019147
-1.835	0.019109
-1.830	0.019033
-1.825	0.018983
-1.820	0.018980
-1.815	0.018992
-1.810	0.019005
-1.805	0.019110
-1.800	0.019171
-1.795	0.019242
-1.790	0.019322
-1.785	0.019369
-1.780	0.019352
-1.775	0.019267
-1.770	0.019206
-1.765	0.019116
-1.760	0.019082
-1.755	0.019007
-1.750	0.018889
-1.745	0.018758
-1.740	0.018635
-1.735	0.018507
-1.730	0.018454
-1.725	0.018460
-1.720	0.018444
-1.715	0.018437
-1.710	0.018488
-1.705	0.018548
-1.700	0.018634
-1.695	0.018677
-1.690	0.018682
-1.685	0.018731
-1.680	0.018712
-1.675	0.018705
-1.670	0.018680
-1.665	0.018656
-1.660	0.018630
-1.655	0.018619
-1.650	0.018606
-1.645	0.018546
-1.640	0.018491
-1.635	0.018476
-1.630	0.018460
-1.625	0.018400
-1.620	0.018471
-1.615	0.018465
-1.610	0.018464
-1.605	0.018480
-1.600	0.018430
-1.595	0.018388
-1.590	0.018296
-1.585	0.018187
-1.580	0.018105
-1.575	0.018058
-1.570	0.017951
-1.565	0.017852
-1.560	0.017763
-1.555	0.017642
-1.550	0.017491
-1.545	0.017440
-1.540	0.017371
-1.535	0.017371
-1.530	0.017325
-1.525	0.017317
-1.520	0.017389
-1.515	0.017416
-1.510	0.017456
-1.505	0.017531
-1.500	0.017534
-1.495	0.017536
-1.490	0.017501
-1.485	0.017437
-1.480	0.017304
-1.475	0.017178
-1.470	0.016992
-1.465	0.016857
-1.460	0.016665
-1.455	0.016546
-1.450	0.016477
-1.445	0.016462
-1.440	0.016463
-1.435	0.016430
-1.430	0.016402
-1.425	0.016360
-1.420	0.016382
-1.415	0.016342
-1.410	0.016319
-1.405	0.016265
-1.400	0.016215
-1.395	0.016144
-1.390	0.016135
-1.385	0.016064
-1.380	0.015997
-1.375	0.015900
-1.370	0.015805
-1.365	0.015749
-1.360	0.015629
-1.355	0.015580
-1.350	0.015505
-1.345	0.015424
-1.340	0.015366
-1.335	0.015253
-1.330	0.015126
-1.325	0.015039
-1.320	0.014983
-1.315	0.014874
-1.310	0.014866
-1.305	0.014830
-1.300	0.014836
-1.295	0.014884
-1.290	0.014991
-1.285	0.015000
-1.280	0.015070
-1.275	0.015122
-1.270	0.015167
-1.265	0.015220
-1.260	0.015187
-1.255	0.015189
-1.250	0.015198
-1.245	0.015148
-1.240	0.015079
-1.235	0.015072
-1.230	0.015015
-1.225	0.014940
-1.220	0.014890
-1.215	0.014888
-1.210	0.014861
-1.205	0.014818
-1.200	0.014780
-1.195	0.014759
-1.190	0.014744
-1.185	0.014711
-1.180	0.014618
-1.175	0.014619
-1.170	0.014530
-1.165	0.014468
-1.160	0.014378
-1.155	0.014330
-1.150	0.014267
-1.145	0.014160
-1.140	0.014123
-1.135	0.014024
-1.130	0.013944
-1.125	0.013827
-1.120	0.013740
-1.115	0.013624
-1.110	0.013536
-1.105	0.013420
-1.100	0.013330
-1.095	0.013187
-1.090	0.013083
-1.085	0.012966
-1.080	0.012830
-1.075	0.012772
-1.070	0.012713
-1.065	0.012616
-1.060	0.012547
-1.055	0.012478
-1.050	0.012443
-1.045	0.012445
-1.040	0.012454
-1.035	0.012522
-1.030	0.012558
-1.025	0.012626
-1.020	0.012678
-1.015	0.012782
-1.010	0.012874
-1.005	0.012929
-1.000	0.012997
-0.995	0.013036
-0.990	0.013091
-0.985	0.013147
-0.980	0.013129
-0.975	0.013110
-0.970	0.013042
-0.965	0.012988
-0.960	0.012905
-0.955	0.012781
-0.950	0.012658
-0.945	0.012528
-0.940	0.012409
-0.935	0.012275
-0.930	0.012143
-0.925	0.012052
-0.920	0.011937
-0.915	0.011793
-0.910	0.011704
-0.905	0.011594
-0.900	0.011516
-0.895	0.011469
-0.890	0.011400
-0.885	0.011330
-0.880	0.011256
-0.875	0.011196
-0.870	0.011094
-0.865	0.011034
-0.860	0.010982
-0.855	0.010911
-0.850	0.010787
-0.845	0.010690
-0.840	0.010649
-0.835	0.010546
-0.830	0.010476
-0.825	0.010399
-0.820	0.010323
-0.815	0.010194
-0.810	0.010091
-0.805	0.009979
-0.800	0.009931
-0.795	0.009827
-0.790	0.009693
-0.785	0.009543
-0.780	0.009439
-0.775	0.009302
-0.770	0.009233
-0.765	0.009109
-0.760	0.009006
-0.755	0.008958
-0.750	0.008847
-0.745	0.008772
-0.740	0.008726
-0.735	0.008677
-0.730	0.008662
-0.725	0.008640
-0.720	0.008627
-0.715	0.008589
-0.710	0.008541
-0.705	0.008508
-0.700	0.008473
-0.695	0.008440
-0.690	0.008487
-0.685	0.008467
-0.680	0.008445
-0.675	0.008412
-0.670	0.008392
-0.665	0.008362
-0.660	0.008345
-0.655	0.008318
-0.650	0.008304
-0.645	0.008297
-0.640	0.008256
-0.635	0.008262
-0.630	0.008220
-0.625	0.008206
-0.620	0.008124
-0.615	0.008076
-0.610	0.008008
-0.605	0.007999
-0.600	0.007909
-0.595	0.007880
-0.590	0.007802
-0.585	0.007768
-0.580	0.007721
-0.575	0.007659
-0.570	0.007597
-0.565	0.007534
-0.560	0.007417
-0.555	0.007320
-0.550	0.007243
-0.545	0.007202
-0.540	0.007116
-0.535	0.007027
-0.530	0.006937
-0.525	0.006819
-0.520	0.006736
-0.515	0.006694
-0.510	0.006562
-0.505	0.006486
-0.500	0.006389
-0.495	0.006300
-0.490	0.006196
-0.485	0.006108
-0.480	0.005970
-0.475	0.005904
-0.470	0.005841
-0.465	0.005763
-0.460	0.005684
-0.455	0.005649
-0.450	0.005588
-0.445	0.005534
-0.440	0.005493
-0.435	0.005397
-0.430	0.005333
-0.425	0.005292
-0.420	0.005256
-0.415	0.005202
-0.410	0.005215
-0.405	0.005184
-0.400	0.005108
-0.395	0.005148
-0.390	0.005107
-0.385	0.005027
-0.380	0.004946
-0.375	0.004918
-0.370	0.004856
-0.365	0.004827
-0.360	0.004800
-0.355	0.004675
-0.350	0.004636
-0.345	0.004582
-0.340	0.004515
-0.335	0.004487
-0.330	0.004437
-0.325	0.004360
-0.320	0.004330
-0.315	0.004343
-0.310	0.004239
-0.305	0.004158
-0.300	0.004097
-0.295	0.003947
-0.290	0.003865
-0.285	0.003761
-0.280	0.003699
-0.275	0.003651
-0.270	0.003595
-0.265	0.003532
-0.260	0.003476
-0.255	0.003379
-0.250	0.003337
-0.245	0.003296
-0.240	0.003240
-0.235	0.003170
-0.230	0.003101
-0.225	0.002992
-0.220	0.002923
-0.215	0.002820
-0.210	0.002711
-0.205	0.002521
-0.200	0.002465
-0.195	0.002408
-0.190	0.002359
-0.185	0.002371
-0.180	0.002356
-0.175	0.002220
-0.170	0.001980
-0.165	0.001863
-0.160	0.001746
-0.155	0.001725
-0.150	0.001779
-0.145	0.001902
-0.140	0.002012
-0.135	0.002047
-0.130	0.002108
-0.125	0.002150
-0.120	0.002344
-0.115	0.002591
-0.110	0.002878
-0.105	0.003001
-0.100	0.003043
-0.095	0.002981
-0.090	0.002768
-0.085	0.002383
-0.080	0.001916
-0.075	0.001462
-0.070	0.000800
-0.065	-0.000109
-0.060	-0.001190
-0.055	-0.002347
-0.050	-0.003533
-0.045	-0.004609
-0.040	-0.005391
-0.035	-0.005746
-0.030	-0.005695
-0.025	-0.005165
-0.020	-0.004130
-0.015	-0.002733
-0.010	-0.001086
-0.005	0.000745
0.000	0.002647
0.005	0.004438
0.010	0.005805
0.015	0.006629
0.020	0.006796
0.025	0.006375
0.030	0.005393
0.035	0.004010
0.040	0.002432
0.045	0.000811
0.050	-0.000845
0.055	-0.002251
0.060	-0.003319
0.065	-0.003973
0.070	-0.004311
0.075	-0.004325
0.080	-0.004085
0.085	-0.003658
0.090	-0.003141
0.095	-0.002624
0.100	-0.002210
0.105	-0.001797
0.110	-0.001521
0.115	-0.001418
0.120	-0.001363
0.125	-0.001418
0.130	-0.001535
0.135	-0.001604
0.140	-0.001694
0.145	-0.001776
0.150	-0.001866
0.155	-0.001949
0.160	-0.002004
0.165	-0.002080
0.170	-0.002191
0.175	-0.002335
0.180	-0.002480
0.185	-0.002563
0.190	-0.002605
0.195	-0.002702
0.200	-0.002757
0.205	-0.002791
0.210	-0.002819
0.215	-0.002861
0.220	-0.002916
0.225	-0.003034
0.230	-0.003145
0.235	-0.003248
0.240	-0.003297
0.245	-0.003387
0.250	-0.003524
0.255	-0.003669
0.260	-0.003766
0.265	-0.003849
0.270	-0.003945
0.275	-0.004055
0.280	-0.004123
0.285	-0.004096
0.290	-0.004138
0.295	-0.004200
0.300	-0.004269
0.305	-0.004385
0.310	-0.004468
0.315	-0.004550
0.320	-0.004550
0.325	-0.004627
0.330	-0.004635
0.335	-0.004696
0.340	-0.004807
0.345	-0.004903
0.350	-0.005006
0.355	-0.005066
0.360	-0.005210
0.365	-0.005277
0.370	-0.005303
0.375	-0.005386
0.380	-0.005421
0.385	-0.005435
0.390	-0.005511
0.395	-0.005541
0.400	-0.005609
0.405	-0.005643
0.410	-0.005671
0.415	-0.005733
0.420	-0.005789
0.425	-0.005810
0.430	-0.005886
0.435	-0.005920
0.440	-0.005954
0.445	-0.005988
0.450	-0.006022
0.455	-0.006015
0.460	-0.006072
0.465	-0.006073
0.470	-0.006140
0.475	-0.006209
0.480	-0.006230
0.485	-0.006229
0.490	-0.006332
0.495	-0.006367
0.500	-0.006421
0.505	-0.006504
0.510	-0.006607
0.515	-0.006676
0.520	-0.006779
0.525	-0.006897
0.530	-0.006978
0.535	-0.007052
0.540	-0.007146
0.545	-0.007181
0.550	-0.007256
0.555	-0.007304
0.560	-0.007421
0.565	-0.007435
0.570	-0.007476
0.575	-0.007575
0.580	-0.007630
0.585	-0.007650
0.590	-0.007743
0.595	-0.007794
0.600	-0.007808
0.605	-0.007884
0.610	-0.007919
0.615	-0.007974
0.620	-0.008044
0.625	-0.008058
0.630	-0.008093
0.635	-0.008163
0.640	-0.008190
0.645	-0.008278
0.650	-0.008340
0.655	-0.008368
0.660	-0.008385
0.665	-0.008484
0.670	-0.008474
0.675	-0.008544
0.680	-0.008544
0.685	-0.008565
0.690	-0.008608
0.695	-0.008699
0.700	-0.008685
0.705	-0.008770
0.710	-0.008839
0.715	-0.008917
0.720	-0.009000
0.725	-0.009085
0.730	-0.009203
0.735	-0.009305
0.740	-0.009420
0.745	-0.009579
0.750	-0.009677
0.755	-0.009797
0.760	-0.009909
0.765	-0.010027
0.770	-0.010193
0.775	-0.010250
0.780	-0.010417
0.785	-0.010467
0.790	-0.010629
0.795	-0.010697
0.800	-0.010751
0.805	-0.010845
0.810	-0.010846
0.815	-0.010848
0.820	-0.010855
0.825	-0.010837
0.830	-0.010833
0.835	-0.010891
0.840	-0.010887
0.845	-0.010889
0.850	-0.010891
0.855	-0.010880
0.860	-0.010898
0.865	-0.010931
0.870	-0.010970
0.875	-0.011032
0.880	-0.011100
0.885	-0.011191
0.890	-0.011285
0.895	-0.011389
0.900	-0.011441
0.905	-0.011523
0.910	-0.011639
0.915	-0.011714
0.920	-0.011809
0.925	-0.011908
0.930	-0.011994
0.935	-0.012060
0.940	-0.012078
0.945	-0.012170
0.950	-0.012233
0.955	-0.012284
0.960	-0.012360
0.965	-0.012391
0.970	-0.012481
0.975	-0.012516
0.980	-0.012629
0.985	-0.012691
0.990	-0.012694
0.995	-0.012746
1.000	-0.012786
1.005	-0.012819
1.010	-0.012834
1.015	-0.012896
1.020	-0.012997
1.025	-0.013051
1.030	-0.013063
1.035	-0.013151
1.040	-0.013195
1.045	-0.013358
1.050	-0.013381
1.055	-0.013528
1.060	-0.013575
1.065	-0.013674
1.070	-0.013798
1.075	-0.013920
1.080	-0.014008
1.085	-0.014091
1.090	-0.014215
1.095	-0.014359
1.100	-0.014372
1.105	-0.014420
1.110	-0.014518
1.115	-0.014607
1.120	-0.014612
1.125	-0.014550
1.130	-0.014467
1.135	-0.014422
1.140	-0.014254
1.145	-0.014178
1.150	-0.014102
1.155	-0.014013
1.160	-0.013998
1.165	-0.013942
1.170	-0.013844
1.175	-0.013794
1.180	-0.013868
1.185	-0.013985
1.190	-0.014055
1.195	-0.014084
1.200	-0.014164
1.205	-0.014311
1.210	-0.014492
1.215	-0.014540
1.220	-0.014614
1.225	-0.014715
1.230	-0.014792
1.235	-0.014775
1.240	-0.014748
1.245	-0.014731
1.250	-0.014809
1.255	-0.014926
1.260	-0.014971
1.265	-0.015017
1.270	-0.015107
1.275	-0.015230
1.280	-0.015286
1.285	-0.015285
1.290	-0.015374
1.295	-0.015502
1.300	-0.015659
1.305	-0.015687
1.310	-0.015710
1.315	-0.015807
1.320	-0.015854
1.325	-0.015989
1.330	-0.016043
1.335	-0.016068
1.340	-0.016062
1.345	-0.016110
1.350	-0.016192
1.355	-0.016209
1.360	-0.016252
1.365	-0.016314
1.370	-0.016426
1.375	-0.016442
1.380	-0.016420
1.385	-0.016301
1.390	-0.016209
1.395	-0.016150
1.400	-0.016083
1.405	-0.015892
1.410	-0.015773
1.415	-0.015811
1.420	-0.015960
1.425	-0.015926
1.430	-0.015821
1.435	-0.015828
1.440	-0.016033
1.445	-0.016264
1.450	-0.016494
1.455	-0.016682
1.460	-0.016845
1.465	-0.016933
1.470	-0.016894
1.475	-0.016873
1.480	-0.017020
1.485	-0.017293
1.490	-0.017405
1.495	-0.017365
1.500	-0.017381
1.505	-0.017561
1.510	-0.017646
1.515	-0.017755
1.520	-0.017781
1.525	-0.017845
1.530	-0.017893
1.535	-0.017961
1.540	-0.018041
1.545	-0.018149
1.550	-0.018264
1.555	-0.018372
1.560	-0.018533
1.565	-0.018583
1.570	-0.018638
1.575	-0.018655
1.580	-0.018715
1.585	-0.018718
1.590	-0.018671
1.595	-0.018596
1.600	-0.018516
1.605	-0.018393
1.610	-0.018320
1.615	-0.018297
1.620	-0.018226
1.625	-0.018107
1.630	-0.018089
1.635	-0.018078
1.640	-0.018122
1.645	-0.018239
1.650	-0.018272
1.655	-0.018329
1.660	-0.018429
1.665	-0.018496
1.670	-0.018606
1.675	-0.018637
1.680	-0.018613
1.685	-0.018648
1.690	-0.018641
1.695	-0.018732
1.700	-0.018842
1.705	-0.019008
1.710	-0.019226
1.715	-0.019348
1.720	-0.019228
1.725	-0.018976
1.730	-0.018672
1.735	-0.018576
1.740	-0.018649
1.745	-0.018958
1.750	-0.019258
1.755	-0.019438
1.760	-0.019427
1.765	-0.019248
1.770	-0.019117
1.775	-0.019248
1.780	-0.019552
1.785	-0.019827
1.790	-0.019793
1.795	-0.019467
1.800	-0.019001
1.805	-0.018550
1.810	-0.018309
1.815	-0.018262
1.820	-0.018281
1.825	-0.018358
1.830	-0.018528
1.835	-0.018672
1.840	-0.018793
1.845	-0.018840
1.850	-0.018939
1.855	-0.019131
1.860	-0.019321
1.865	-0.019351
1.870	-0.019231
1.875	-0.019123
1.880	-0.019126
1.885	-0.019148
1.890	-0.019188
1.895	-0.019256
1.900	-0.019338
1.905	-0.019448
1.910	-0.019526
1.915	-0.019595
1.920	-0.019670
1.925	-0.019793
1.930	-0.019890
1.935	-0.020000
1.940	-0.020111
1.945	-0.020228
1.950	-0.020192
1.955	-0.020215
1.960	-0.020198
1.965	-0.020204
1.970	-0.020225
1.975	-0.020140
1.980	-0.020021
1.985	-0.020042
1.990	-0.020058
1.995	-0.020059
2.000	-0.020024
2.005	-0.019891
2.010	-0.019813
2.015	-0.019826
2.020	-0.019818
2.025	-0.019821
2.030	-0.019845
2.035	-0.019822
2.040	-0.019826
2.045	-0.019877
2.050	-0.019962
2.055	-0.019966
2.060	-0.019907
2.065	-0.019980
2.070	-0.019989
2.075	-0.019999
2.080	-0.019999
2.085	-0.020113
2.090	-0.020208
2.095	-0.020230
2.100	-0.020231
2.105	-0.020242
2.110	-0.020109
2.115	-0.019917
2.120	-0.019844
2.125	-0.019794
2.130	-0.019762
2.135	-0.019641
2.140	-0.019537
2.145	-0.019549
2.150	-0.019677
2.155	-0.019734
2.160	-0.019681
2.165	-0.019595
2.170	-0.019702
2.175	-0.019633
2.180	-0.019603
2.185	-0.019586
2.190	-0.019674
2.195	-0.019661
2.200	-0.019515
2.205	-0.019420
2.210	-0.019463
2.215	-0.019566
2.220	-0.019687
2.225	-0.019723
2.230	-0.019527
2.235	-0.019296
2.240	-0.019242
2.245	-0.019457
2.250	-0.019679
2.255	-0.019716
2.260	-0.019604
2.265	-0.019569
2.270	-0.019680
2.275	-0.019823
2.280	-0.019930
2.285	-0.019914
2.290	-0.019769
2.295	-0.019781
2.300	-0.019907
2.305	-0.020045
2.310	-0.020169
2.315	-0.020248
2.320	-0.020266
2.325	-0.020151
2.330	-0.019908
2.335	-0.019766
2.340	-0.019695
2.345	-0.019619
2.350	-0.019582
2.355	-0.019591
2.360	-0.019571
2.365	-0.019551
2.370	-0.019583
2.375	-0.019654
2.380	-0.019778
2.385	-0.019803
2.390	-0.019703
2.395	-0.019600
2.400	-0.019586
2.405	-0.019629
2.410	-0.019483
2.415	-0.019214
2.420	-0.019142
2.425	-0.019195
2.430	-0.019222
2.435	-0.019210
2.440	-0.019184
2.445	-0.019030
2.450	-0.018920
2.455	-0.018826
2.460	-0.018776
2.465	-0.018745
2.470	-0.018703
2.475	-0.018658
2.480	-0.018631
2.485	-0.018599
2.490	-0.018574
2.495	-0.018551
2.500	-0.018596
2.505	-0.018681
2.510	-0.018782
2.515	-0.018808
2.520	-0.018789
2.525	-0.018767
2.530	-0.018744
2.535	-0.018702
2.540	-0.018700
2.545	-0.018590
2.550	-0.018465
2.555	-0.018370
2.560	-0.018411
2.565	-0.018440
2.570	-0.018377
2.575	-0.018235
2.580	-0.018121
2.585	-0.018096
2.590	-0.018059
2.595	-0.018074
2.600	-0.018097
2.605	-0.018096
2.610	-0.018164
2.615	-0.018199
2.620	-0.018285
2.625	-0.018270
2.630	-0.018223
2.635	-0.018135
2.640	-0.018128
2.645	-0.018048
2.650	-0.017983
2.655	-0.017877
2.660	-0.017804
2.665	-0.017771
2.670	-0.017635
2.675	-0.017517
2.680	-0.017336
2.685	-0.017193
2.690	-0.017098
2.695	-0.017042
2.700	-0.016975
2.705	-0.016898
2.710	-0.016855
2.715	-0.016755
2.720	-0.016611
2.725	-0.016523
2.730	-0.016378
2.735	-0.016312
2.740	-0.016193
2.745	-0.016103
2.750	-0.015998
2.755	-0.015993
2.760	-0.015900
2.765	-0.015835
2.770	-0.015787
2.775	-0.015812
2.780	-0.015892
2.785	-0.015948
2.790	-0.015916
2.795	-0.015766
2.800	-0.015548
2.805	-0.015556
2.810	-0.015633
2.815	-0.015608
2.820	-0.015632
2.825	-0.015652
2.830	-0.015696
2.835	-0.015594
2.840	-0.015491
2.845	-0.015399
2.850	-0.015298
2.855	-0.015251
2.860	-0.015302
2.865	-0.015285
2.870	-0.015095
2.875	-0.014873
2.880	-0.014704
2.885	-0.014613
2.890	-0.014501
2.895	-0.014417
2.900	-0.014340
2.905	-0.014234
2.910	-0.014196
2.915	-0.014257
2.920	-0.014214
2.925	-0.014143
2.930	-0.014009
2.935	-0.013893
2.940	-0.013664
2.945	-0.013560
2.950	-0.013446
2.955	-0.013295
2.960	-0.013179
2.965	-0.013117
2.970	-0.013105
2.975	-0.013017
2.980	-0.013024
2.985	-0.012950
2.990	-0.012814
2.995	-0.012738
3.000	-0.012702
3.005	-0.012695
3.010	-0.012564
3.015	-0.012374
3.020	-0.012227
3.025	-0.012144
3.030	-0.012101
3.035	-0.012053
3.040	-0.012033
3.045	-0.011937
3.050	-0.011702
3.055	-0.011577
3.060	-0.011587
3.065	-0.011669
3.070	-0.011575
3.075	-0.011443
3.080	-0.011371
3.085	-0.011356
3.090	-0.011319
3.095	-0.011176
3.100	-0.011070
3.105	-0.011051
3.110	-0.011044
3.115	-0.010976
3.120	-0.010852
3.125	-0.010806
3.130	-0.010721
3.135	-0.010688
3.140	-0.010689
3.145	-0.010652
3.150	-0.010477
3.155	-0.010263
3.160	-0.010112
3.165	-0.010008
3.170	-0.009958
3.175	-0.009872
3.180	-0.009787
3.185	-0.009661
3.190	-0.009528
3.195	-0.009405
3.200	-0.009253
3.205	-0.009120
3.210	-0.008983
3.215	-0.008935
3.220	-0.008920
3.225	-0.008907
3.230	-0.008914
3.235	-0.008892
3.240	-0.008911
3.245	-0.008903
3.250	-0.008896
3.255	-0.008858
3.260	-0.008887
3.265	-0.008865
3.270	-0.008994
3.275	-0.009057
3.280	-0.009175
3.285	-0.009375
3.290	-0.009609
3.295	-0.009878
3.300	-0.010152
3.305	-0.010303
3.310	-0.010520
3.315	-0.010848
3.320	-0.011138
3.325	-0.011220
3.330	-0.011189
3.335	-0.011064
3.340	-0.010765
3.345	-0.010371
3.350	-0.009813
3.355	-0.009125
3.360	-0.008285
3.365	-0.007393
3.370	-0.006266
3.375	-0.004850
3.380	-0.003336
3.385	-0.002027
3.390	-0.001042
3.395	-0.000437
3.400	-0.000135
3.405	-0.000120
3.410	-0.000210
3.415	-0.000265
3.420	-0.000457
3.425	-0.000678
3.430	-0.000864
3.435	-0.000699
3.440	-0.000520
3.445	-0.000451
3.450	-0.000375
3.455	-0.000210
3.460	-0.000003
3.465	0.000334
3.470	0.000726
3.475	0.001166
3.480	0.001710
3.485	0.002317
3.490	0.002904
3.495	0.003491
3.500	0.004139
3.505	0.004791
3.510	0.005455
3.515	0.006100
3.520	0.006789
3.525	0.007417
3.530	0.007985
3.535	0.008511
3.540	0.008964
3.545	0.009396
3.550	0.009877
3.555	0.010255
3.560	0.010638
3.565	0.010935
3.570	0.011219
3.575	0.011397
3.580	0.011538
3.585	0.011678
3.590	0.011865
3.595	0.012054
3.600	0.012217
3.605	0.012347
3.610	0.012473
3.615	0.012570
3.620	0.012700
3.625	0.012824
3.630	0.012968
3.635	0.013097
3.640	0.013180
3.645	0.013343
3.650	0.013448
3.655	0.013558
3.660	0.013635
3.665	0.013728
3.670	0.013877
3.675	0.014043
3.680	0.014188
3.685	0.014371
3.690	0.014497
3.695	0.014669
3.700	0.014819
3.705	0.014919
3.710	0.015108
3.715	0.015210
3.720	0.015434
3.725	0.015607
3.730	0.015789
3.735	0.015941
3.740	0.016099
3.745	0.016360
3.750	0.016558
3.755	0.016800
3.760	0.017023
3.765	0.017280
3.770	0.017454
3.775	0.017675
3.780	0.017873
3.785	0.018144
3.790	0.018362
3.795	0.018600
3.800	0.018874
3.805	0.019140
3.810	0.019401
3.815	0.019708
3.820	0.020073
3.825	0.020384
3.830	0.020726
3.835	0.021021
3.840	0.021343
3.845	0.021669
3.850	0.022069
3.855	0.022449
3.860	0.022835
3.865	0.023220
3.870	0.023580
3.875	0.023984
3.880	0.024445
3.885	0.024846
3.890	0.025276
3.895	0.025734
3.900	0.026185
3.905	0.026669
3.910	0.027160
3.915	0.027722
3.920	0.028315
3.925	0.028975
3.930	0.029663
3.935	0.030380
3.940	0.031109
3.945	0.031952
3.950	0.032845
3.955	0.033830
3.960	0.034889
3.965	0.036068
3.970	0.037427
3.975	0.038893
3.980	0.040593
3.985	0.042502
3.990	0.044604
3.995	0.046951
4.000	0.049616
4.005	0.052396
4.010	0.055254
4.015	0.058045
4.020	0.060545
4.025	0.062711
4.030	0.064410
4.035	0.065476
4.040	0.065867
4.045	0.065351
4.050	0.063826
4.055	0.061309
4.060	0.057723
4.065	0.052953
4.070	0.046659
4.075	0.039076
4.080	0.030839
4.085	0.022491
4.090	0.014489
4.095	0.007659
4.100	0.002281
4.105	-0.001459
4.110	-0.003872
4.115	-0.005353
4.120	-0.006257
4.125	-0.006851
4.130	-0.007270
4.135	-0.007530
4.140	-0.007744
4.145	-0.007960
4.150	-0.008139
4.155	-0.008311
4.160	-0.008469
4.165	-0.008647
4.170	-0.008729
4.175	-0.008757
4.180	-0.008819
4.185	-0.008849
4.190	-0.008798
4.195	-0.008758
4.200	-0.008797
4.205	-0.008817
4.210	-0.008837
4.215	-0.008891
4.220	-0.008848
4.225	-0.008883
4.230	-0.008938
4.235	-0.008947
4.240	-0.008921
4.245	-0.008944
4.250	-0.008936
4.255	-0.008959
4.260	-0.009036
4.265	-0.009103
4.270	-0.009072
4.275	-0.009134
4.280	-0.009141
4.285	-0.009135
4.290	-0.009163
4.295	-0.009294
4.300	-0.009321
4.305	-0.009371
4.310	-0.009372
4.315	-0.009421
4.320	-0.009505
4.325	-0.009552
4.330	-0.009585
4.335	-0.009624
4.340	-0.009660
4.345	-0.009661
4.350	-0.009640
4.355	-0.009607
4.360	-0.009629
4.365	-0.009656
4.370	-0.009716
4.375	-0.009783
4.380	-0.009857
4.385	-0.009871
4.390	-0.009833
4.395	-0.009800
4.400	-0.009807
4.405	-0.009895
4.410	-0.009997
4.415	-0.010059
4.420	-0.010155
4.425	-0.010210
4.430	-0.010285
4.435	-0.010359
4.440	-0.010316
4.445	-0.010310
4.450	-0.010407
4.455	-0.010437
4.460	-0.010435
4.465	-0.010426
4.470	-0.010398
4.475	-0.010398
4.480	-0.010486
4.485	-0.010609
4.490	-0.010716
4.495	-0.010772
4.500	-0.010897
4.505	-0.010953
4.510	-0.010971
4.515	-0.010991
4.520	-0.011029
4.525	-0.011066
4.530	-0.011176
4.535	-0.011261
4.540	-0.011322
4.545	-0.011295
4.550	-0.011330
4.555	-0.011383
4.560	-0.011389
4.565	-0.011410
4.570	-0.011464
4.575	-0.011493
4.580	-0.011418
4.585	-0.011309
4.590	-0.010904
4.595	-0.010334
4.600	-0.010771
4.605	-0.012382
4.610	-0.013273
4.615	-0.012641
4.620	-0.011875
4.625	-0.011685
4.630	-0.011672
4.635	-0.011789
4.640	-0.011934
4.645	-0.012085
4.650	-0.012230
4.655	-0.012302
4.660	-0.012441
4.665	-0.012579
4.670	-0.012746
4.675	-0.012857
4.680	-0.012891
4.685	-0.012912
4.690	-0.012937
4.695	-0.012875
4.700	-0.012860
4.705	-0.012861
4.710	-0.012911
4.715	-0.012950
4.720	-0.013030
4.725	-0.013080
4.730	-0.013169
4.735	-0.013251
4.740	-0.013279
4.745	-0.013334
4.750	-0.013409
4.755	-0.013473
4.760	-0.013595
4.765	-0.013658
4.770	-0.013699
4.775	-0.013774
4.780	-0.013833
4.785	-0.013967
4.790	-0.014129
4.795	-0.014225
4.800	-0.014318
4.805	-0.014389
4.810	-0.014424
4.815	-0.014588
4.820	-0.014665
4.825	-0.014811
4.830	-0.014965
4.835	-0.015042
4.840	-0.015084
4.845	-0.015112
4.850	-0.015186
4.855	-0.015233
4.860	-0.015313
4.865	-0.015317
4.870	-0.015300
4.875	-0.015308
4.880	-0.015203
4.885	-0.015250
4.890	-0.015670
4.895	-0.015991
4.900	-0.016076
4.905	-0.016044
4.910	-0.016028
4.915	-0.016041
4.920	-0.016067
4.925	-0.016178
4.930	-0.016285
4.935	-0.016422
4.940	-0.016501
4.945	-0.016623
4.950	-0.016823
4.955	-0.016936
4.960	-0.017169
4.965	-0.017365
4.970	-0.017640
4.975	-0.017830
4.980	-0.017895
4.985	-0.018026
4.990	-0.018137
4.995	-0.018306
5.000	-0.018448
5.005	-0.018587
5.010	-0.018724
5.015	-0.018913
5.020	-0.019086
5.025	-0.019267
5.030	-0.019459
5.035	-0.019597
5.040	-0.019764
5.045	-0.019909
5.050	-0.020153
5.055	-0.020459
5.060	-0.020687
5.065	-0.020922
5.070	-0.021084
5.075	-0.021140
5.080	-0.021272
5.085	-0.021447
5.090	-0.021589
5.095	-0.021818
5.100	-0.022010
5.105	-0.022214
5.110	-0.022444
5.115	-0.022713
5.120	-0.023023
5.125	-0.023300
5.130	-0.023560
5.135	-0.023806
5.140	-0.024033
5.145	-0.024318
5.150	-0.024610
5.155	-0.024977
5.160	-0.025385
5.165	-0.025819
5.170	-0.026283
5.175	-0.026723
5.180	-0.027188
5.185	-0.027625
5.190	-0.028102
5.195	-0.028570
5.200	-0.029054
5.205	-0.029511
5.210	-0.030026
5.215	-0.030567
5.220	-0.031169
5.225	-0.031757
5.230	-0.032425
5.235	-0.032995
5.240	-0.033652
5.245	-0.034417
5.250	-0.035207
5.255	-0.036117
5.260	-0.037086
5.265	-0.038041
5.270	-0.039064
5.275	-0.040215
5.280	-0.041468
5.285	-0.042977
5.290	-0.044724
5.295	-0.046803
5.300	-0.049089
5.305	-0.051648
5.310	-0.054296
5.315	-0.057151
5.320	-0.059690
5.325	-0.062143
5.330	-0.064075
5.335	-0.065173
5.340	-0.066119
5.345	-0.066141
5.350	-0.065255
5.355	-0.064014
5.360	-0.061430
5.365	-0.056995
5.370	-0.052087
5.375	-0.047105
5.380	-0.040636
5.385	-0.032015
5.390	-0.022231
5.395	-0.013477
5.400	-0.007109
5.405	-0.003036
5.410	-0.000716
5.415	0.000468
5.420	0.000983
5.425	0.001155
5.430	0.001244
5.435	0.001272
5.440	0.001320
5.445	0.001299
5.450	0.001306
5.455	0.001307
5.460	0.001280
5.465	0.001265
5.470	0.001265
5.475	0.001258
5.480	0.001244
5.485	0.001230
5.490	0.001223
5.495	0.001237
5.500	0.001203
5.505	0.001217
5.510	0.001196
5.515	0.001224
5.520	0.001203
5.525	0.001197
5.530	0.001196
5.535	0.001244
5.540	0.001196
5.545	0.001182
5.550	0.001224
5.555	0.001224
5.560	0.001183
5.565	0.001183
5.570	0.001196
5.575	0.001176
5.580	0.001183
5.585	0.001170
5.590	0.001177
5.595	0.001184
5.600	0.001169
5.605	0.001224
5.610	0.001203
5.615	0.001266
5.620	0.001314
5.625	0.001348
5.630	0.001396
5.635	0.001506
5.640	0.001610
5.645	0.001672
5.650	0.001830
5.655	0.001969
5.660	0.002100
5.665	0.002237
5.670	0.002361
5.675	0.002492
5.680	0.002575
5.685	0.002693
5.690	0.002776
5.695	0.002797
5.700	0.002818
5.705	0.002791
5.710	0.002722
5.715	0.002625
5.720	0.002579
5.725	0.002455
5.730	0.002364
5.735	0.002233
5.740	0.002143
5.745	0.001985
5.750	0.001895
5.755	0.001805
5.760	0.001736
5.765	0.001681
5.770	0.001605
5.775	0.001549
5.780	0.001522
5.785	0.001475
5.790	0.001468
5.795	0.001474
5.800	0.001432
5.805	0.001459
5.810	0.001445
5.815	0.001486
5.820	0.001466
5.825	0.001459
5.830	0.001431
5.835	0.001473
5.840	0.001438
5.845	0.001452
5.850	0.001431
5.855	0.001419
5.860	0.001446
5.865	0.001459
5.870	0.001458
5.875	0.001485
5.880	0.001493
5.885	0.001507
5.890	0.001528
5.895	0.001473
5.900	0.001508
5.905	0.001522
5.910	0.001509
5.915	0.001524
5.920	0.001498
5.925	0.001534
5.930	0.001527
5.935	0.001520
5.940	0.001562
5.945	0.001556
5.950	0.001611
5.955	0.001605
5.960	0.001618
5.965	0.001632
5.970	0.001625
5.975	0.001638
5.980	0.001638
5.985	0.001666
5.990	0.001645
5.995	0.001665
6.000	0.001649
6.005	0.001690
6.010	0.001668
6.015	0.001654
6.020	0.001674
6.025	0.001673
6.030	0.001666
6.035	0.001666
6.040	0.001672
6.045	0.001686
6.050	0.001713
6.055	0.001680
6.060	0.001693
6.065	0.001685
6.070	0.001692
6.075	0.001713
6.080	0.001700
6.085	0.001720
6.090	0.001733
6.095	0.001713
6.100	0.001733
6.105	0.001705
6.110	0.001719
6.115	0.001740
6.120	0.001706
6.125	0.001741
6.130	0.001754
6.135	0.001740
6.140	0.001767
6.145	0.001788
6.150	0.001774
6.155	0.001733
6.160	0.001774
6.165	0.001788
6.170	0.001781
6.175	0.001760
6.180	0.001760
6.185	0.001761
6.190	0.001769
6.195	0.001761
6.200	0.001774
6.205	0.001801
6.210	0.001753
6.215	0.001801
6.220	0.001788
6.225	0.001802
6.230	0.001801
6.235	0.001787
6.240	0.001808
6.245	0.001801
6.250	0.001808
6.255	0.001810
6.260	0.001844
6.265	0.001781
6.270	0.001835
6.275	0.001842
6.280	0.001828
6.285	0.001863
6.290	0.001843
6.295	0.001870
6.300	0.001842
6.305	0.001842
6.310	0.001849
6.315	0.001842
6.320	0.001844
6.325	0.001858
6.330	0.001863
6.335	0.001870
6.340	0.001883
6.345	0.001877
6.350	0.001863
6.355	0.001904
6.360	0.001897
6.365	0.001897
6.370	0.001910
6.375	0.001904
6.380	0.001890
6.385	0.001911
6.390	0.001926
6.395	0.001926
6.400	0.001911
6.405	0.001931
6.410	0.001910
6.415	0.001938
6.420	0.001958
6.425	0.001931
6.430	0.001903
6.435	0.001951
6.440	0.001938
6.445	0.001917
6.450	0.001930
6.455	0.001946
6.460	0.001925
6.465	0.001958
6.470	0.001944
6.475	0.001944
6.480	0.001951
6.485	0.001951
6.490	0.001958
6.495	0.001978
6.500	0.001957
6.505	0.001964
6.510	0.001984
6.515	0.001964
6.520	0.001972
6.525	0.002000
6.530	0.001999
6.535	0.002005
6.540	0.001984
6.545	0.002026
6.550	0.002013
6.555	0.002019
6.560	0.002033
6.565	0.002012
6.570	0.002005
6.575	0.002005
6.580	0.001984
6.585	0.002005
6.590	0.001999
6.595	0.002040
6.600	0.002024
6.605	0.002024
6.610	0.002031
6.615	0.002045
6.620	0.002031
6.625	0.002079
6.630	0.002052
6.635	0.002051
6.640	0.002092
6.645	0.002058
6.650	0.002071
6.655	0.002093
6.660	0.002072
6.665	0.002105
6.670	0.002125
6.675	0.002139
6.680	0.002152
6.685	0.002139
6.690	0.002139
6.695	0.002139
6.700	0.002132
6.705	0.002152
6.710	0.002159
6.715	0.002180
6.720	0.002188
6.725	0.002181
6.730	0.002215
6.735	0.002221
6.740	0.002235
6.745	0.002229
6.750	0.002215
6.755	0.002229
6.760	0.002216
6.765	0.002244
6.770	0.002229
6.775	0.002229
6.780	0.002291
6.785	0.002272
6.790	0.002245
6.795	0.002238
6.800	0.002236
6.805	0.002250
6.810	0.002243
6.815	0.002243
6.820	0.002222
6.825	0.002209
6.830	0.002229
6.835	0.002202
6.840	0.002201
6.845	0.002181
6.850	0.002202
6.855	0.002183
6.860	0.002196
6.865	0.002195
6.870	0.002181
6.875	0.002195
6.880	0.002161
6.885	0.002195
6.890	0.002202
6.895	0.002201
6.900	0.002215
6.905	0.002187
6.910	0.002214
6.915	0.002180
6.920	0.002174
6.925	0.002208
6.930	0.002242
6.935	0.002220
6.940	0.002261
6.945	0.002275
6.950	0.002247
6.955	0.002220
6.960	0.002254
6.965	0.002267
6.970	0.002247
6.975	0.002254
6.980	0.002260
6.985	0.002255
6.990	0.002255
6.995	0.002275
7.000	0.002288
7.005	0.002281
7.010	0.002295
7.015	0.002309
7.020	0.002316
7.025	0.002309
7.030	0.002316
7.035	0.002323
7.040	0.002322
7.045	0.002302
7.050	0.002302
7.055	0.002338
7.060	0.002344
7.065	0.002337
7.070	0.002384
7.075	0.002364
7.080	0.002364
7.085	0.002384
7.090	0.002384
7.095	0.002378
7.100	0.002377
7.105	0.002412
7.110	0.002364
7.115	0.002398
7.120	0.002407
7.125	0.002434
7.130	0.002440
7.135	0.002439
7.140	0.002460
7.145	0.002426
7.150	0.002475
7.155	0.002462
7.160	0.002461
7.165	0.002475
7.170	0.002468
7.175	0.002468
7.180	0.002475
7.185	0.002462
7.190	0.002463
7.195	0.002477
7.200	0.002469
7.205	0.002469
7.210	0.002496
7.215	0.002483
7.220	0.002490
7.225	0.002490
7.230	0.002476
7.235	0.002449
7.240	0.002483
7.245	0.002497
7.250	0.002484
7.255	0.002500
7.260	0.002505
7.265	0.002511
7.270	0.002511
7.275	0.002546
7.280	0.002512
7.285	0.002540
7.290	0.002547
7.295	0.002574
7.300	0.002567
7.305	0.002595
7.310	0.002581
7.315	0.002594
7.320	0.002562
7.325	0.002610
7.330	0.002630
7.335	0.002636
7.340	0.002649
7.345	0.002650
7.350	0.002657
7.355	0.002636
7.360	0.002664
7.365	0.002670
7.370	0.002663
7.375	0.002670
7.380	0.002691
7.385	0.002720
7.390	0.002700
7.395	0.002720
7.400	0.002740
7.405	0.002713
7.410	0.002740
7.415	0.002754
7.420	0.002727
7.425	0.002748
7.430	0.002761
7.435	0.002775
7.440	0.002789
7.445	0.002788
7.450	0.002790
7.455	0.002832
7.460	0.002790
7.465	0.002795
7.470	0.002816
7.475	0.002823
7.480	0.002837
7.485	0.002857
7.490	0.002864
7.495	0.002871
7.500	0.002857
7.505	0.002892
7.510	0.002898
7.515	0.002913
7.520	0.002928
7.525	0.002900
7.530	0.002906
7.535	0.002905
7.540	0.002934
7.545	0.002941
7.550	0.002948
7.555	0.002962
7.560	0.002956
7.565	0.002942
7.570	0.002935
7.575	0.002936
7.580	0.002956
7.585	0.002965
7.590	0.002987
7.595	0.002980
7.600	0.002986
7.605	0.003013
7.610	0.003040
7.615	0.003027
7.620	0.003081
7.625	0.003045
7.630	0.003044
7.635	0.003071
7.640	0.003077
7.645	0.003056
7.650	0.003104
7.655	0.003097
7.660	0.003109
7.665	0.003087
7.670	0.003149
7.675	0.003081
7.680	0.003149
7.685	0.003136
7.690	0.003142
7.695	0.003121
7.700	0.003169
7.705	0.003156
7.710	0.003128
7.715	0.003121
7.720	0.003185
7.725	0.003158
7.730	0.003157
7.735	0.003130
7.740	0.003123
7.745	0.003090
7.750	0.003029
7.755	0.003016
7.760	0.003023
7.765	0.002969
7.770	0.002950
7.775	0.002943
7.780	0.002963
7.785	0.003019
7.790	0.003065
7.795	0.003132
7.800	0.003212
7.805	0.003246
7.810	0.003293
7.815	0.003313
7.820	0.003319
7.825	0.003346
7.830	0.003374
7.835	0.003381
7.840	0.003367
7.845	0.003380
7.850	0.003388
7.855	0.003417
7.860	0.003403
7.865	0.003422
7.870	0.003476
7.875	0.003449
7.880	0.003504
7.885	0.003497
7.890	0.003504
7.895	0.003510
7.900	0.003497
7.905	0.003545
7.910	0.003511
7.915	0.003538
7.920	0.003540
7.925	0.003533
7.930	0.003558
7.935	0.003620
7.940	0.003620
7.945	0.003641
7.950	0.003634
7.955	0.003634
7.960	0.003613
7.965	0.003668
7.970	0.003647
7.975	0.003674
7.980	0.003674
7.985	0.003676
7.990	0.003710
7.995	0.003716
8.000	0.003708
8.005	0.003729
8.010	0.003755
8.015	0.003741
8.020	0.003756
8.025	0.003811
8.030	0.003803
8.035	0.003804
8.040	0.003776
8.045	0.003844
8.050	0.003818
8.055	0.003847
8.060	0.003867
8.065	0.003865
8.070	0.003885
8.075	0.003920
8.080	0.003920
8.085	0.003934
8.090	0.003934
8.095	0.003975
8.100	0.003955
8.105	0.003961
8.110	0.003968
8.115	0.003975
8.120	0.003997
8.125	0.004011
8.130	0.004023
8.135	0.004036
8.140	0.004057
8.145	0.004050
8.150	0.004084
8.155	0.004104
8.160	0.004111
8.165	0.004118
8.170	0.004152
8.175	0.004118
8.180	0.004166
8.185	0.004175
8.190	0.004182
8.195	0.004222
8.200	0.004200
8.205	0.004263
8.210	0.004228
8.215	0.004270
8.220	0.004297
8.225	0.004325
8.230	0.004338
8.235	0.004311
8.240	0.004358
8.245	0.004358
8.250	0.004360
8.255	0.004409
8.260	0.004442
8.265	0.004420
8.270	0.004427
8.275	0.004455
8.280	0.004490
8.285	0.004524
8.290	0.004503
8.295	0.004524
8.300	0.004545
8.305	0.004579
8.310	0.004572
8.315	0.004574
8.320	0.004603
8.325	0.004644
8.330	0.004649
8.335	0.004663
8.340	0.004697
8.345	0.004698
8.350	0.004692
8.355	0.004740
8.360	0.004754
8.365	0.004768
8.370	0.004781
8.375	0.004795
8.380	0.004829
8.385	0.004839
8.390	0.004860
8.395	0.004879
8.400	0.004892
8.405	0.004926
8.410	0.004933
8.415	0.004906
8.420	0.004934
8.425	0.004948
8.430	0.004997
8.435	0.004990
8.440	0.005016
8.445	0.005052
8.450	0.005054
8.455	0.005069
8.460	0.005101
8.465	0.005127
8.470	0.005148
8.475	0.005184
8.480	0.005206
8.485	0.005201
8.490	0.005238
8.495	0.005226
8.500	0.005298
8.505	0.005272
8.510	0.005291
8.515	0.005319
8.520	0.005326
8.525	0.005351
8.530	0.005403
8.535	0.005429
8.540	0.005469
8.545	0.005483
8.550	0.005510
8.555	0.005502
8.560	0.005537
8.565	0.005591
8.570	0.005597
8.575	0.005618
8.580	0.005640
8.585	0.005684
8.590	0.005684
8.595	0.005717
8.600	0.005722
8.605	0.005785
8.610	0.005813
8.615	0.005863
8.620	0.005863
8.625	0.005890
8.630	0.005931
8.635	0.005926
8.640	0.005979
8.645	0.006009
8.650	0.005983
8.655	0.006053
8.660	0.006073
8.665	0.006091
8.670	0.006181
8.675	0.006182
8.680	0.006244
8.685	0.006245
8.690	0.006265
8.695	0.006315
8.700	0.006335
8.705	0.006369
8.710	0.006408
8.715	0.006437
8.720	0.006453
8.725	0.006499
8.730	0.006516
8.735	0.006564
8.740	0.006580
8.745	0.006614
8.750	0.006684
8.755	0.006673
8.760	0.006694
8.765	0.006719
8.770	0.006759
8.775	0.006820
8.780	0.006862
8.785	0.006886
8.790	0.006914
8.795	0.006974
8.800	0.007034
8.805	0.007076
8.810	0.007089
8.815	0.007173
8.820	0.007195
8.825	0.007243
8.830	0.007299
8.835	0.007326
8.840	0.007361
8.845	0.007423
8.850	0.007467
8.855	0.007496
8.860	0.007550
8.865	0.007597
8.870	0.007639
8.875	0.007674
8.880	0.007706
8.885	0.007784
8.890	0.007812
8.895	0.007866
8.900	0.007879
8.905	0.007928
8.910	0.007977
8.915	0.008014
8.920	0.008067
8.925	0.008100
8.930	0.008205
8.935	0.008245
8.940	0.008321
8.945	0.008376
8.950	0.008418
8.955	0.008461
8.960	0.008523
8.965	0.008572
8.970	0.008620
8.975	0.008708
8.980	0.008766
8.985	0.008839
8.990	0.008871
8.995	0.008971
9.000	0.009013
9.005	0.009150
9.010	0.009182
9.015	0.009209
9.020	0.009291
9.025	0.009370
9.030	0.009445
9.035	0.009534
9.040	0.009609
9.045	0.009680
9.050	0.009765
9.055	0.009864
9.060	0.009944
9.065	0.010046
9.070	0.010149
9.075	0.010252
9.080	0.010261
9.085	0.010357
9.090	0.010493
9.095	0.010589
9.100	0.010664
9.105	0.010755
9.110	0.010881
9.115	0.010958
9.120	0.011083
9.125	0.011184
9.130	0.011316
9.135	0.011428
9.140	0.011553
9.145	0.011657
9.150	0.011802
9.155	0.011892
9.160	0.012029
9.165	0.012156
9.170	0.012258
9.175	0.012363
9.180	0.012474
9.185	0.012660
9.190	0.012813
9.195	0.012934
9.200	0.013160
9.205	0.013286
9.210	0.013353
9.215	0.013527
9.220	0.013740
9.225	0.013994
9.230	0.014218
9.235	0.014434
9.240	0.014615
9.245	0.014874
9.250	0.015100
9.255	0.015340
9.260	0.015621
9.265	0.015883
9.270	0.016141
9.275	0.016469
9.280	0.016720
9.285	0.016991
9.290	0.017289
9.295	0.017638
9.300	0.017981
9.305	0.018343
9.310	0.018737
9.315	0.019114
9.320	0.019509
9.325	0.019916
9.330	0.020349
9.335	0.020777
9.340	0.021275
9.345	0.021795
9.350	0.022347
9.355	0.022983
9.360	0.023600
9.365	0.024303
9.370	0.025138
9.375	0.026028
9.380	0.027086
9.385	0.028358
9.390	0.029863
9.395	0.031639
9.400	0.033772
9.405	0.036056
9.410	0.038519
9.415	0.040974
9.420	0.043207
9.425	0.045192
9.430	0.046841
9.435	0.047840
9.440	0.048623
9.445	0.048757
9.450	0.048023
9.455	0.046298
9.460	0.043964
9.465	0.040965
9.470	0.036828
9.475	0.031273
9.480	0.024493
9.485	0.017340
9.490	0.010901
9.495	0.005858
9.500	0.002422
9.505	0.000397
9.510	-0.000742
9.515	-0.001273
9.520	-0.001598
9.525	-0.001708
9.530	-0.001791
9.535	-0.001853
9.540	-0.001901
9.545	-0.001894
9.550	-0.001922
9.555	-0.001922
9.560	-0.001963
9.565	-0.001963
9.570	-0.001929
9.575	-0.001998
9.580	-0.001963
9.585	-0.001957
9.590	-0.001943
9.595	-0.001977
9.600	-0.001970
9.605	-0.001984
9.610	-0.001991
9.615	-0.001984
9.620	-0.001991
9.625	-0.002005
9.630	-0.001998
9.635	-0.001998
9.640	-0.001970
9.645	-0.002032
9.650	-0.002019
9.655	-0.002005
9.660	-0.001998
9.665	-0.001998
9.670	-0.001977
9.675	-0.002005
9.680	-0.002005
9.685	-0.001978
9.690	-0.002005
9.695	-0.002019
9.700	-0.002054
9.705	-0.002006
9.710	-0.002006
9.715	-0.002026
9.720	-0.002027
9.725	-0.002013
9.730	-0.002019
9.735	-0.002061
9.740	-0.002040
9.745	-0.002006
9.750	-0.002013
9.755	-0.002006
9.760	-0.002006
9.765	-0.002027
9.770	-0.002047
9.775	-0.002034
9.780	-0.002006
9.785	-0.002054
9.790	-0.002020
9.795	-0.002054
9.800	-0.002075
9.805	-0.002048
9.810	-0.002061
9.815	-0.002041
9.820	-0.002062
9.825	-0.002062
9.830	-0.002055
9.835	-0.002048
9.840	-0.002041
9.845	-0.002048
9.850	-0.002069
9.855	-0.002062
9.860	-0.002062
9.865	-0.002034
9.870	-0.002021
9.875	-0.002055
9.880	-0.002055
9.885	-0.002042
9.890	-0.002062
9.895	-0.002097
9.900	-0.002076
9.905	-0.002076
9.910	-0.002049
9.915	-0.002056
9.920	-0.002084
9.925	-0.002049
9.930	-0.002069
9.935	-0.002076
9.940	-0.002077
9.945	-0.002035
9.950	-0.002063
9.955	-0.002042
9.960	-0.002063
9.965	-0.002070
9.970	-0.002063
9.975	-0.002070
9.980	-0.002098
9.985	-0.002084
9.990	-0.002119
9.995	-0.002070
10.000	-0.002091
10.005	-0.002077
10.010	-0.002091
10.015	-0.002077
10.020	-0.002057
10.025	-0.002064
10.030	-0.002077
10.035	-0.002084
10.040	-0.002105
10.045	-0.002085
10.050	-0.002099
10.055	-0.002092
10.060	-0.002106
10.065	-0.002091
10.070	-0.002098
10.075	-0.002105
10.080	-0.002092
10.085	-0.002085
10.090	-0.002078
10.095	-0.002113
10.100	-0.002092
10.105	-0.002120
10.110	-0.002099
10.115	-0.002092
10.120	-0.002099
10.125	-0.002113
10.130	-0.002106
10.135	-0.002099
10.140	-0.002092
10.145	-0.002092
10.150	-0.002106
10.155	-0.002113
10.160	-0.002113
10.165	-0.002099
10.170	-0.002106
10.175	-0.002106
10.180	-0.002120
10.185	-0.002079
10.190	-0.002121
10.195	-0.002141
10.200	-0.002113
10.205	-0.002127
10.210	-0.002141
10.215	-0.002155
10.220	-0.002141
10.225	-0.002155
10.230	-0.002134
10.235	-0.002134
10.240	-0.002134
10.245	-0.002155
10.250	-0.002100
10.255	-0.002134
10.260	-0.002148
10.265	-0.002141
10.270	-0.002134
10.275	-0.002134
10.280	-0.002203
10.285	-0.002176
10.290	-0.002120
10.295	-0.002169
10.300	-0.002210
10.305	-0.002175
10.310	-0.002168
10.315	-0.002183
10.320	-0.002190
10.325	-0.002162
10.330	-0.002169
10.335	-0.002183
10.340	-0.002176
10.345	-0.002189
10.350	-0.002148
10.355	-0.002203
10.360	-0.002162
10.365	-0.002176
10.370	-0.002203
10.375	-0.002190
10.380	-0.002190
10.385	-0.002183
10.390	-0.002210
10.395	-0.002224
10.400	-0.002196
10.405	-0.002238
10.410	-0.002210
10.415	-0.002217
10.420	-0.002196
10.425	-0.002224
10.430	-0.002224
10.435	-0.002196
10.440	-0.002224
10.445	-0.002231
10.450	-0.002204
10.455	-0.002232
10.460	-0.002204
10.465	-0.002224
10.470	-0.002224
10.475	-0.002238
10.480	-0.002238
10.485	-0.002238
10.490	-0.002245
10.495	-0.002217
10.500	-0.002286
10.505	-0.002265
10.510	-0.002293
10.515	-0.002259
10.520	-0.002273
10.525	-0.002273
10.530	-0.002238
10.535	-0.002286
10.540	-0.002286
10.545	-0.002245
10.550	-0.002287
10.555	-0.002266
10.560	-0.002252
10.565	-0.002266
10.570	-0.002279
10.575	-0.002293
10.580	-0.002252
10.585	-0.002259
10.590	-0.002266
10.595	-0.002287
10.600	-0.002293
10.605	-0.002252
10.610	-0.002273
10.615	-0.002252
10.620	-0.002259
10.625	-0.002307
10.630	-0.002307
10.635	-0.002300
10.640	-0.002301
10.645	-0.002300
10.650	-0.002322
10.655	-0.002322
10.660	-0.002308
10.665	-0.002287
10.670	-0.002314
10.675	-0.002322
10.680	-0.002315
10.685	-0.002280
10.690	-0.002315
10.695	-0.002342
10.700	-0.002308
10.705	-0.002322
10.710	-0.002349
10.715	-0.002329
10.720	-0.002329
10.725	-0.002315
10.730	-0.002308
10.735	-0.002308
10.740	-0.002308
10.745	-0.002322
10.750	-0.002342
10.755	-0.002322
10.760	-0.002370
10.765	-0.002329
10.770	-0.002363
10.775	-0.002342
10.780	-0.002377
10.785	-0.002357
10.790	-0.002336
10.795	-0.002363
10.800	-0.002343
10.805	-0.002343
10.810	-0.002350
10.815	-0.002343
10.820	-0.002384
10.825	-0.002357
10.830	-0.002370
10.835	-0.002391
10.840	-0.002357
10.845	-0.002405
10.850	-0.002371
10.855	-0.002357
10.860	-0.002405
10.865	-0.002364
10.870	-0.002371
10.875	-0.002391
10.880	-0.002371
10.885	-0.002378
10.890	-0.002385
10.895	-0.002371
10.900	-0.002378
10.905	-0.002405
10.910	-0.002405
10.915	-0.002399
10.920	-0.002378
10.925	-0.002399
10.930	-0.002385
10.935	-0.002406
10.940	-0.002406
10.945	-0.002371
10.950	-0.002434
10.955	-0.002413
10.960	-0.002455
10.965	-0.002434
10.970	-0.002399
10.975	-0.002434
10.980	-0.002441
10.985	-0.002414
10.990	-0.002420
10.995	-0.002441
11.000	-0.002427
11.005	-0.002406
11.010	-0.002406
11.015	-0.002441
11.020	-0.002420
11.025	-0.002427
11.030	-0.002434
11.035	-0.002427
11.040	-0.002434
11.045	-0.002448
11.050	-0.002421
11.055	-0.002428
11.060	-0.002441
11.065	-0.002462
11.070	-0.002428
11.075	-0.002421
11.080	-0.002442
11.085	-0.002462
11.090	-0.002449
11.095	-0.002449
11.100	-0.002463
11.105	-0.002449
11.110	-0.002463
11.115	-0.002484
11.120	-0.002456
11.125	-0.002470
11.130	-0.002463
11.135	-0.002470
11.140	-0.002442
11.145	-0.002470
11.150	-0.002463
11.155	-0.002484
11.160	-0.002477
11.165	-0.002511
11.170	-0.002484
11.175	-0.002470
11.180	-0.002477
11.185	-0.002519
11.190	-0.002485
11.195	-0.002463
11.200	-0.002491
11.205	-0.002484
11.210	-0.002471
11.215	-0.002471
11.220	-0.002478
11.225	-0.002491
11.230	-0.002485
11.235	-0.002471
11.240	-0.002485
11.245	-0.002505
11.250	-0.002478
11.255	-0.002506
11.260	-0.002506
11.265	-0.002512
11.270	-0.002499
11.275	-0.002512
11.280	-0.002485
11.285	-0.002512
11.290	-0.002512
11.295	-0.002547
11.300	-0.002561
11.305	-0.002526
11.310	-0.002526
11.315	-0.002527
11.320	-0.002548
11.325	-0.002534
11.330	-0.002540
11.335	-0.002527
11.340	-0.002540
11.345	-0.002520
11.350	-0.002527
11.355	-0.002540
11.360	-0.002561
11.365	-0.002548
11.370	-0.002527
11.375	-0.002561
11.380	-0.002534
11.385	-0.002541
11.390	-0.002541
11.395	-0.002561
11.400	-0.002527
11.405	-0.002520
11.410	-0.002520
11.415	-0.002534
11.420	-0.002548
11.425	-0.002568
11.430	-0.002555
11.435	-0.002548
11.440	-0.002541
11.445	-0.002547
11.450	-0.002569
11.455	-0.002562
11.460	-0.002534
11.465	-0.002547
11.470	-0.002568
11.475	-0.002541
11.480	-0.002568
11.485	-0.002568
11.490	-0.002548
11.495	-0.002568
11.500	-0.002555
11.505	-0.002575
11.510	-0.002589
11.515	-0.002555
11.520	-0.002569
11.525	-0.002610
11.530	-0.002555
11.535	-0.002541
11.540	-0.002569
11.545	-0.002583
11.550	-0.002590
11.555	-0.002583
11.560	-0.002596
11.565	-0.002638
11.570	-0.002576
11.575	-0.002583
11.580	-0.002583
11.585	-0.002597
11.590	-0.002618
11.595	-0.002617
11.600	-0.002610
11.605	-0.002590
11.610	-0.002611
11.615	-0.002562
11.620	-0.002624
11.625	-0.002583
11.630	-0.002611
11.635	-0.002610
11.640	-0.002604
11.645	-0.002611
11.650	-0.002625
11.655	-0.002597
11.660	-0.002597
11.665	-0.002604
11.670	-0.002611
11.675	-0.002597
11.680	-0.002632
11.685	-0.002639
11.690	-0.002625
11.695	-0.002638
11.700	-0.002673
11.705	-0.002659
11.710	-0.002653
11.715	-0.002618
11.720	-0.002639
11.725	-0.002646
11.730	-0.002625
11.735	-0.002646
11.740	-0.002639
11.745	-0.002653
11.750	-0.002632
11.755	-0.002660
11.760	-0.002632
11.765	-0.002688
11.770	-0.002667
11.775	-0.002660
11.780	-0.002646
11.785	-0.002674
11.790	-0.002661
11.795	-0.002639
11.800	-0.002674
11.805	-0.002632
11.810	-0.002660
11.815	-0.002667
11.820	-0.002639
11.825	-0.002681
11.830	-0.002667
11.835	-0.002667
11.840	-0.002674
11.845	-0.002674
11.850	-0.002682
11.855	-0.002668
11.860	-0.002654
11.865	-0.002660
11.870	-0.002688
11.875	-0.002674
11.880	-0.002668
11.885	-0.002668
11.890	-0.002654
11.895	-0.002695
11.900	-0.002661
11.905	-0.002702
11.910	-0.002695
11.915	-0.002716
11.920	-0.002703
11.925	-0.002696
11.930	-0.002688
11.935	-0.002695
11.940	-0.002668
11.945	-0.002702
11.950	-0.002696
11.955	-0.002709
11.960	-0.002689
11.965	-0.002709
11.970	-0.002723
11.975	-0.002703
11.980	-0.002724
11.985	-0.002703
11.990	-0.002717
11.995	-0.002696
12.000	-0.002737
12.005	-0.002717
12.010	-0.002717
12.015	-0.002689
12.020	-0.002689
12.025	-0.002717
12.030	-0.002724
12.035	-0.002738
12.040	-0.002738
12.045	-0.002731
12.050	-0.002724
12.055	-0.002766
12.060	-0.002745
12.065	-0.002752
12.070	-0.002752
12.075	-0.002772
12.080	-0.002724
12.085	-0.002710
12.090	-0.002759
12.095	-0.002758
12.100	-0.002779
12.105	-0.002779
12.110	-0.002759
12.115	-0.002787
12.120	-0.002773
12.125	-0.002745
12.130	-0.002758
12.135	-0.002759
12.140	-0.002759
12.145	-0.002759
12.150	-0.002800
12.155	-0.002779
12.160	-0.002745
12.165	-0.002772
12.170	-0.002779
12.175	-0.002814
12.180	-0.002800
12.185	-0.002759
12.190	-0.002807
12.195	-0.002793
12.200	-0.002786
12.205	-0.002745
12.210	-0.002786
12.215	-0.002800
12.220	-0.002793
12.225	-0.002807
12.230	-0.002800
12.235	-0.002807
12.240	-0.002793
12.245	-0.002821
12.250	-0.002807
12.255	-0.002800
12.260	-0.002807
12.265	-0.002793
12.270	-0.002834
12.275	-0.002834
12.280	-0.002814
12.285	-0.002786
12.290	-0.002862
12.295	-0.002848
12.300	-0.002828
12.305	-0.002821
12.310	-0.002841
12.315	-0.002828
12.320	-0.002828
12.325	-0.002855
12.330	-0.002868
12.335	-0.002862
12.340	-0.002834
12.345	-0.002855
12.350	-0.002848
12.355	-0.002875
12.360	-0.002848
12.365	-0.002834
12.370	-0.002896
12.375	-0.002875
12.380	-0.002869
12.385	-0.002883
12.390	-0.002869
12.395	-0.002854
12.400	-0.002861
12.405	-0.002868
12.410	-0.002861
12.415	-0.002868
12.420	-0.002896
12.425	-0.002896
12.430	-0.002868
12.435	-0.002896
12.440	-0.002910
12.445	-0.002910
12.450	-0.002889
12.455	-0.002917
12.460	-0.002875
12.465	-0.002896
12.470	-0.002937
12.475	-0.002895
12.480	-0.002916
12.485	-0.002923
12.490	-0.002909
12.495	-0.002937
12.500	-0.002909
12.505	-0.002944
12.510	-0.002916
12.515	-0.002923
12.520	-0.002910
12.525	-0.002964
12.530	-0.002930
12.535	-0.002923
12.540	-0.002950
12.545	-0.002957
12.550	-0.002937
12.555	-0.002950
12.560	-0.002944
12.565	-0.002971
12.570	-0.002950
12.575	-0.002950
12.580	-0.002971
12.585	-0.002958
12.590	-0.002958
12.595	-0.002936
12.600	-0.002964
12.605	-0.002957
12.610	-0.002971
12.615	-0.002957
12.620	-0.002964
12.625	-0.002991
12.630	-0.002971
12.635	-0.002991
12.640	-0.002985
12.645	-0.002998
12.650	-0.002992
12.655	-0.002985
12.660	-0.002978
12.665	-0.002950
12.670	-0.002957
12.675	-0.002971
12.680	-0.002978
12.685	-0.002985
12.690	-0.003005
12.695	-0.003005
12.700	-0.003047
12.705	-0.003033
12.710	-0.003012
12.715	-0.003012
12.720	-0.003047
12.725	-0.003006
12.730	-0.003019
12.735	-0.003012
12.740	-0.003026
12.745	-0.003033
12.750	-0.003012
12.755	-0.003046
12.760	-0.003053
12.765	-0.003026
12.770	-0.003046
12.775	-0.003053
12.780	-0.003081
12.785	-0.003012
12.790	-0.003047
12.795	-0.003046
12.800	-0.003039
12.805	-0.003060
12.810	-0.003019
12.815	-0.003053
12.820	-0.003081
12.825	-0.003039
12.830	-0.003053
12.835	-0.003074
12.840	-0.003074
12.845	-0.003046
12.850	-0.003061
12.855	-0.003054
12.860	-0.003060
12.865	-0.003060
12.870	-0.003067
12.875	-0.003087
12.880	-0.003074
12.885	-0.003081
12.890	-0.003095
12.895	-0.003108
12.900	-0.003088
12.905	-0.003115
12.910	-0.003088
12.915	-0.003102
12.920	-0.003095
12.925	-0.003088
12.930	-0.003101
12.935	-0.003102
12.940	-0.003095
12.945	-0.003115
12.950	-0.003102
12.955	-0.003122
12.960	-0.003088
12.965	-0.003122
12.970	-0.003115
12.975	-0.003108
12.980	-0.003095
12.985	-0.003144
12.990	-0.003095
12.995	-0.003101
13.000	-0.003136
13.005	-0.003143
13.010	-0.003115
13.015	-0.003102
13.020	-0.003143
13.025	-0.003143
13.030	-0.003136
13.035	-0.003156
13.040	-0.003143
13.045	-0.003157
13.050	-0.003144
13.055	-0.003143
13.060	-0.003150
13.065	-0.003129
13.070	-0.003150
13.075	-0.003095
13.080	-0.003164
13.085	-0.003157
13.090	-0.003185
13.095	-0.003164
13.100	-0.003212
13.105	-0.003164
13.110	-0.003157
13.115	-0.003165
13.120	-0.003172
13.125	-0.003185
13.130	-0.003178
13.135	-0.003199
13.140	-0.003157
13.145	-0.003212
13.150	-0.003178
13.155	-0.003199
13.160	-0.003185
13.165	-0.003192
13.170	-0.003199
13.175	-0.003185
13.180	-0.003213
13.185	-0.003179
13.190	-0.003199
13.195	-0.003220
13.200	-0.003199
13.205	-0.003192
13.210	-0.003200
13.215	-0.003207
13.220	-0.003234
13.225	-0.003221
13.230	-0.003255
13.235	-0.003200
13.240	-0.003193
13.245	-0.003214
13.250	-0.003249
13.255	-0.003256
13.260	-0.003235
13.265	-0.003228
13.270	-0.003221
13.275	-0.003235
13.280	-0.003228
13.285	-0.003235
13.290	-0.003249
13.295	-0.003208
13.300	-0.003214
13.305	-0.003270
13.310	-0.003229
13.315	-0.003243
13.320	-0.003264
13.325	-0.003256
13.330	-0.003250
13.335	-0.003229
13.340	-0.003222
13.345	-0.003264
13.350	-0.003271
13.355	-0.003250
13.360	-0.003243
13.365	-0.003264
13.370	-0.003271
13.375	-0.003271
13.380	-0.003278
13.385	-0.003265
13.390	-0.003237
13.395	-0.003278
13.400	-0.003271
13.405	-0.003243
13.410	-0.003264
13.415	-0.003271
13.420	-0.003271
13.425	-0.003278
13.430	-0.003285
13.435	-0.003306
13.440	-0.003306
13.445	-0.003299
13.450	-0.003300
13.455	-0.003313
13.460	-0.003279
13.465	-0.003292
13.470	-0.003299
13.475	-0.003299
13.480	-0.003313
13.485	-0.003306
13.490	-0.003300
13.495	-0.003279
13.500	-0.003313
13.505	-0.003314
13.510	-0.003314
13.515	-0.003321
13.520	-0.003349
13.525	-0.003300
13.530	-0.003348
13.535	-0.003293
13.540	-0.003341
13.545	-0.003327
13.550	-0.003321
13.555	-0.003334
13.560	-0.003341
13.565	-0.003348
13.570	-0.003362
13.575	-0.003348
13.580	-0.003342
13.585	-0.003335
13.590	-0.003342
13.595	-0.003334
13.600	-0.003369
13.605	-0.003397
13.610	-0.003362
13.615	-0.003383
13.620	-0.003397
13.625	-0.003376
13.630	-0.003356
13.635	-0.003383
13.640	-0.003376
13.645	-0.003376
13.650	-0.003391
13.655	-0.003370
13.660	-0.003411
13.665	-0.003390
13.670	-0.003404
13.675	-0.003369
13.680	-0.003383
13.685	-0.003383
13.690	-0.003383
13.695	-0.003397
13.700	-0.003424
13.705	-0.003431
13.710	-0.003404
13.715	-0.003432
13.720	-0.003390
13.725	-0.003404
13.730	-0.003424
13.735	-0.003410
13.740	-0.003424
13.745	-0.003403
13.750	-0.003438
13.755	-0.003424
13.760	-0.003459
13.765	-0.003445
13.770	-0.003479
13.775	-0.003451
13.780	-0.003445
13.785	-0.003452
13.790	-0.003417
13.795	-0.003472
13.800	-0.003472
13.805	-0.003410
13.810	-0.003451
13.815	-0.003458
13.820	-0.003437
13.825	-0.003492
13.830	-0.003451
13.835	-0.003479
13.840	-0.003479
13.845	-0.003452
13.850	-0.003459
13.855	-0.003486
13.860	-0.003486
13.865	-0.003465
13.870	-0.003472
13.875	-0.003499
13.880	-0.003465
13.885	-0.003458
13.890	-0.003492
13.895	-0.003499
13.900	-0.003472
13.905	-0.003472
13.910	-0.003527
13.915	-0.003514
13.920	-0.003473
13.925	-0.003486
13.930	-0.003472
13.935	-0.003492
13.940	-0.003499
13.945	-0.003520
13.950	-0.003533
13.955	-0.003513
13.960	-0.003506
13.965	-0.003506
13.970	-0.003527
13.975	-0.003541
13.980	-0.003500
13.985	-0.003514
13.990	-0.003527
13.995	-0.003534
14.000	-0.003507
14.005	-0.003527
14.010	-0.003541
14.015	-0.003555
14.020	-0.003534
14.025	-0.003527
14.030	-0.003534
14.035	-0.003534
14.040	-0.003590
14.045	-0.003548
14.050	-0.003570
14.055	-0.003583
14.060	-0.003541
14.065	-0.003555
14.070	-0.003548
14.075	-0.003548
14.080	-0.003555
14.085	-0.003589
14.090	-0.003589
14.095	-0.003576
14.100	-0.003575
14.105	-0.003589
14.110	-0.003569
14.115	-0.003577
14.120	-0.003604
14.125	-0.003596
14.130	-0.003596
14.135	-0.003590
14.140	-0.003583
14.145	-0.003610
14.150	-0.003597
14.155	-0.003610
14.160	-0.003590
14.165	-0.003652
14.170	-0.003610
14.175	-0.003624
14.180	-0.003611
14.185	-0.003605
14.190	-0.003611
14.195	-0.003590
14.200	-0.003617
14.205	-0.003604
14.210	-0.003590
14.215	-0.003645
14.220	-0.003631
14.225	-0.003624
14.230	-0.003625
14.235	-0.003624
14.240	-0.003659
14.245	-0.003646
14.250	-0.003625
14.255	-0.003618
14.260	-0.003652
14.265	-0.003645
14.270	-0.003611
14.275	-0.003639
14.280	-0.003652
14.285	-0.003639
14.290	-0.003680
14.295	-0.003673
14.300	-0.003660
14.305	-0.003687
14.310	-0.003680
14.315	-0.003653
14.320	-0.003722
14.325	-0.003674
14.330	-0.003673
14.335	-0.003701
14.340	-0.003687
14.345	-0.003680
14.350	-0.003694
14.355	-0.003701
14.360	-0.003694
14.365	-0.003742
14.370	-0.003701
14.375	-0.003708
14.380	-0.003736
14.385	-0.003709
14.390	-0.003722
14.395	-0.003714
14.400	-0.003701
14.405	-0.003729
14.410	-0.003715
14.415	-0.003701
14.420	-0.003715
14.425	-0.003715
14.430	-0.003750
14.435	-0.003757
14.440	-0.003763
14.445	-0.003757
14.450	-0.003751
14.455	-0.003744
14.460	-0.003736
14.465	-0.003743
14.470	-0.003757
14.475	-0.003764
14.480	-0.003785
14.485	-0.003764
14.490	-0.003743
14.495	-0.003778
14.500	-0.003750
14.505	-0.003777
14.510	-0.003771
14.515	-0.003772
14.520	-0.003772
14.525	-0.003771
14.530	-0.003812
14.535	-0.003785
14.540	-0.003765
14.545	-0.003792
14.550	-0.003806
14.555	-0.003785
14.560	-0.003778
14.565	-0.003806
14.570	-0.003806
14.575	-0.003799
14.580	-0.003807
14.585	-0.003807
14.590	-0.003820
14.595	-0.003799
14.600	-0.003834
14.605	-0.003813
14.610	-0.003807
14.615	-0.003834
14.620	-0.003834
14.625	-0.003834
14.630	-0.003848
14.635	-0.003841
14.640	-0.003834
14.645	-0.003869
14.650	-0.003842
14.655	-0.003855
14.660	-0.003862
14.665	-0.003841
14.670	-0.003869
14.675	-0.003849
14.680	-0.003842
14.685	-0.003835
14.690	-0.003869
14.695	-0.003897
14.700	-0.003897
14.705	-0.003856
14.710	-0.003890
14.715	-0.003891
14.720	-0.003885
14.725	-0.003891
14.730	-0.003891
14.735	-0.003925
14.740	-0.003884
14.745	-0.003870
14.750	-0.003898
14.755	-0.003919
14.760	-0.003898
14.765	-0.003905
14.770	-0.003906
14.775	-0.003926
14.780	-0.003969
14.785	-0.003934
14.790	-0.003934
14.795	-0.003947
14.800	-0.003913
14.805	-0.003906
14.810	-0.003934
14.815	-0.003920
14.820	-0.003928
14.825	-0.003948
14.830	-0.003962
14.835	-0.003921
14.840	-0.003948
14.845	-0.003963
14.850	-0.003929
14.855	-0.003950
14.860	-0.003963
14.865	-0.003977
14.870	-0.003984
14.875	-0.003956
14.880	-0.003956
14.885	-0.003984
14.890	-0.003970
14.895	-0.003963
14.900	-0.003970
14.905	-0.003949
14.910	-0.003943
14.915	-0.003964
14.920	-0.003991
14.925	-0.003984
14.930	-0.003984
14.935	-0.003963
14.940	-0.003977
14.945	-0.003998
14.950	-0.004011
14.955	-0.003970
14.960	-0.003991
14.965	-0.003998
14.970	-0.003997
14.975	-0.004011
14.980	-0.003957
14.985	-0.004005
14.990	-0.004018
14.995	-0.004018
15.000	-0.004011
15.005	-0.004052
15.010	-0.004011
15.015	-0.003997
15.020	-0.004031
15.025	-0.004018
15.030	-0.004018
15.035	-0.004011
15.040	-0.004066
15.045	-0.004046
15.050	-0.004060
15.055	-0.004053
15.060	-0.004059
15.065	-0.004066
15.070	-0.004059
15.075	-0.004053
15.080	-0.004046
15.085	-0.004059
15.090	-0.004080
15.095	-0.004052
15.100	-0.004052
15.105	-0.004066
15.110	-0.004046
15.115	-0.004109
15.120	-0.004074
15.125	-0.004066
15.130	-0.004093
15.135	-0.004087
15.140	-0.004101
15.145	-0.004073
15.150	-0.004094
15.155	-0.004108
15.160	-0.004128
15.165	-0.004087
15.170	-0.004122
15.175	-0.004135
15.180	-0.004137
15.185	-0.004157
15.190	-0.004088
15.195	-0.004088
15.200	-0.004123
15.205	-0.004109
15.210	-0.004144
15.215	-0.004123
15.220	-0.004123
15.225	-0.004150
15.230	-0.004137
15.235	-0.004158
15.240	-0.004179
15.245	-0.004152
15.250	-0.004159
15.255	-0.004173
15.260	-0.004172
15.265	-0.004158
15.270	-0.004165
15.275	-0.004145
15.280	-0.004173
15.285	-0.004159
15.290	-0.004172
15.295	-0.004214
15.300	-0.004186
15.305	-0.004187
15.310	-0.004187
15.315	-0.004215
15.320	-0.004174
15.325	-0.004173
15.330	-0.004194
15.335	-0.004194
15.340	-0.004181
15.345	-0.004188
15.350	-0.004243
15.355	-0.004216
15.360	-0.004223
15.365	-0.004223
15.370	-0.004230
15.375	-0.004230
15.380	-0.004231
15.385	-0.004204
15.390	-0.004231
15.395	-0.004244
15.400	-0.004237
15.405	-0.004244
15.410	-0.004231
15.415	-0.004258
15.420	-0.004251
15.425	-0.004237
15.430	-0.004265
15.435	-0.004244
15.440	-0.004259
15.445	-0.004246
15.450	-0.004239
15.455	-0.004266
15.460	-0.004245
15.465	-0.004252
15.470	-0.004273
15.475	-0.004245
15.480	-0.004266
15.485	-0.004273
15.490	-0.004273
15.495	-0.004328
15.500	-0.004286
15.505	-0.004307
15.510	-0.004280
15.515	-0.004329
15.520	-0.004309
15.525	-0.004294
15.530	-0.004335
15.535	-0.004335
15.540	-0.004307
15.545	-0.004342
15.550	-0.004328
15.555	-0.004328
15.560	-0.004328
15.565	-0.004369
15.570	-0.004321
15.575	-0.004328
15.580	-0.004336
15.585	-0.004349
15.590	-0.004349
15.595	-0.004362
15.600	-0.004356
15.605	-0.004363
15.610	-0.004376
15.615	-0.004342
15.620	-0.004377
15.625	-0.004390
15.630	-0.004370
15.635	-0.004356
15.640	-0.004397
15.645	-0.004398
15.650	-0.004384
15.655	-0.004391
15.660	-0.004397
15.665	-0.004362
15.670	-0.004431
15.675	-0.004390
15.680	-0.004390
15.685	-0.004396
15.690	-0.004431
15.695	-0.004417
15.700	-0.004410
15.705	-0.004410
15.710	-0.004411
15.715	-0.004467
15.720	-0.004417
15.725	-0.004416
15.730	-0.004431
15.735	-0.004424
15.740	-0.004424
15.745	-0.004438
15.750	-0.004452
15.755	-0.004417
15.760	-0.004452
15.765	-0.004459
15.770	-0.004459
15.775	-0.004472
15.780	-0.004460
15.785	-0.004460
15.790	-0.004480
15.795	-0.004451
15.800	-0.004465
15.805	-0.004438
15.810	-0.004500
15.815	-0.004500
15.820	-0.004479
15.825	-0.004472
15.830	-0.004507
15.835	-0.004507
15.840	-0.004521
15.845	-0.004508
15.850	-0.004522
15.855	-0.004514
15.860	-0.004506
15.865	-0.004527
15.870	-0.004513
15.875	-0.004514
15.880	-0.004465
15.885	-0.004506
15.890	-0.004534
15.895	-0.004506
15.900	-0.004541
15.905	-0.004527
15.910	-0.004542
15.915	-0.004536
15.920	-0.004556
15.925	-0.004534
15.930	-0.004541
15.935	-0.004541
15.940	-0.004562
15.945	-0.004569
15.950	-0.004576
15.955	-0.004562
15.960	-0.004549
15.965	-0.004562
15.970	-0.004569
15.975	-0.004603
15.980	-0.004619
15.985	-0.004570
15.990	-0.004597
15.995	-0.004555
16.000	-0.004597
16.005	-0.004604
16.010	-0.004604
16.015	-0.004604
16.020	-0.004611
16.025	-0.004583
16.030	-0.004604
16.035	-0.004632
16.040	-0.004660
16.045	-0.004605
16.050	-0.004633
16.055	-0.004640
16.060	-0.004625
16.065	-0.004632
16.070	-0.004659
16.075	-0.004667
16.080	-0.004646
16.085	-0.004667
16.090	-0.004667
16.095	-0.004660
16.100	-0.004646
16.105	-0.004653
16.110	-0.004675
16.115	-0.004675
16.120	-0.004689
16.125	-0.004702
16.130	-0.004681
16.135	-0.004668
16.140	-0.004682
16.145	-0.004688
16.150	-0.004702
16.155	-0.004709
16.160	-0.004716
16.165	-0.004702
16.170	-0.004716
16.175	-0.004716
16.180	-0.004717
16.185	-0.004744
16.190	-0.004730
16.195	-0.004695
16.200	-0.004729
16.205	-0.004729
16.210	-0.004750
16.215	-0.004764
16.220	-0.004751
16.225	-0.004744
16.230	-0.004744
16.235	-0.004757
16.240	-0.004785
16.245	-0.004780
16.250	-0.004759
16.255	-0.004758
16.260	-0.004765
16.265	-0.004772
16.270	-0.004786
16.275	-0.004779
16.280	-0.004794
16.285	-0.004780
16.290	-0.004794
16.295	-0.004793
16.300	-0.004793
16.305	-0.004828
16.310	-0.004808
16.315	-0.004850
16.320	-0.004816
16.325	-0.004815
16.330	-0.004842
16.335	-0.004863
16.340	-0.004842
16.345	-0.004849
16.350	-0.004842
16.355	-0.004822
16.360	-0.004856
16.365	-0.004877
16.370	-0.004857
16.375	-0.004878
16.380	-0.004879
16.385	-0.004892
16.390	-0.004885
16.395	-0.004878
16.400	-0.004940
16.405	-0.004864
16.410	-0.004899
16.415	-0.004885
16.420	-0.004899
16.425	-0.004906
16.430	-0.004892
16.435	-0.004912
16.440	-0.004933
16.445	-0.004893
16.450	-0.004914
16.455	-0.004941
16.460	-0.004905
16.465	-0.004933
16.470	-0.004906
16.475	-0.004947
16.480	-0.004933
16.485	-0.004919
16.490	-0.004926
16.495	-0.004953
16.500	-0.004926
16.505	-0.004898
16.510	-0.004961
16.515	-0.004996
16.520	-0.004961
16.525	-0.004939
16.530	-0.004953
16.535	-0.004988
16.540	-0.004961
16.545	-0.004961
16.550	-0.004995
16.555	-0.004988
16.560	-0.004967
16.565	-0.005023
16.570	-0.005001
16.575	-0.005009
16.580	-0.005024
16.585	-0.005023
16.590	-0.005023
16.595	-0.005029
16.600	-0.005022
16.605	-0.005015
16.610	-0.005050
16.615	-0.005029
16.620	-0.005064
16.625	-0.005050
16.630	-0.005071
16.635	-0.005023
16.640	-0.005044
16.645	-0.005073
16.650	-0.005039
16.655	-0.005072
16.660	-0.005058
16.665	-0.005065
16.670	-0.005093
16.675	-0.005100
16.680	-0.005087
16.685	-0.005073
16.690	-0.005080
16.695	-0.005087
16.700	-0.005094
16.705	-0.005108
16.710	-0.005129
16.715	-0.005130
16.720	-0.005150
16.725	-0.005128
16.730	-0.005129
16.735	-0.005108
16.740	-0.005122
16.745	-0.005143
16.750	-0.005130
16.755	-0.005150
16.760	-0.005165
16.765	-0.005172
16.770	-0.005200
16.775	-0.005173
16.780	-0.005182
16.785	-0.005182
16.790	-0.005188
16.795	-0.005153
16.800	-0.005208
16.805	-0.005216
16.810	-0.005195
16.815	-0.005189
16.820	-0.005224
16.825	-0.005210
16.830	-0.005204
16.835	-0.005224
16.840	-0.005259
16.845	-0.005254
16.850	-0.005254
16.855	-0.005281
16.860	-0.005280
16.865	-0.005254
16.870	-0.005241
16.875	-0.005283
16.880	-0.005256
16.885	-0.005235
16.890	-0.005277
16.895	-0.005284
16.900	-0.005326
16.905	-0.005305
16.910	-0.005320
16.915	-0.005327
16.920	-0.005305
16.925	-0.005332
16.930	-0.005319
16.935	-0.005306
16.940	-0.005333
16.945	-0.005354
16.950	-0.005348
16.955	-0.005348
16.960	-0.005390
16.965	-0.005361
16.970	-0.005375
16.975	-0.005354
16.980	-0.005334
16.985	-0.005361
16.990	-0.005366
16.995	-0.005366
17.000	-0.005381
17.005	-0.005374
17.010	-0.005409
17.015	-0.005388
17.020	-0.005394
17.025	-0.005422
17.030	-0.005414
17.035	-0.005408
17.040	-0.005429
17.045	-0.005444
17.050	-0.005429
17.055	-0.005427
17.060	-0.005461
17.065	-0.005433
17.070	-0.005441
17.075	-0.005462
17.080	-0.005468
17.085	-0.005433
17.090	-0.005468
17.095	-0.005461
17.100	-0.005455
17.105	-0.005496
17.110	-0.005490
17.115	-0.005504
17.120	-0.005484
17.125	-0.005503
17.130	-0.005503
17.135	-0.005481
17.140	-0.005495
17.145	-0.005529
17.150	-0.005537
17.155	-0.005516
17.160	-0.005516
17.165	-0.005550
17.170	-0.005516
17.175	-0.005544
17.180	-0.005531
17.185	-0.005551
17.190	-0.005543
17.195	-0.005570
17.200	-0.005564
17.205	-0.005571
17.210	-0.005578
17.215	-0.005585
17.220	-0.005544
17.225	-0.005571
17.230	-0.005570
17.235	-0.005619
17.240	-0.005571
17.245	-0.005601
17.250	-0.005622
17.255	-0.005600
17.260	-0.005627
17.265	-0.005620
17.270	-0.005627
17.275	-0.005634
17.280	-0.005620
17.285	-0.005634
17.290	-0.005654
17.295	-0.005648
17.300	-0.005668
17.305	-0.005654
17.310	-0.005670
17.315	-0.005656
17.320	-0.005642
17.325	-0.005655
17.330	-0.005704
17.335	-0.005697
17.340	-0.005697
17.345	-0.005698
17.350	-0.005718
17.355	-0.005691
17.360	-0.005684
17.365	-0.005718
17.370	-0.005712
17.375	-0.005726
17.380	-0.005755
17.385	-0.005755
17.390	-0.005719
17.395	-0.005753
17.400	-0.005719
17.405	-0.005746
17.410	-0.005739
17.415	-0.005732
17.420	-0.005760
17.425	-0.005753
17.430	-0.005760
17.435	-0.005787
17.440	-0.005767
17.445	-0.005782
17.450	-0.005788
17.455	-0.005815
17.460	-0.005814
17.465	-0.005793
17.470	-0.005815
17.475	-0.005822
17.480	-0.005808
17.485	-0.005808
17.490	-0.005849
17.495	-0.005856
17.500	-0.005842
17.505	-0.005821
17.510	-0.005850
17.515	-0.005857
17.520	-0.005850
17.525	-0.005876
17.530	-0.005835
17.535	-0.005849
17.540	-0.005876
17.545	-0.005890
17.550	-0.005890
17.555	-0.005918
17.560	-0.005918
17.565	-0.005925
17.570	-0.005919
17.575	-0.005940
17.580	-0.005907
17.585	-0.005926
17.590	-0.005946
17.595	-0.005919
17.600	-0.005973
17.605	-0.005939
17.610	-0.005953
17.615	-0.005953
17.620	-0.005953
17.625	-0.005987
17.630	-0.005987
17.635	-0.005994
17.640	-0.005988
17.645	-0.006010
17.650	-0.006003
17.655	-0.006015
17.660	-0.006021
17.665	-0.006014
17.670	-0.006029
17.675	-0.006015
17.680	-0.006056
17.685	-0.006035
17.690	-0.006041
17.695	-0.006082
17.700	-0.006048
17.705	-0.006041
17.710	-0.006077
17.715	-0.006071
17.720	-0.006090
17.725	-0.006109
17.730	-0.006088
17.735	-0.006074
17.740	-0.006110
17.745	-0.006110
17.750	-0.006123
17.755	-0.006144
17.760	-0.006136
17.765	-0.006156
17.770	-0.006149
17.775	-0.006143
17.780	-0.006158
17.785	-0.006158
17.790	-0.006170
17.795	-0.006176
17.800	-0.006162
17.805	-0.006203
17.810	-0.006182
17.815	-0.006202
17.820	-0.006202
17.825	-0.006208
17.830	-0.006215
17.835	-0.006221
17.840	-0.006215
17.845	-0.006230
17.850	-0.006237
17.855	-0.006221
17.860	-0.006248
17.865	-0.006282
17.870	-0.006241
17.875	-0.006235
17.880	-0.006242
17.885	-0.006268
17.890	-0.006282
17.895	-0.006281
17.900	-0.006295
17.905	-0.006288
17.910	-0.006297
17.915	-0.006338
17.920	-0.006316
17.925	-0.006335
17.930	-0.006315
17.935	-0.006295
17.940	-0.006336
17.945	-0.006350
17.950	-0.006404
17.955	-0.006355
17.960	-0.006357
17.965	-0.006364
17.970	-0.006385
17.975	-0.006413
17.980	-0.006393
17.985	-0.006393
17.990	-0.006400
17.995	-0.006406
18.000	-0.006413
18.005	-0.006427
18.010	-0.006441
18.015	-0.006421
18.020	-0.006442
18.025	-0.006455
18.030	-0.006455
18.035	-0.006462
18.040	-0.006436
18.045	-0.006438
18.050	-0.006471
18.055	-0.006463
18.060	-0.006470
18.065	-0.006491
18.070	-0.006512
18.075	-0.006498
18.080	-0.006540
18.085	-0.006471
18.090	-0.006527
18.095	-0.006514
18.100	-0.006551
18.105	-0.006551
18.110	-0.006553
18.115	-0.006540
18.120	-0.006566
18.125	-0.006584
18.130	-0.006576
18.135	-0.006582
18.140	-0.006561
18.145	-0.006596
18.150	-0.006568
18.155	-0.006610
18.160	-0.006630
18.165	-0.006616
18.170	-0.006623
18.175	-0.006639
18.180	-0.006647
18.185	-0.006647
18.190	-0.006658
18.195	-0.006651
18.200	-0.006658
18.205	-0.006631
18.210	-0.006660
18.215	-0.006659
18.220	-0.006679
18.225	-0.006714
18.230	-0.006706
18.235	-0.006687
18.240	-0.006723
18.245	-0.006711
18.250	-0.006744
18.255	-0.006722
18.260	-0.006722
18.265	-0.006730
18.270	-0.006730
18.275	-0.006786
18.280	-0.006800
18.285	-0.006765
18.290	-0.006779
18.295	-0.006833
18.300	-0.006764
18.305	-0.006812
18.310	-0.006801
18.315	-0.006801
18.320	-0.006808
18.325	-0.006828
18.330	-0.006841
18.335	-0.006820
18.340	-0.006848
18.345	-0.006861
18.350	-0.006882
18.355	-0.006881
18.360	-0.006875
18.365	-0.006875
18.370	-0.006896
18.375	-0.006904
18.380	-0.006905
18.385	-0.006918
18.390	-0.006910
18.395	-0.006938
18.400	-0.006931
18.405	-0.006966
18.410	-0.006981
18.415	-0.006947
18.420	-0.006967
18.425	-0.007001
18.430	-0.006988
18.435	-0.006995
18.440	-0.007025
18.445	-0.007006
18.450	-0.007026
18.455	-0.007024
18.460	-0.007060
18.465	-0.007046
18.470	-0.007039
18.475	-0.007026
18.480	-0.007034
18.485	-0.007096
18.490	-0.007068
18.495	-0.007076
18.500	-0.007091
18.505	-0.007119
18.510	-0.007107
18.515	-0.007093
18.520	-0.007120
18.525	-0.007139
18.530	-0.007120
18.535	-0.007107
18.540	-0.007129
18.545	-0.007157
18.550	-0.007170
18.555	-0.007142
18.560	-0.007163
18.565	-0.007184
18.570	-0.007219
18.575	-0.007164
18.580	-0.007201
18.585	-0.007228
18.590	-0.007219
18.595	-0.007240
18.600	-0.007261
18.605	-0.007281
18.610	-0.007280
18.615	-0.007259
18.620	-0.007301
18.625	-0.007301
18.630	-0.007287
18.635	-0.007309
18.640	-0.007317
18.645	-0.007319
18.650	-0.007325
18.655	-0.007344
18.660	-0.007330
18.665	-0.007338
18.670	-0.007359
18.675	-0.007359
18.680	-0.007368
18.685	-0.007347
18.690	-0.007396
18.695	-0.007429
18.700	-0.007429
18.705	-0.007422
18.710	-0.007453
18.715	-0.007461
18.720	-0.007452
18.725	-0.007443
18.730	-0.007443
18.735	-0.007492
18.740	-0.007472
18.745	-0.007493
18.750	-0.007471
18.755	-0.007541
18.760	-0.007520
18.765	-0.007541
18.770	-0.007554
18.775	-0.007556
18.780	-0.007502
18.785	-0.007556
18.790	-0.007583
18.795	-0.007569
18.800	-0.007584
18.805	-0.007570
18.810	-0.007591
18.815	-0.007612
18.820	-0.007634
18.825	-0.007628
18.830	-0.007663
18.835	-0.007628
18.840	-0.007649
18.845	-0.007671
18.850	-0.007706
18.855	-0.007697
18.860	-0.007711
18.865	-0.007726
18.870	-0.007741
18.875	-0.007720
18.880	-0.007749
18.885	-0.007737
18.890	-0.007752
18.895	-0.007752
18.900	-0.007766
18.905	-0.007761
18.910	-0.007785
18.915	-0.007799
18.920	-0.007783
18.925	-0.007790
18.930	-0.007819
18.935	-0.007820
18.940	-0.007826
18.945	-0.007845
18.950	-0.007844
18.955	-0.007836
18.960	-0.007853
18.965	-0.007845
18.970	-0.007867
18.975	-0.007877
18.980	-0.007905
18.985	-0.007916
18.990	-0.007918
18.995	-0.007917
19.000	-0.007924
19.005	-0.007929
19.010	-0.007935
19.015	-0.007961
19.020	-0.008023
19.025	-0.007988
19.030	-0.007975
19.035	-0.007996
19.040	-0.008031
19.045	-0.008053
19.050	-0.008059
19.055	-0.008062
19.060	-0.008083
19.065	-0.008077
19.070	-0.008106
19.075	-0.008098
19.080	-0.008098
19.085	-0.008132
19.090	-0.008139
19.095	-0.008124
19.100	-0.008158
19.105	-0.008206
19.110	-0.008189
19.115	-0.008161
19.120	-0.008216
19.125	-0.008215
19.130	-0.008215
19.135	-0.008243
19.140	-0.008236
19.145	-0.008249
19.150	-0.008263
19.155	-0.008271
19.160	-0.008299
19.165	-0.008306
19.170	-0.008333
19.175	-0.008315
19.180	-0.008370
19.185	-0.008342
19.190	-0.008368
19.195	-0.008355
19.200	-0.008350
19.205	-0.008407
19.210	-0.008436
19.215	-0.008395
19.220	-0.008459
19.225	-0.008460
19.230	-0.008496
19.235	-0.008498
19.240	-0.008541
19.245	-0.008516
19.250	-0.008524
19.255	-0.008529
19.260	-0.008537
19.265	-0.008523
19.270	-0.008545
19.275	-0.008571
19.280	-0.008607
19.285	-0.008578
19.290	-0.008586
19.295	-0.008640
19.300	-0.008640
19.305	-0.008634
19.310	-0.008664
19.315	-0.008628
19.320	-0.008633
19.325	-0.008686
19.330	-0.008666
19.335	-0.008707
19.340	-0.008693
19.345	-0.008735
19.350	-0.008706
19.355	-0.008746
19.360	-0.008737
19.365	-0.008757
19.370	-0.008797
19.375	-0.008778
19.380	-0.008819
19.385	-0.008796
19.390	-0.008836
19.395	-0.008843
19.400	-0.008856
19.405	-0.008862
19.410	-0.008884
19.415	-0.008898
19.420	-0.008925
19.425	-0.008919
19.430	-0.008960
19.435	-0.008960
19.440	-0.008962
19.445	-0.008955
19.450	-0.008982
19.455	-0.009027
19.460	-0.009042
19.465	-0.009048
19.470	-0.009042
19.475	-0.009078
19.480	-0.009065
19.485	-0.009072
19.490	-0.009093
19.495	-0.009128
19.500	-0.009156
19.505	-0.009127
19.510	-0.009173
19.515	-0.009131
19.520	-0.009214
19.525	-0.009213
19.530	-0.009214
19.535	-0.009215
19.540	-0.009251
19.545	-0.009216
19.550	-0.009225
19.555	-0.009278
19.560	-0.009280
19.565	-0.009322
19.570	-0.009336
19.575	-0.009332
19.580	-0.009326
19.585	-0.009360
19.590	-0.009393
19.595	-0.009401
19.600	-0.009390
19.605	-0.009432
19.610	-0.009447
19.615	-0.009431
19.620	-0.009488
19.625	-0.009488
19.630	-0.009468
19.635	-0.009566
19.640	-0.009519
19.645	-0.009526
19.650	-0.009545
19.655	-0.009521
19.660	-0.009583
19.665	-0.009550
19.670	-0.009595
19.675	-0.009603
19.680	-0.009624
19.685	-0.009666
19.690	-0.009683
19.695	-0.009648
19.700	-0.009703
19.705	-0.009697
19.710	-0.009711
19.715	-0.009731
19.720	-0.009792
19.725	-0.009785
19.730	-0.009779
19.735	-0.009822
19.740	-0.009836
19.745	-0.009857
19.750	-0.009891
19.755	-0.009911
19.760	-0.009919
19.765	-0.009927
19.770	-0.009951
19.775	-0.009980
19.780	-0.009986
19.785	-0.010018
19.790	-0.010031
19.795	-0.010026
19.800	-0.010066
19.805	-0.010087
19.810	-0.010101
19.815	-0.010122
19.820	-0.010116
19.825	-0.010157
19.830	-0.010144
19.835	-0.010209
19.840	-0.010226
19.845	-0.010254
19.850	-0.010245
19.855	-0.010284
19.860	-0.010278
19.865	-0.010342
19.870	-0.010323
19.875	-0.010322
19.880	-0.010383
19.885	-0.010423
19.890	-0.010414
19.895	-0.010446
19.900	-0.010480
19.905	-0.010498
19.910	-0.010479
19.915	-0.010512
19.920	-0.010542
19.925	-0.010554
19.930	-0.010551
19.935	-0.010576
19.940	-0.010596
19.945	-0.010651
19.950	-0.010642
19.955	-0.010691
19.960	-0.010712
19.965	-0.010705
19.970	-0.010733
19.975	-0.010736
19.980	-0.010769
19.985	-0.010787
19.990	-0.010847
19.995	-0.010868
20.000	-0.010875
20.005	-0.010896
20.010	-0.010909
20.015	-0.010935
20.020	-0.010943
20.025	-0.010999
20.030	-0.011000
20.035	-0.011035
20.040	-0.011087
20.045	-0.011082
20.050	-0.011089
20.055	-0.011126
20.060	-0.011148
20.065	-0.011185
20.070	-0.011220
20.075	-0.011219
20.080	-0.011233
20.085	-0.011283
20.090	-0.011340
20.095	-0.011354
20.100	-0.011383
20.105	-0.011365
20.110	-0.011401
20.115	-0.011441
20.120	-0.011474
20.125	-0.011473
20.130	-0.011510
20.135	-0.011540
20.140	-0.011548
20.145	-0.011570
20.150	-0.011583
20.155	-0.011616
20.160	-0.011637
20.165	-0.011688
20.170	-0.011703
20.175	-0.011736
20.180	-0.011759
20.185	-0.011793
20.190	-0.011799
20.195	-0.011842
20.200	-0.011879
20.205	-0.011922
20.210	-0.011953
20.215	-0.011954
20.220	-0.012004
20.225	-0.012000
20.230	-0.012065
20.235	-0.012097
20.240	-0.012110
20.245	-0.012127
20.250	-0.012152
20.255	-0.012167
20.260	-0.012205
20.265	-0.012233
20.270	-0.012260
20.275	-0.012307
20.280	-0.012278
20.285	-0.012338
20.290	-0.012373
20.295	-0.012435
20.300	-0.012444
20.305	-0.012479
20.310	-0.012544
20.315	-0.012537
20.320	-0.012599
20.325	-0.012606
20.330	-0.012629
20.335	-0.012665
20.340	-0.012724
20.345	-0.012755
20.350	-0.012795
20.355	-0.012823
20.360	-0.012846
20.365	-0.012894
20.370	-0.012920
20.375	-0.012946
20.380	-0.012986
20.385	-0.013020
20.390	-0.013045
20.395	-0.013103
20.400	-0.013187
20.405	-0.013183
20.410	-0.013222
20.415	-0.013257
20.420	-0.013296
20.425	-0.013308
20.430	-0.013348
20.435	-0.013407
20.440	-0.013426
20.445	-0.013510
20.450	-0.013527
20.455	-0.013583
20.460	-0.013623
20.465	-0.013674
20.470	-0.013706
20.475	-0.013755
20.480	-0.013814
20.485	-0.013874
20.490	-0.013938
20.495	-0.014000
20.500	-0.014032
20.505	-0.014080
20.510	-0.014101
20.515	-0.014140
20.520	-0.014142
20.525	-0.014198
20.530	-0.014226
20.535	-0.014258
20.540	-0.014318
20.545	-0.014348
20.550	-0.014446
20.555	-0.014481
20.560	-0.014544
20.565	-0.014569
20.570	-0.014608
20.575	-0.014641
20.580	-0.014665
20.585	-0.014699
20.590	-0.014746
20.595	-0.014806
20.600	-0.014834
20.605	-0.014883
20.610	-0.014938
20.615	-0.014970
20.620	-0.015044
20.625	-0.015127
20.630	-0.015181
20.635	-0.015242
20.640	-0.015320
20.645	-0.015382
20.650	-0.015423
20.655	-0.015510
20.660	-0.015562
20.665	-0.015603
20.670	-0.015711
20.675	-0.015741
20.680	-0.015762
20.685	-0.015883
20.690	-0.015920
20.695	-0.015998
20.700	-0.016010
20.705	-0.016106
20.710	-0.016189
20.715	-0.016226
20.720	-0.016306
20.725	-0.016373
20.730	-0.016425
20.735	-0.016448
20.740	-0.016518
20.745	-0.016577
20.750	-0.016675
20.755	-0.016743
20.760	-0.016798
20.765	-0.016910
20.770	-0.017015
20.775	-0.017106
20.780	-0.017218
20.785	-0.017295
20.790	-0.017396
20.795	-0.017477
20.800	-0.017566
20.805	-0.017664
20.810	-0.017757
20.815	-0.017803
20.820	-0.017915
20.825	-0.018001
20.830	-0.018113
20.835	-0.018194
20.840	-0.018330
20.845	-0.018394
20.850	-0.018519
20.855	-0.018590
20.860	-0.018712
20.865	-0.018778
20.870	-0.018853
20.875	-0.018984
20.880	-0.019119
20.885	-0.019226
20.890	-0.019370
20.895	-0.019461
20.900	-0.019560
20.905	-0.019646
20.910	-0.019758
20.915	-0.019826
20.920	-0.019884
20.925	-0.019996
20.930	-0.020113
20.935	-0.020194
20.940	-0.020328
20.945	-0.020460
20.950	-0.020600
20.955	-0.020741
20.960	-0.020847
20.965	-0.020967
20.970	-0.021106
20.975	-0.021228
20.980	-0.021320
20.985	-0.021437
20.990	-0.021602
20.995	-0.021704
21.000	-0.021889
21.005	-0.022104
21.010	-0.022205
21.015	-0.022349
21.020	-0.022516
21.025	-0.022680
21.030	-0.022875
21.035	-0.023069
21.040	-0.023304
21.045	-0.023485
21.050	-0.023763
21.055	-0.023948
21.060	-0.024106
21.065	-0.024272
21.070	-0.024514
21.075	-0.024771
21.080	-0.025001
21.085	-0.025232
21.090	-0.025429
21.095	-0.025684
21.100	-0.025928
21.105	-0.026256
21.110	-0.026575
21.115	-0.026808
21.120	-0.027096
21.125	-0.027406
21.130	-0.027804
21.135	-0.028191
21.140	-0.028551
21.145	-0.028883
21.150	-0.029044
21.155	-0.029318
21.160	-0.029718
21.165	-0.029895
21.170	-0.030237
21.175	-0.030893
21.180	-0.031402
21.185	-0.031867
21.190	-0.032448
21.195	-0.032997
21.200	-0.033552
21.205	-0.034163
21.210	-0.034711
21.215	-0.035168
21.220	-0.035872
21.225	-0.036946
21.230	-0.037727
21.235	-0.038916
21.240	-0.039635
21.245	-0.039824
21.250	-0.041092
21.255	-0.042618
21.260	-0.043026
21.265	-0.044136
21.270	-0.045238
21.275	-0.046473
21.280	-0.047506
21.285	-0.047955
21.290	-0.047976
21.295	-0.047950
21.300	-0.047478
21.305	-0.046516
21.310	-0.044930
21.315	-0.042676
21.320	-0.039859
21.325	-0.036371
21.330	-0.032424
21.335	-0.028519
21.340	-0.024675
21.345	-0.020562
21.350	-0.016065
21.355	-0.011526
21.360	-0.007619
21.365	-0.004687
21.370	-0.002681
21.375	-0.001467
21.380	-0.000785
21.385	-0.000439
21.390	-0.000263
21.395	-0.000189
21.400	-0.000135
21.405	-0.000081
21.410	-0.000081
21.415	-0.000053
21.420	-0.000033
21.425	-0.000006
21.430	-0.000054
21.435	-0.000047
21.440	-0.000019
21.445	-0.000026
21.450	-0.000006
21.455	0.000007
21.460	0.000000
21.465	0.000000
21.470	-0.000013
21.475	-0.000020
21.480	0.000014
21.485	0.000041
21.490	0.000000
21.495	-0.000013
21.500	0.000041
21.505	0.000014
21.510	0.000028
21.515	0.000041
21.520	0.000027
21.525	0.000014
21.530	0.000027
21.535	0.000007
21.540	0.000027
21.545	0.000034
21.550	0.000027
21.555	-0.000014
21.560	0.000013
21.565	0.000027
21.570	0.000034
21.575	0.000027
21.580	0.000041
21.585	0.000054
21.590	0.000020
21.595	0.000040
21.600	0.000047
21.605	0.000006
21.610	0.000041
21.615	0.000013
21.620	0.000020
21.625	0.000027
21.630	0.000013
21.635	0.000013
21.640	0.000014
21.645	-0.000007
21.650	0.000074
21.655	0.000040
21.660	0.000013
21.665	0.000040
21.670	0.000053
21.675	0.000019
21.680	0.000040
21.685	0.000040
21.690	-0.000008
21.695	0.000026
21.700	0.000033
21.705	0.000040
21.710	0.000020
21.715	0.000033
21.720	0.000040
21.725	0.000040
21.730	0.000033
21.735	0.000053
21.740	0.000040
21.745	0.000046
21.750	0.000026
21.755	0.000019
21.760	0.000019
21.765	0.000039
21.770	0.000039
21.775	0.000013
21.780	0.000060
21.785	0.000033
21.790	0.000032
21.795	0.000026
21.800	0.000026
21.805	0.000046
21.810	0.000012
21.815	0.000019
21.820	0.000032
21.825	0.000032
21.830	0.000059
21.835	0.000012
21.840	0.000033
21.845	0.000046
21.850	0.000066
21.855	0.000018
21.860	0.000032
21.865	0.000046
21.870	0.000019
21.875	0.000032
21.880	0.000012
21.885	0.000005
21.890	0.000066
21.895	0.000032
21.900	0.000059
21.905	0.000025
21.910	0.000046
21.915	0.000060
21.920	0.000045
21.925	0.000025
21.930	0.000066
21.935	0.000025
21.940	0.000052
21.945	0.000052
21.950	0.000031
21.955	0.000031
21.960	0.000045
21.965	0.000011
21.970	0.000052
21.975	0.000052
21.980	0.000025
21.985	0.000065
21.990	0.000065
21.995	0.000018
22.000	0.000052
22.005	0.000024
22.010	0.000025
22.015	0.000025
22.020	0.000031
22.025	0.000004
22.030	0.000038
22.035	0.000024
22.040	0.000039
22.045	0.000073
22.050	0.000045
22.055	0.000051
22.060	0.000045
22.065	0.000051
22.070	0.000058
22.075	0.000038
22.080	0.000038
22.085	0.000038
22.090	0.000051
22.095	0.000024
22.100	0.000017
22.105	0.000017
22.110	0.000045
22.115	0.000051
22.120	0.000030
22.125	0.000044
22.130	0.000044
22.135	0.000051
22.140	0.000051
22.145	0.000031
22.150	0.000051
22.155	0.000037
22.160	0.000044
22.165	0.000051
22.170	0.000017
22.175	0.000045
22.180	0.000051
22.185	0.000037
22.190	0.000044
22.195	0.000016
22.200	0.000023
22.205	0.000044
22.210	0.000051
22.215	0.000023
22.220	0.000010
22.225	0.000016
22.230	0.000071
22.235	0.000043
22.240	0.000017
22.245	0.000030
22.250	0.000037
22.255	0.000030
22.260	0.000037
22.265	0.000057
22.270	0.000023
22.275	0.000030
22.280	0.000023
22.285	0.000036
22.290	0.000050
22.295	0.000043
22.300	0.000037
22.305	0.000044
22.310	0.000051
22.315	0.000037
22.320	0.000016
22.325	0.000023
22.330	0.000016
22.335	0.000070
22.340	0.000029
22.345	0.000043
22.350	0.000023
22.355	0.000050
22.360	0.000029
22.365	0.000036
22.370	0.000070
22.375	0.000050
22.380	0.000050
22.385	0.000036
22.390	0.000036
22.395	0.000029
22.400	0.000029
22.405	0.000056
22.410	0.000036
22.415	0.000049
22.420	0.000029
22.425	0.000009
22.430	0.000022
22.435	0.000022
22.440	0.000043
22.445	0.000023
22.450	0.000036
22.455	0.000015
22.460	0.000049
22.465	0.000015
22.470	0.000042
22.475	0.000063
22.480	0.000035
22.485	0.000028
22.490	0.000049
22.495	0.000056
22.500	0.000015
22.505	0.000056
22.510	0.000036
22.515	0.000056
22.520	0.000028
22.525	0.000021
22.530	0.000049
22.535	0.000015
22.540	0.000035
22.545	0.000015
22.550	0.000028
22.555	0.000028
22.560	0.000021
22.565	0.000021
22.570	0.000042
22.575	0.000049
22.580	0.000049
22.585	0.000021
22.590	0.000007
22.595	0.000041
22.600	0.000048
22.605	0.000028
22.610	0.000035
22.615	0.000034
22.620	0.000014
22.625	0.000034
22.630	0.000014
22.635	0.000041
22.640	0.000008
22.645	0.000021
22.650	0.000028
22.655	-0.000006
22.660	0.000014
22.665	0.000035
22.670	0.000034
22.675	0.000021
22.680	0.000034
22.685	0.000000
22.690	0.000014
22.695	0.000007
22.700	0.000014
22.705	0.000041
22.710	0.000042
22.715	0.000007
22.720	0.000027
22.725	0.000048
22.730	0.000013
22.735	0.000020
22.740	0.000034
22.745	0.000034
22.750	0.000006
22.755	0.000020
22.760	0.000013
22.765	-0.000000
22.770	0.000048
22.775	0.000041
22.780	0.000048
22.785	-0.000001
22.790	0.000006
22.795	0.000027
22.800	0.000020
22.805	0.000041
22.810	0.000013
22.815	0.000013
22.820	0.000020
22.825	0.000006
22.830	0.000006
22.835	0.000040
22.840	0.000007
22.845	0.000014
22.850	0.000041
22.855	-0.000001
22.860	0.000033
22.865	0.000006
22.870	0.000033
22.875	0.000006
22.880	0.000020
22.885	0.000013
22.890	0.000020
22.895	-0.000008
22.900	0.000006
22.905	0.000033
22.910	0.000020
22.915	0.000047
22.920	0.000006
22.925	-0.000001
22.930	-0.000008
22.935	0.000033
22.940	0.000019
22.945	0.000019
22.950	-0.000008
22.955	0.000026
22.960	0.000006
22.965	0.000019
22.970	0.000006
22.975	0.000047
22.980	0.000013
22.985	0.000026
22.990	0.000019
22.995	0.000026
23.000	0.000012
23.005	0.000019
23.010	0.000005
23.015	0.000019
23.020	0.000026
23.025	0.000026
23.030	-0.000015
23.035	0.000032
23.040	0.000013
23.045	-0.000001
23.050	0.000026
23.055	0.000025
23.060	0.000005
23.065	0.000032
23.070	0.000032
23.075	0.000012
23.080	-0.000002
23.085	0.000039
23.090	-0.000009
23.095	0.000005
23.100	0.000025
23.105	-0.000022
23.110	0.000026
23.115	0.000033
23.120	0.000025
23.125	0.000018
23.130	0.000011
23.135	0.000005
23.140	-0.000002
23.145	0.000052
23.150	0.000011
23.155	0.000011
23.160	0.000011
23.165	0.000011
23.170	0.000012
23.175	0.000012
23.180	0.000025
23.185	0.000018
23.190	-0.000016
23.195	0.000032
23.200	0.000004
23.205	0.000005
23.210	0.000025
23.215	0.000032
23.220	0.000004
23.225	-0.000009
23.230	0.000011
23.235	0.000025
23.240	0.000018
23.245	-0.000016
23.250	0.000031
23.255	0.000031
23.260	0.000011
23.265	-0.000003
23.270	-0.000003
23.275	0.000024
23.280	0.000011
23.285	0.000004
23.290	0.000024
23.295	0.000017
23.300	0.000011
23.305	-0.000009
23.310	-0.000016
23.315	-0.000003
23.320	0.000024
23.325	0.000017
23.330	0.000031
23.335	0.000017
23.340	0.000004
23.345	0.000044
23.350	-0.000017
23.355	0.000010
23.360	0.000004
23.365	-0.000017
23.370	0.000011
23.375	0.000031
23.380	-0.000030
23.385	0.000010
23.390	-0.000003
23.395	0.000010
23.400	0.000037
23.405	0.000037
23.410	0.000003
23.415	0.000003
23.420	-0.000003
23.425	0.000010
23.430	-0.000031
23.435	0.000017
23.440	0.000018
23.445	0.000017
23.450	0.000023
23.455	-0.000004
23.460	0.000024
23.465	0.000003
23.470	-0.000017
23.475	0.000010
23.480	0.000017
23.485	0.000037
23.490	-0.000017
23.495	0.000023
23.500	0.000030
23.505	0.000003
23.510	0.000017
23.515	0.000003
23.520	0.000003
23.525	0.000023
23.530	0.000016
23.535	0.000003
23.540	0.000009
23.545	-0.000004
23.550	-0.000004
23.555	-0.000004
23.560	0.000016
23.565	0.000030
23.570	0.000016
23.575	0.000003
23.580	-0.000024
23.585	0.000009
23.590	0.000016
23.595	0.000002
23.600	0.000009
23.605	-0.000025
23.610	0.000023
23.615	-0.000025
23.620	0.000009
23.625	0.000002
23.630	0.000036
23.635	0.000016
23.640	0.000010
23.645	0.000016
23.650	0.000002
23.655	0.000009
23.660	-0.000018
23.665	0.000016
23.670	0.000009
23.675	0.000022
23.680	0.000002
23.685	0.000015
23.690	-0.000005
23.695	0.000009
23.700	0.000036
23.705	0.000023
23.710	0.000016
23.715	-0.000012
23.720	0.000015
23.725	0.000049
23.730	0.000002
23.735	0.000008
23.740	0.000036
23.745	0.000002
23.750	0.000002
23.755	-0.000005
23.760	0.000022
23.765	-0.000005
23.770	0.000009
23.775	0.000009
23.780	0.000022
23.785	0.000022
23.790	0.000042
23.795	0.000008
23.800	0.000015
23.805	0.000001
23.810	-0.000012
23.815	-0.000006
23.820	-0.000026
23.825	-0.000012
23.830	0.000001
23.835	-0.000005
23.840	0.000022
23.845	-0.000012
23.850	0.000008
23.855	0.000021
23.860	0.000015
23.865	0.000001
23.870	0.000015
23.875	0.000015
23.880	-0.000019
23.885	0.000001
23.890	-0.000013
23.895	-0.000006
23.900	0.000008
23.905	0.000022
23.910	0.000015
23.915	0.000008
23.920	-0.000006
23.925	-0.000006
23.930	0.000035
23.935	0.000014
23.940	0.000035
23.945	0.000014
23.950	0.000021
23.955	-0.000013
23.960	0.000021
23.965	0.000001
23.970	-0.000013
23.975	-0.000006
23.980	0.000014
23.985	-0.000006
23.990	-0.000007
23.995	0.000000
24.000	-0.000013
24.005	0.000034
24.010	0.000034
24.015	0.000001
24.020	-0.000013
24.025	0.000000
24.030	-0.000007
24.035	-0.000013
24.040	-0.000006
24.045	-0.000013
24.050	0.000000
24.055	-0.000007
24.060	-0.000034
24.065	0.000027
24.070	0.000000
24.075	0.000034
24.080	-0.000020
24.085	-0.000000
24.090	0.000000
24.095	-0.000027
24.100	-0.000000
24.105	-0.000006
24.110	0.000034
24.115	0.000027
24.120	0.000034
24.125	-0.000028
24.130	0.000007
24.135	0.000013
24.140	0.000020
24.145	-0.000014
24.150	0.000034
24.155	0.000027
24.160	0.000013
24.165	-0.000021
24.170	0.000014
24.175	0.000007
24.180	0.000020
24.185	0.000006
24.190	0.000013
24.195	0.000006
24.200	0.000020
24.205	-0.000001
24.210	-0.000008
24.215	0.000013
24.220	0.000020
24.225	-0.000001
24.230	0.000006
24.235	-0.000014
24.240	-0.000000
24.245	-0.000021
24.250	-0.000035
24.255	-0.000001
24.260	0.000006
24.265	-0.000007
24.270	0.000020
24.275	-0.000008
24.280	0.000026
24.285	0.000013
24.290	-0.000021
24.295	-0.000001
24.300	0.000019
24.305	-0.000007
24.310	0.000007
24.315	-0.000008
24.320	-0.000001
24.325	-0.000001
24.330	-0.000015
24.335	0.000019
24.340	0.000012
24.345	0.000012
24.350	0.000019
24.355	0.000005
24.360	0.000019
24.365	0.000005
24.370	0.000047
24.375	0.000020
24.380	-0.000001
24.385	0.000012
24.390	-0.000015
24.395	-0.000001
24.400	-0.000015
24.405	0.000005
24.410	0.000019
24.415	-0.000001
24.420	0.000026
24.425	-0.000002
24.430	0.000012
24.435	-0.000001
24.440	-0.000001
24.445	0.000012
24.450	0.000005
24.455	0.000012
24.460	0.000005
24.465	-0.000002
24.470	-0.000009
24.475	0.000012
24.480	-0.000029
24.485	0.000012
24.490	-0.000009
24.495	0.000018
24.500	-0.000002
24.505	-0.000008
24.510	-0.000002
24.515	0.000005
24.520	-0.000002
24.525	0.000018
24.530	0.000012
24.535	-0.000022
24.540	0.000018
24.545	0.000005
24.550	0.000032
24.555	0.000018
24.560	0.000018
24.565	0.000005
24.570	0.000005
24.575	-0.000002
24.580	-0.000009
24.585	0.000004
24.590	0.000004
24.595	0.000018
24.600	0.000011
24.605	-0.000003
24.610	0.000025
24.615	-0.000009
24.620	-0.000030
24.625	-0.000009
24.630	0.000024
24.635	0.000004
24.640	0.000032
24.645	0.000011
24.650	0.000017
24.655	0.000038
24.660	0.000004
24.665	0.000024
24.670	-0.000016
24.675	-0.000016
24.680	0.000024
24.685	0.000004
24.690	-0.000009
24.695	-0.000010
24.700	0.000017
24.705	-0.000016
24.710	-0.000009
24.715	-0.000003
24.720	-0.000010
24.725	0.000024
24.730	0.000010
24.735	-0.000003
24.740	0.000010
24.745	-0.000017
24.750	0.000010
24.755	0.000031
24.760	0.000031
24.765	-0.000010
24.770	-0.000017
24.775	-0.000003
24.780	-0.000017
24.785	-0.000004
24.790	0.000003
24.795	0.000017
24.800	0.000031
24.805	0.000003
24.810	-0.000031
24.815	0.000003
24.820	0.000017
24.825	-0.000011
24.830	-0.000010
24.835	0.000003
24.840	0.000004
24.845	0.000017
24.850	0.000003
24.855	-0.000031
24.860	-0.000011
24.865	0.000023
24.870	0.000030
24.875	0.000017
24.880	-0.000018
24.885	-0.000004
24.890	-0.000025
24.895	-0.000018
24.900	0.000037
24.905	-0.000017
24.910	0.000030
24.915	0.000037
24.920	0.000003
24.925	-0.000004
24.930	-0.000011
24.935	-0.000004
24.940	-0.000011
24.945	-0.000018
24.950	0.000009
24.955	0.000009
24.960	0.000002
24.965	-0.000005
24.970	-0.000038
24.975	-0.000004
24.980	-0.000011
24.985	-0.000025
24.990	-0.000011
24.995	0.000016
25.000	0.000002
25.005	0.000009
25.010	0.000002
25.015	0.000002
25.020	0.000022
25.025	0.000002
25.030	0.000002
25.035	0.000009
25.040	0.000023
25.045	-0.000005
25.050	-0.000005
25.055	0.000029
25.060	-0.000018
25.065	0.000036
25.070	0.000002
25.075	0.000009
25.080	0.000009
25.085	0.000022
25.090	-0.000019
25.095	-0.000005
25.100	-0.000032
25.105	-0.000005
25.110	-0.000018
25.115	0.000015
25.120	0.000029
25.125	-0.000012
25.130	0.000002
25.135	0.000008
25.140	0.000015
25.145	-0.000005
25.150	-0.000006
25.155	0.000001
25.160	-0.000026
25.165	0.000008
25.170	-0.000019
25.175	-0.000005
25.180	0.000015
25.185	0.000001
25.190	0.000022
25.195	0.000008
25.200	0.000015
25.205	-0.000033
25.210	0.000001
25.215	0.000028
25.220	-0.000006
25.225	0.000001
25.230	0.000001
25.235	0.000015
25.240	0.000002
25.245	0.000008
25.250	-0.000013
25.255	-0.000006
25.260	-0.000006
25.265	0.000001
25.270	0.000014
25.275	0.000014
25.280	-0.000006
25.285	0.000007
25.290	-0.000033
25.295	0.000014
25.300	0.000014
25.305	-0.000012
25.310	-0.000020
25.315	-0.000013
25.320	-0.000013
25.325	-0.000006
25.330	0.000001
25.335	0.000014
25.340	0.000000
25.345	0.000000
25.350	0.000014
25.355	-0.000027
25.360	0.000014
25.365	0.000007
25.370	0.000001
25.375	0.000014
25.380	0.000000
25.385	0.000007
25.390	-0.000007
25.395	0.000020
25.400	0.000014
25.405	-0.000014
25.410	-0.000014
25.415	0.000013
25.420	0.000013
25.425	-0.000034
25.430	-0.000007
25.435	-0.000013
25.440	0.000014
25.445	0.000027
25.450	-0.000000
25.455	0.000027
25.460	0.000014
25.465	0.000007
25.470	0.000027
25.475	0.000013
25.480	-0.000007
25.485	0.000006
25.490	-0.000021
25.495	-0.000014
25.500	0.000020
25.505	0.000000
25.510	-0.000007
25.515	-0.000014
25.520	0.000027
25.525	-0.000014
25.530	0.000020
25.535	0.000020
25.540	0.000013
25.545	-0.000008
25.550	-0.000008
25.555	-0.000028
25.560	-0.000008
25.565	0.000006
25.570	-0.000000
25.575	0.000020
25.580	-0.000014
25.585	-0.000001
25.590	0.000019
25.595	0.000019
25.600	0.000020
25.605	-0.000001
25.610	0.000006
25.615	-0.000008
25.620	-0.000001
25.625	-0.000001
25.630	0.000026
25.635	-0.000008
25.640	-0.000007
25.645	0.000006
25.650	-0.000001
25.655	-0.000008
25.660	0.000012
25.665	0.000019
25.670	-0.000035
25.675	0.000005
25.680	0.000019
25.685	0.000026
25.690	-0.000022
25.695	-0.000008
25.700	-0.000015
25.705	0.000012
25.710	-0.000008
25.715	0.000012
25.720	0.000019
25.725	0.000005
25.730	-0.000015
25.735	-0.000002
25.740	-0.000015
25.745	-0.000002
25.750	-0.000029
25.755	0.000012
25.760	-0.000016
25.765	-0.000002
25.770	0.000019
25.775	-0.000008
25.780	0.000005
25.785	-0.000016
25.790	0.000018
25.795	0.000025
25.800	0.000018
25.805	0.000018
25.810	0.000005
25.815	0.000004
25.820	0.000011
25.825	-0.000016
25.830	-0.000009
25.835	0.000012
25.840	0.000026
25.845	-0.000002
25.850	-0.000016
25.855	0.000004
25.860	-0.000002
25.865	0.000004
25.870	-0.000009
25.875	0.000018
25.880	-0.000023
25.885	-0.000016
25.890	0.000004
25.895	-0.000003
25.900	-0.000029
25.905	-0.000016
25.910	-0.000009
25.915	-0.000037
25.920	-0.000030
25.925	0.000004
25.930	-0.000003
25.935	0.000011
25.940	-0.000030
25.945	-0.000023
25.950	0.000004
25.955	-0.000003
25.960	-0.000030
25.965	0.000017
25.970	-0.000016
25.975	0.000011
25.980	0.000017
25.985	-0.000010
25.990	-0.000010
25.995	0.000031
26.000	-0.000003
26.005	0.000017
26.010	-0.000003
26.015	-0.000003
26.020	0.000017
26.025	-0.000010
26.030	-0.000024
26.035	0.000004
26.040	-0.000009
26.045	0.000011
26.050	0.000003
26.055	-0.000010
26.060	0.000003
26.065	-0.000010
26.070	0.000003
26.075	0.000003
26.080	-0.000004
26.085	-0.000004
26.090	-0.000004
26.095	-0.000004
26.100	-0.000017
26.105	-0.000010
26.110	-0.000003
26.115	-0.000011
26.120	0.000003
26.125	-0.000004
26.130	-0.000004
26.135	0.000003
26.140	0.000003
26.145	-0.000011
26.150	0.000030
26.155	-0.000011
26.160	0.000003
26.165	-0.000018
26.170	-0.000010
26.175	0.000017
26.180	-0.000038
26.185	0.000009
26.190	0.000016
26.195	-0.000004
26.200	0.000009
26.205	-0.000011
26.210	0.000003
26.215	0.000036
26.220	0.000002
26.225	-0.000004
26.230	-0.000004
26.235	-0.000004
26.240	0.000017
26.245	-0.000004
26.250	-0.000011
26.255	-0.000005
26.260	-0.000025
26.265	0.000002
26.270	-0.000011
26.275	0.000023
26.280	-0.000032
26.285	0.000002
26.290	0.000002
26.295	-0.000011
26.300	0.000016
26.305	0.000023
26.310	-0.000011
26.315	-0.000005
26.320	0.000002
26.325	0.000022
26.330	0.000015
26.335	-0.000005
26.340	0.000002
26.345	-0.000005
26.350	0.000002
26.355	0.000002
26.360	-0.000011
26.365	0.000016
26.370	0.000023
26.375	-0.000011
26.380	-0.000005
26.385	0.000002
26.390	0.000022
26.395	0.000015
26.400	-0.000005
26.405	0.000002
26.410	-0.000005
