PK2650 Deflection Data
Z Position (mm)	105.000	W Position (deg)	216.00
Preform ID	Diameter (mm)	Time Stamp	Start Time	Operator	Serial Number
Test 1	25	03-Nov-22 18:05:01	03-Nov-22 18:07:09	[no user]	266007708
Radius (mm)	Deflection
-26.215	0.000004
-26.210	-0.000003
-26.205	-0.000010
-26.200	-0.000011
-26.195	-0.000017
-26.190	0.000016
-26.185	-0.000004
-26.180	0.000016
-26.175	-0.000004
-26.170	0.000016
-26.165	0.000037
-26.160	0.000016
-26.155	-0.000011
-26.150	-0.000037
-26.145	-0.000051
-26.140	0.000009
-26.135	-0.000011
-26.130	0.000003
-26.125	-0.000011
-26.120	-0.000011
-26.115	0.000023
-26.110	0.000030
-26.105	0.000023
-26.100	0.000002
-26.095	-0.000011
-26.090	-0.000011
-26.085	-0.000011
-26.080	-0.000004
-26.075	0.000009
-26.070	-0.000011
-26.065	-0.000025
-26.060	-0.000005
-26.055	-0.000018
-26.050	0.000002
-26.045	0.000015
-26.040	-0.000005
-26.035	0.000009
-26.030	-0.000005
-26.025	0.000002
-26.020	0.000023
-26.015	-0.000004
-26.010	0.000002
-26.005	0.000008
-26.000	-0.000019
-25.995	-0.000012
-25.990	-0.000018
-25.985	0.000002
-25.980	0.000002
-25.975	0.000029
-25.970	0.000015
-25.965	0.000022
-25.960	0.000022
-25.955	-0.000005
-25.950	0.000043
-25.945	0.000016
-25.940	0.000015
-25.935	-0.000019
-25.930	-0.000012
-25.925	0.000001
-25.920	0.000008
-25.915	0.000008
-25.910	0.000008
-25.905	0.000015
-25.900	0.000028
-25.895	0.000015
-25.890	0.000022
-25.885	-0.000012
-25.880	0.000002
-25.875	-0.000005
-25.870	-0.000019
-25.865	0.000014
-25.860	0.000008
-25.855	0.000008
-25.850	0.000001
-25.845	0.000015
-25.840	0.000015
-25.835	0.000015
-25.830	0.000001
-25.825	0.000028
-25.820	0.000021
-25.815	0.000001
-25.810	0.000001
-25.805	0.000008
-25.800	-0.000006
-25.795	0.000007
-25.790	0.000028
-25.785	0.000001
-25.780	0.000014
-25.775	0.000021
-25.770	0.000034
-25.765	0.000014
-25.760	0.000021
-25.755	0.000021
-25.750	0.000001
-25.745	0.000035
-25.740	0.000007
-25.735	-0.000013
-25.730	0.000007
-25.725	-0.000020
-25.720	0.000001
-25.715	0.000014
-25.710	0.000021
-25.705	0.000007
-25.700	0.000034
-25.695	0.000021
-25.690	-0.000013
-25.685	0.000021
-25.680	0.000021
-25.675	0.000014
-25.670	-0.000013
-25.665	0.000000
-25.660	0.000000
-25.655	0.000014
-25.650	0.000014
-25.645	0.000034
-25.640	0.000007
-25.635	0.000034
-25.630	0.000020
-25.625	0.000041
-25.620	-0.000006
-25.615	0.000001
-25.610	0.000014
-25.605	0.000014
-25.600	-0.000014
-25.595	0.000020
-25.590	0.000034
-25.585	0.000014
-25.580	0.000020
-25.575	0.000068
-25.570	0.000027
-25.565	0.000021
-25.560	0.000047
-25.555	0.000000
-25.550	0.000000
-25.545	0.000034
-25.540	0.000006
-25.535	0.000006
-25.530	0.000007
-25.525	0.000013
-25.520	-0.000000
-25.515	0.000034
-25.510	0.000020
-25.505	0.000054
-25.500	0.000020
-25.495	0.000034
-25.490	0.000047
-25.485	0.000034
-25.480	0.000014
-25.475	0.000020
-25.470	0.000020
-25.465	0.000040
-25.460	0.000013
-25.455	0.000027
-25.450	0.000013
-25.445	0.000007
-25.440	0.000040
-25.435	0.000034
-25.430	0.000027
-25.425	0.000013
-25.420	0.000013
-25.415	0.000047
-25.410	0.000034
-25.405	0.000019
-25.400	0.000040
-25.395	-0.000007
-25.390	0.000047
-25.385	0.000026
-25.380	0.000020
-25.375	0.000033
-25.370	0.000026
-25.365	0.000013
-25.360	0.000046
-25.355	0.000033
-25.350	0.000027
-25.345	0.000020
-25.340	0.000033
-25.335	0.000026
-25.330	0.000047
-25.325	0.000006
-25.320	0.000020
-25.315	0.000040
-25.310	0.000040
-25.305	0.000033
-25.300	0.000026
-25.295	0.000080
-25.290	0.000006
-25.285	0.000026
-25.280	0.000027
-25.275	0.000026
-25.270	0.000019
-25.265	-0.000015
-25.260	0.000040
-25.255	0.000026
-25.250	0.000046
-25.245	0.000026
-25.240	0.000012
-25.235	0.000060
-25.230	0.000039
-25.225	0.000019
-25.220	0.000020
-25.215	0.000027
-25.210	0.000006
-25.205	0.000019
-25.200	0.000039
-25.195	0.000033
-25.190	0.000033
-25.185	0.000039
-25.180	0.000053
-25.175	0.000073
-25.170	0.000046
-25.165	0.000026
-25.160	0.000026
-25.155	0.000039
-25.150	0.000033
-25.145	0.000026
-25.140	0.000032
-25.135	0.000032
-25.130	0.000032
-25.125	0.000025
-25.120	0.000019
-25.115	0.000019
-25.110	0.000026
-25.105	0.000032
-25.100	0.000012
-25.095	0.000025
-25.090	0.000066
-25.085	0.000040
-25.080	0.000046
-25.075	0.000019
-25.070	0.000032
-25.065	0.000025
-25.060	0.000039
-25.055	0.000053
-25.050	0.000046
-25.045	0.000059
-25.040	0.000053
-25.035	0.000032
-25.030	0.000052
-25.025	0.000046
-25.020	0.000039
-25.015	0.000012
-25.010	-0.000002
-25.005	0.000018
-25.000	0.000032
-24.995	0.000005
-24.990	0.000025
-24.985	0.000045
-24.980	0.000059
-24.975	0.000046
-24.970	0.000052
-24.965	0.000053
-24.960	0.000019
-24.955	0.000053
-24.950	0.000060
-24.945	0.000039
-24.940	0.000012
-24.935	0.000039
-24.930	0.000025
-24.925	0.000012
-24.920	0.000052
-24.915	0.000012
-24.910	0.000039
-24.905	0.000032
-24.900	0.000052
-24.895	0.000045
-24.890	0.000039
-24.885	0.000032
-24.880	0.000046
-24.875	0.000018
-24.870	0.000072
-24.865	0.000045
-24.860	0.000038
-24.855	0.000052
-24.850	0.000052
-24.845	0.000059
-24.840	0.000018
-24.835	0.000059
-24.830	0.000018
-24.825	0.000039
-24.820	0.000025
-24.815	0.000046
-24.810	0.000039
-24.805	0.000025
-24.800	0.000032
-24.795	0.000025
-24.790	0.000025
-24.785	0.000032
-24.780	0.000039
-24.775	0.000072
-24.770	0.000018
-24.765	0.000032
-24.760	0.000052
-24.755	0.000045
-24.750	0.000039
-24.745	0.000032
-24.740	0.000045
-24.735	0.000052
-24.730	0.000045
-24.725	0.000031
-24.720	0.000031
-24.715	0.000018
-24.710	0.000066
-24.705	0.000059
-24.700	0.000066
-24.695	0.000038
-24.690	0.000012
-24.685	0.000039
-24.680	0.000032
-24.675	0.000025
-24.670	0.000018
-24.665	0.000031
-24.660	0.000025
-24.655	0.000038
-24.650	0.000039
-24.645	0.000032
-24.640	0.000018
-24.635	0.000038
-24.630	0.000038
-24.625	0.000045
-24.620	0.000052
-24.615	0.000005
-24.610	0.000038
-24.605	0.000038
-24.600	0.000011
-24.595	0.000031
-24.590	0.000051
-24.585	0.000038
-24.580	0.000065
-24.575	0.000058
-24.570	0.000038
-24.565	0.000052
-24.560	0.000065
-24.555	0.000032
-24.550	0.000052
-24.545	0.000066
-24.540	0.000038
-24.535	0.000031
-24.530	0.000079
-24.525	0.000031
-24.520	0.000038
-24.515	0.000065
-24.510	0.000065
-24.505	0.000079
-24.500	0.000085
-24.495	0.000052
-24.490	0.000065
-24.485	0.000079
-24.480	0.000032
-24.475	0.000024
-24.470	0.000058
-24.465	0.000031
-24.460	0.000065
-24.455	0.000072
-24.450	0.000051
-24.445	0.000078
-24.440	0.000045
-24.435	0.000045
-24.430	0.000058
-24.425	0.000058
-24.420	0.000038
-24.415	0.000032
-24.410	0.000065
-24.405	0.000058
-24.400	0.000051
-24.395	0.000011
-24.390	0.000038
-24.385	0.000079
-24.380	0.000065
-24.375	0.000065
-24.370	0.000044
-24.365	0.000051
-24.360	0.000044
-24.355	0.000058
-24.350	0.000058
-24.345	0.000052
-24.340	0.000044
-24.335	0.000031
-24.330	0.000024
-24.325	0.000071
-24.320	0.000051
-24.315	0.000051
-24.310	0.000051
-24.305	0.000058
-24.300	0.000024
-24.295	0.000044
-24.290	0.000071
-24.285	0.000052
-24.280	0.000031
-24.275	0.000064
-24.270	0.000064
-24.265	0.000037
-24.260	0.000051
-24.255	0.000044
-24.250	0.000071
-24.245	0.000085
-24.240	0.000071
-24.235	0.000057
-24.230	0.000050
-24.225	0.000050
-24.220	0.000057
-24.215	0.000051
-24.210	0.000051
-24.205	0.000050
-24.200	0.000050
-24.195	0.000017
-24.190	0.000043
-24.185	0.000057
-24.180	0.000057
-24.175	0.000078
-24.170	0.000050
-24.165	0.000077
-24.160	0.000064
-24.155	0.000071
-24.150	0.000064
-24.145	0.000023
-24.140	0.000050
-24.135	0.000050
-24.130	0.000036
-24.125	0.000043
-24.120	0.000077
-24.115	0.000057
-24.110	0.000084
-24.105	0.000064
-24.100	0.000070
-24.095	0.000070
-24.090	0.000084
-24.085	0.000023
-24.080	0.000057
-24.075	0.000043
-24.070	0.000056
-24.065	0.000030
-24.060	0.000043
-24.055	0.000009
-24.050	0.000050
-24.045	0.000043
-24.040	0.000050
-24.035	0.000056
-24.030	0.000043
-24.025	0.000043
-24.020	0.000037
-24.015	0.000057
-24.010	0.000029
-24.005	0.000016
-24.000	0.000049
-23.995	0.000009
-23.990	0.000056
-23.985	0.000063
-23.980	0.000043
-23.975	0.000050
-23.970	0.000070
-23.965	0.000016
-23.960	0.000063
-23.955	0.000036
-23.950	0.000023
-23.945	0.000022
-23.940	0.000035
-23.935	0.000042
-23.930	0.000022
-23.925	0.000015
-23.920	0.000035
-23.915	0.000083
-23.910	0.000069
-23.905	0.000035
-23.900	0.000042
-23.895	0.000049
-23.890	0.000022
-23.885	0.000022
-23.880	0.000043
-23.875	0.000008
-23.870	0.000001
-23.865	0.000042
-23.860	0.000028
-23.855	0.000001
-23.850	0.000048
-23.845	0.000035
-23.840	0.000055
-23.835	0.000042
-23.830	0.000042
-23.825	0.000062
-23.820	0.000028
-23.815	0.000015
-23.810	0.000042
-23.805	0.000041
-23.800	0.000028
-23.795	0.000028
-23.790	0.000041
-23.785	0.000021
-23.780	0.000028
-23.775	0.000062
-23.770	0.000055
-23.765	0.000041
-23.760	0.000041
-23.755	0.000015
-23.750	0.000008
-23.745	0.000015
-23.740	0.000014
-23.735	0.000041
-23.730	0.000021
-23.725	0.000028
-23.720	0.000061
-23.715	0.000034
-23.710	0.000028
-23.705	0.000041
-23.700	0.000007
-23.695	0.000021
-23.690	0.000034
-23.685	0.000014
-23.680	-0.000006
-23.675	0.000020
-23.670	0.000047
-23.665	0.000007
-23.660	0.000054
-23.655	0.000000
-23.650	0.000027
-23.645	0.000034
-23.640	0.000054
-23.635	0.000027
-23.630	-0.000000
-23.625	0.000027
-23.620	0.000014
-23.615	-0.000006
-23.610	0.000047
-23.605	-0.000000
-23.600	0.000013
-23.595	0.000020
-23.590	0.000013
-23.585	0.000034
-23.580	-0.000021
-23.575	0.000006
-23.570	0.000006
-23.565	0.000027
-23.560	-0.000014
-23.555	-0.000014
-23.550	0.000000
-23.545	-0.000014
-23.540	0.000006
-23.535	-0.000001
-23.530	-0.000021
-23.525	-0.000021
-23.520	-0.000014
-23.515	0.000019
-23.510	-0.000001
-23.505	-0.000008
-23.500	-0.000021
-23.495	-0.000055
-23.490	-0.000021
-23.485	-0.000027
-23.480	-0.000055
-23.475	-0.000062
-23.470	-0.000035
-23.465	-0.000021
-23.460	-0.000035
-23.455	-0.000042
-23.450	-0.000008
-23.445	-0.000008
-23.440	0.000006
-23.435	-0.000015
-23.430	-0.000029
-23.425	-0.000022
-23.420	-0.000015
-23.415	-0.000055
-23.410	-0.000035
-23.405	-0.000029
-23.400	-0.000009
-23.395	0.000005
-23.390	-0.000036
-23.385	-0.000036
-23.380	0.000005
-23.375	-0.000002
-23.370	-0.000036
-23.365	0.000019
-23.360	-0.000009
-23.355	-0.000035
-23.350	-0.000022
-23.345	-0.000002
-23.340	-0.000029
-23.335	-0.000029
-23.330	-0.000029
-23.325	-0.000036
-23.320	-0.000023
-23.315	-0.000022
-23.310	0.000005
-23.305	-0.000009
-23.300	0.000004
-23.295	-0.000043
-23.290	-0.000030
-23.285	-0.000029
-23.280	-0.000043
-23.275	-0.000036
-23.270	-0.000016
-23.265	-0.000050
-23.260	-0.000037
-23.255	-0.000016
-23.250	-0.000023
-23.245	-0.000009
-23.240	-0.000016
-23.235	-0.000009
-23.230	0.000004
-23.225	-0.000016
-23.220	-0.000009
-23.215	-0.000009
-23.210	-0.000071
-23.205	-0.000037
-23.200	-0.000030
-23.195	-0.000023
-23.190	-0.000023
-23.185	-0.000023
-23.180	0.000017
-23.175	-0.000023
-23.170	0.000004
-23.165	-0.000003
-23.160	-0.000003
-23.155	-0.000030
-23.150	-0.000036
-23.145	-0.000050
-23.140	0.000017
-23.135	-0.000037
-23.130	-0.000017
-23.125	-0.000037
-23.120	-0.000044
-23.115	-0.000037
-23.110	-0.000003
-23.105	0.000010
-23.100	-0.000010
-23.095	-0.000024
-23.090	-0.000050
-23.085	-0.000016
-23.080	-0.000050
-23.075	-0.000037
-23.070	-0.000024
-23.065	-0.000004
-23.060	-0.000037
-23.055	-0.000030
-23.050	-0.000044
-23.045	-0.000004
-23.040	-0.000031
-23.035	0.000003
-23.030	-0.000018
-23.025	-0.000065
-23.020	-0.000044
-23.015	-0.000037
-23.010	-0.000051
-23.005	-0.000045
-23.000	-0.000024
-22.995	-0.000024
-22.990	-0.000038
-22.985	-0.000018
-22.980	-0.000031
-22.975	-0.000024
-22.970	-0.000024
-22.965	-0.000044
-22.960	-0.000024
-22.955	-0.000037
-22.950	-0.000064
-22.945	-0.000031
-22.940	-0.000072
-22.935	-0.000052
-22.930	-0.000025
-22.925	0.000003
-22.920	-0.000045
-22.915	-0.000051
-22.910	-0.000058
-22.905	-0.000018
-22.900	-0.000025
-22.895	-0.000025
-22.890	-0.000065
-22.885	-0.000038
-22.880	-0.000024
-22.875	-0.000045
-22.870	-0.000052
-22.865	-0.000032
-22.860	-0.000039
-22.855	-0.000052
-22.850	-0.000032
-22.845	-0.000025
-22.840	-0.000038
-22.835	-0.000005
-22.830	0.000009
-22.825	-0.000025
-22.820	-0.000031
-22.815	-0.000038
-22.810	-0.000045
-22.805	-0.000032
-22.800	-0.000039
-22.795	-0.000052
-22.790	-0.000052
-22.785	-0.000045
-22.780	-0.000025
-22.775	-0.000018
-22.770	-0.000039
-22.765	-0.000052
-22.760	-0.000032
-22.755	-0.000011
-22.750	-0.000052
-22.745	-0.000059
-22.740	-0.000086
-22.735	-0.000019
-22.730	-0.000046
-22.725	-0.000053
-22.720	-0.000066
-22.715	-0.000005
-22.710	-0.000019
-22.705	-0.000025
-22.700	-0.000039
-22.695	-0.000026
-22.690	-0.000045
-22.685	-0.000045
-22.680	-0.000032
-22.675	-0.000059
-22.670	-0.000039
-22.665	-0.000046
-22.660	-0.000026
-22.655	-0.000032
-22.650	-0.000039
-22.645	-0.000019
-22.640	-0.000046
-22.635	-0.000039
-22.630	-0.000060
-22.625	-0.000033
-22.620	-0.000039
-22.615	-0.000032
-22.610	-0.000039
-22.605	-0.000053
-22.600	-0.000040
-22.595	-0.000046
-22.590	-0.000026
-22.585	-0.000040
-22.580	-0.000019
-22.575	-0.000073
-22.570	-0.000046
-22.565	-0.000053
-22.560	-0.000046
-22.555	-0.000046
-22.550	-0.000066
-22.545	-0.000039
-22.540	-0.000087
-22.535	-0.000046
-22.530	-0.000060
-22.525	-0.000053
-22.520	-0.000040
-22.515	-0.000019
-22.510	-0.000047
-22.505	-0.000053
-22.500	-0.000054
-22.495	-0.000053
-22.490	-0.000053
-22.485	-0.000046
-22.480	-0.000053
-22.475	-0.000087
-22.470	-0.000074
-22.465	-0.000040
-22.460	-0.000067
-22.455	-0.000047
-22.450	-0.000047
-22.445	-0.000040
-22.440	-0.000040
-22.435	-0.000020
-22.430	-0.000040
-22.425	-0.000060
-22.420	-0.000033
-22.415	-0.000033
-22.410	-0.000054
-22.405	-0.000040
-22.400	-0.000088
-22.395	-0.000053
-22.390	-0.000047
-22.385	-0.000020
-22.380	-0.000060
-22.375	-0.000047
-22.370	-0.000013
-22.365	-0.000047
-22.360	-0.000034
-22.355	-0.000054
-22.350	-0.000047
-22.345	-0.000047
-22.340	-0.000034
-22.335	-0.000054
-22.330	-0.000041
-22.325	-0.000047
-22.320	-0.000047
-22.315	-0.000027
-22.310	-0.000020
-22.305	-0.000061
-22.300	-0.000041
-22.295	-0.000047
-22.290	-0.000061
-22.285	-0.000040
-22.280	-0.000054
-22.275	-0.000061
-22.270	-0.000075
-22.265	-0.000061
-22.260	-0.000068
-22.255	-0.000047
-22.250	-0.000034
-22.245	-0.000027
-22.240	-0.000054
-22.235	-0.000054
-22.230	-0.000075
-22.225	-0.000054
-22.220	-0.000054
-22.215	-0.000047
-22.210	-0.000048
-22.205	-0.000054
-22.200	-0.000055
-22.195	-0.000068
-22.190	-0.000068
-22.185	-0.000028
-22.180	-0.000034
-22.175	-0.000055
-22.170	-0.000034
-22.165	-0.000027
-22.160	-0.000041
-22.155	-0.000067
-22.150	-0.000027
-22.145	-0.000095
-22.140	-0.000068
-22.135	-0.000041
-22.130	-0.000068
-22.125	-0.000034
-22.120	-0.000041
-22.115	-0.000048
-22.110	-0.000034
-22.105	-0.000054
-22.100	-0.000021
-22.095	-0.000048
-22.090	-0.000041
-22.085	-0.000068
-22.080	-0.000081
-22.075	-0.000068
-22.070	-0.000068
-22.065	-0.000055
-22.060	-0.000041
-22.055	-0.000062
-22.050	-0.000041
-22.045	-0.000041
-22.040	-0.000041
-22.035	-0.000055
-22.030	-0.000055
-22.025	-0.000027
-22.020	-0.000048
-22.015	-0.000054
-22.010	-0.000062
-22.005	-0.000062
-22.000	-0.000062
-21.995	-0.000068
-21.990	-0.000055
-21.985	-0.000048
-21.980	-0.000035
-21.975	-0.000021
-21.970	-0.000021
-21.965	-0.000035
-21.960	-0.000062
-21.955	-0.000048
-21.950	-0.000048
-21.945	-0.000048
-21.940	-0.000076
-21.935	-0.000042
-21.930	-0.000028
-21.925	-0.000048
-21.920	-0.000015
-21.915	-0.000055
-21.910	-0.000042
-21.905	-0.000035
-21.900	-0.000042
-21.895	-0.000055
-21.890	-0.000062
-21.885	-0.000041
-21.880	-0.000055
-21.875	-0.000049
-21.870	-0.000035
-21.865	-0.000049
-21.860	-0.000076
-21.855	-0.000042
-21.850	-0.000035
-21.845	-0.000062
-21.840	-0.000035
-21.835	-0.000042
-21.830	-0.000015
-21.825	-0.000069
-21.820	-0.000021
-21.815	-0.000055
-21.810	-0.000049
-21.805	-0.000042
-21.800	-0.000029
-21.795	-0.000042
-21.790	-0.000062
-21.785	-0.000028
-21.780	-0.000056
-21.775	-0.000035
-21.770	0.000005
-21.765	-0.000042
-21.760	-0.000042
-21.755	-0.000055
-21.750	-0.000041
-21.745	-0.000028
-21.740	-0.000042
-21.735	-0.000028
-21.730	-0.000035
-21.725	-0.000028
-21.720	-0.000042
-21.715	-0.000042
-21.710	-0.000035
-21.705	-0.000002
-21.700	-0.000035
-21.695	-0.000022
-21.690	-0.000028
-21.685	-0.000035
-21.680	-0.000035
-21.675	-0.000063
-21.670	-0.000043
-21.665	-0.000036
-21.660	-0.000035
-21.655	-0.000035
-21.650	-0.000036
-21.645	-0.000022
-21.640	-0.000070
-21.635	-0.000049
-21.630	-0.000015
-21.625	-0.000029
-21.620	-0.000076
-21.615	-0.000001
-21.610	-0.000043
-21.605	-0.000042
-21.600	-0.000036
-21.595	-0.000022
-21.590	-0.000029
-21.585	-0.000042
-21.580	-0.000002
-21.575	-0.000029
-21.570	-0.000036
-21.565	-0.000009
-21.560	-0.000029
-21.555	-0.000035
-21.550	-0.000049
-21.545	-0.000043
-21.540	-0.000050
-21.535	-0.000023
-21.530	-0.000016
-21.525	-0.000009
-21.520	-0.000016
-21.515	-0.000029
-21.510	-0.000016
-21.505	-0.000009
-21.500	-0.000016
-21.495	-0.000002
-21.490	0.000025
-21.485	-0.000015
-21.480	-0.000009
-21.475	0.000012
-21.470	-0.000009
-21.465	0.000005
-21.460	0.000025
-21.455	0.000046
-21.450	0.000066
-21.445	0.000121
-21.440	0.000223
-21.435	0.000332
-21.430	0.000557
-21.425	0.000872
-21.420	0.001277
-21.415	0.001814
-21.410	0.002559
-21.405	0.003581
-21.400	0.004815
-21.395	0.006296
-21.390	0.008051
-21.385	0.010034
-21.380	0.012411
-21.375	0.015151
-21.370	0.018119
-21.365	0.021298
-21.360	0.024691
-21.355	0.028305
-21.350	0.031953
-21.345	0.035523
-21.340	0.039165
-21.335	0.042856
-21.330	0.046285
-21.325	0.049497
-21.320	0.050448
-21.315	0.049529
-21.310	0.048764
-21.305	0.047252
-21.300	0.045329
-21.295	0.044368
-21.290	0.043546
-21.285	0.042569
-21.280	0.041735
-21.275	0.041215
-21.270	0.040129
-21.265	0.038937
-21.260	0.037976
-21.255	0.036959
-21.250	0.036045
-21.245	0.035746
-21.240	0.034945
-21.235	0.034123
-21.230	0.034012
-21.225	0.033311
-21.220	0.032717
-21.215	0.032203
-21.210	0.031772
-21.205	0.031351
-21.200	0.030979
-21.195	0.030699
-21.190	0.030337
-21.185	0.030402
-21.180	0.030141
-21.175	0.029249
-21.170	0.028479
-21.165	0.028190
-21.160	0.027901
-21.155	0.027466
-21.150	0.027089
-21.145	0.026956
-21.140	0.026819
-21.135	0.027027
-21.130	0.027129
-21.125	0.026432
-21.120	0.025722
-21.115	0.025507
-21.110	0.025349
-21.105	0.025095
-21.100	0.024881
-21.095	0.024758
-21.090	0.024552
-21.085	0.024232
-21.080	0.023896
-21.075	0.023754
-21.070	0.023583
-21.065	0.023326
-21.060	0.023090
-21.055	0.022860
-21.050	0.022670
-21.045	0.022595
-21.040	0.022486
-21.035	0.022332
-21.030	0.022170
-21.025	0.021989
-21.020	0.021862
-21.015	0.021737
-21.010	0.021580
-21.005	0.021575
-21.000	0.021457
-20.995	0.021397
-20.990	0.021243
-20.985	0.021042
-20.980	0.020814
-20.975	0.020708
-20.970	0.020594
-20.965	0.020477
-20.960	0.020323
-20.955	0.020180
-20.950	0.020056
-20.945	0.019944
-20.940	0.019807
-20.935	0.019705
-20.930	0.019604
-20.925	0.019528
-20.920	0.019377
-20.915	0.019260
-20.910	0.019153
-20.905	0.019041
-20.900	0.018947
-20.895	0.018849
-20.890	0.018743
-20.885	0.018612
-20.880	0.018570
-20.875	0.018488
-20.870	0.018366
-20.865	0.018325
-20.860	0.018273
-20.855	0.018172
-20.850	0.018115
-20.845	0.017950
-20.840	0.017835
-20.835	0.017769
-20.830	0.017642
-20.825	0.017517
-20.820	0.017430
-20.815	0.017344
-20.810	0.017239
-20.805	0.017153
-20.800	0.017092
-20.795	0.017051
-20.790	0.017019
-20.785	0.016931
-20.780	0.016870
-20.775	0.016815
-20.770	0.016757
-20.765	0.016714
-20.760	0.016602
-20.755	0.016505
-20.750	0.016423
-20.745	0.016315
-20.740	0.016265
-20.735	0.016189
-20.730	0.016106
-20.725	0.016059
-20.720	0.015986
-20.715	0.015921
-20.710	0.015883
-20.705	0.015783
-20.700	0.015734
-20.695	0.015684
-20.690	0.015587
-20.685	0.015521
-20.680	0.015483
-20.675	0.015467
-20.670	0.015353
-20.665	0.015358
-20.660	0.015292
-20.655	0.015216
-20.650	0.015199
-20.645	0.015143
-20.640	0.015050
-20.635	0.015003
-20.630	0.015004
-20.625	0.014907
-20.620	0.014885
-20.615	0.014833
-20.610	0.014762
-20.605	0.014740
-20.600	0.014683
-20.595	0.014654
-20.590	0.014590
-20.585	0.014538
-20.580	0.014495
-20.575	0.014452
-20.570	0.014418
-20.565	0.014339
-20.560	0.014308
-20.555	0.014205
-20.550	0.014180
-20.545	0.014114
-20.540	0.014071
-20.535	0.014013
-20.530	0.014003
-20.525	0.013963
-20.520	0.013936
-20.515	0.013907
-20.510	0.013850
-20.505	0.013791
-20.500	0.013754
-20.495	0.013703
-20.490	0.013696
-20.485	0.013674
-20.480	0.013607
-20.475	0.013608
-20.470	0.013577
-20.465	0.013523
-20.460	0.013517
-20.455	0.013453
-20.450	0.013402
-20.445	0.013383
-20.440	0.013330
-20.435	0.013281
-20.430	0.013229
-20.425	0.013171
-20.420	0.013155
-20.415	0.013108
-20.410	0.013065
-20.405	0.013019
-20.400	0.012964
-20.395	0.012962
-20.390	0.012923
-20.385	0.012881
-20.380	0.012877
-20.375	0.012856
-20.370	0.012819
-20.365	0.012776
-20.360	0.012757
-20.355	0.012691
-20.350	0.012672
-20.345	0.012614
-20.340	0.012578
-20.335	0.012552
-20.330	0.012531
-20.325	0.012498
-20.320	0.012472
-20.315	0.012440
-20.310	0.012391
-20.305	0.012332
-20.300	0.012321
-20.295	0.012270
-20.290	0.012229
-20.285	0.012196
-20.280	0.012188
-20.275	0.012137
-20.270	0.012095
-20.265	0.012088
-20.260	0.012082
-20.255	0.012033
-20.250	0.012028
-20.245	0.011980
-20.240	0.011993
-20.235	0.011954
-20.230	0.011930
-20.225	0.011898
-20.220	0.011856
-20.215	0.011831
-20.210	0.011804
-20.205	0.011771
-20.200	0.011759
-20.195	0.011742
-20.190	0.011740
-20.185	0.011711
-20.180	0.011688
-20.175	0.011665
-20.170	0.011621
-20.165	0.011579
-20.160	0.011534
-20.155	0.011556
-20.150	0.011527
-20.145	0.011487
-20.140	0.011437
-20.135	0.011415
-20.130	0.011399
-20.125	0.011368
-20.120	0.011347
-20.115	0.011311
-20.110	0.011294
-20.105	0.011290
-20.100	0.011232
-20.095	0.011182
-20.090	0.011195
-20.085	0.011180
-20.080	0.011096
-20.075	0.011087
-20.070	0.011077
-20.065	0.011078
-20.060	0.011058
-20.055	0.011033
-20.050	0.010991
-20.045	0.010999
-20.040	0.010962
-20.035	0.010954
-20.030	0.010898
-20.025	0.010882
-20.020	0.010869
-20.015	0.010806
-20.010	0.010830
-20.005	0.010769
-20.000	0.010763
-19.995	0.010754
-19.990	0.010746
-19.985	0.010710
-19.980	0.010702
-19.975	0.010693
-19.970	0.010671
-19.965	0.010595
-19.960	0.010611
-19.955	0.010575
-19.950	0.010548
-19.945	0.010559
-19.940	0.010522
-19.935	0.010497
-19.930	0.010475
-19.925	0.010478
-19.920	0.010447
-19.915	0.010458
-19.910	0.010451
-19.905	0.010392
-19.900	0.010408
-19.895	0.010353
-19.890	0.010350
-19.885	0.010346
-19.880	0.010316
-19.875	0.010297
-19.870	0.010264
-19.865	0.010234
-19.860	0.010219
-19.855	0.010235
-19.850	0.010215
-19.845	0.010198
-19.840	0.010172
-19.835	0.010161
-19.830	0.010125
-19.825	0.010078
-19.820	0.010065
-19.815	0.010059
-19.810	0.010014
-19.805	0.010013
-19.800	0.009991
-19.795	0.009961
-19.790	0.009961
-19.785	0.009925
-19.780	0.009891
-19.775	0.009878
-19.770	0.009877
-19.765	0.009821
-19.760	0.009815
-19.755	0.009798
-19.750	0.009776
-19.745	0.009717
-19.740	0.009746
-19.735	0.009704
-19.730	0.009711
-19.725	0.009692
-19.720	0.009657
-19.715	0.009643
-19.710	0.009599
-19.705	0.009599
-19.700	0.009549
-19.695	0.009530
-19.690	0.009533
-19.685	0.009516
-19.680	0.009478
-19.675	0.009470
-19.670	0.009441
-19.665	0.009419
-19.660	0.009416
-19.655	0.009458
-19.650	0.009411
-19.645	0.009387
-19.640	0.009368
-19.635	0.009333
-19.630	0.009345
-19.625	0.009314
-19.620	0.009295
-19.615	0.009266
-19.610	0.009213
-19.605	0.009240
-19.600	0.009273
-19.595	0.009238
-19.590	0.009215
-19.585	0.009241
-19.580	0.009196
-19.575	0.009172
-19.570	0.009186
-19.565	0.009187
-19.560	0.009165
-19.555	0.009129
-19.550	0.009131
-19.545	0.009106
-19.540	0.009068
-19.535	0.009099
-19.530	0.009083
-19.525	0.009033
-19.520	0.009072
-19.515	0.009046
-19.510	0.009036
-19.505	0.009039
-19.500	0.009009
-19.495	0.009009
-19.490	0.008988
-19.485	0.008974
-19.480	0.009009
-19.475	0.008955
-19.470	0.008950
-19.465	0.008924
-19.460	0.008923
-19.455	0.008898
-19.450	0.008891
-19.445	0.008865
-19.440	0.008871
-19.435	0.008879
-19.430	0.008851
-19.425	0.008792
-19.420	0.008776
-19.415	0.008784
-19.410	0.008748
-19.405	0.008756
-19.400	0.008791
-19.395	0.008770
-19.390	0.008708
-19.385	0.008723
-19.380	0.008702
-19.375	0.008690
-19.370	0.008686
-19.365	0.008681
-19.360	0.008656
-19.355	0.008651
-19.350	0.008642
-19.345	0.008641
-19.340	0.008618
-19.335	0.008601
-19.330	0.008581
-19.325	0.008616
-19.320	0.008542
-19.315	0.008553
-19.310	0.008566
-19.305	0.008537
-19.300	0.008542
-19.295	0.008498
-19.290	0.008519
-19.285	0.008482
-19.280	0.008466
-19.275	0.008476
-19.270	0.008472
-19.265	0.008456
-19.260	0.008427
-19.255	0.008419
-19.250	0.008408
-19.245	0.008421
-19.240	0.008399
-19.235	0.008364
-19.230	0.008348
-19.225	0.008385
-19.220	0.008356
-19.215	0.008319
-19.210	0.008308
-19.205	0.008329
-19.200	0.008310
-19.195	0.008304
-19.190	0.008278
-19.185	0.008279
-19.180	0.008265
-19.175	0.008274
-19.170	0.008273
-19.165	0.008246
-19.160	0.008261
-19.155	0.008230
-19.150	0.008211
-19.145	0.008210
-19.140	0.008185
-19.135	0.008208
-19.130	0.008200
-19.125	0.008160
-19.120	0.008196
-19.115	0.008157
-19.110	0.008157
-19.105	0.008180
-19.100	0.008147
-19.095	0.008149
-19.090	0.008101
-19.085	0.008106
-19.080	0.008115
-19.075	0.008066
-19.070	0.008074
-19.065	0.008081
-19.060	0.008069
-19.055	0.008064
-19.050	0.008057
-19.045	0.008021
-19.040	0.008013
-19.035	0.007984
-19.030	0.008032
-19.025	0.007985
-19.020	0.007972
-19.015	0.007929
-19.010	0.007947
-19.005	0.007927
-19.000	0.007907
-18.995	0.007923
-18.990	0.007890
-18.985	0.007897
-18.980	0.007876
-18.975	0.007856
-18.970	0.007842
-18.965	0.007834
-18.960	0.007802
-18.955	0.007790
-18.950	0.007786
-18.945	0.007754
-18.940	0.007745
-18.935	0.007741
-18.930	0.007740
-18.925	0.007741
-18.920	0.007742
-18.915	0.007710
-18.910	0.007695
-18.905	0.007722
-18.900	0.007680
-18.895	0.007654
-18.890	0.007655
-18.885	0.007630
-18.880	0.007627
-18.875	0.007593
-18.870	0.007585
-18.865	0.007614
-18.860	0.007572
-18.855	0.007585
-18.850	0.007562
-18.845	0.007576
-18.840	0.007576
-18.835	0.007529
-18.830	0.007514
-18.825	0.007544
-18.820	0.007510
-18.815	0.007489
-18.810	0.007466
-18.805	0.007466
-18.800	0.007464
-18.795	0.007462
-18.790	0.007438
-18.785	0.007459
-18.780	0.007456
-18.775	0.007460
-18.770	0.007444
-18.765	0.007434
-18.760	0.007399
-18.755	0.007401
-18.750	0.007384
-18.745	0.007366
-18.740	0.007404
-18.735	0.007377
-18.730	0.007350
-18.725	0.007372
-18.720	0.007351
-18.715	0.007344
-18.710	0.007363
-18.705	0.007361
-18.700	0.007332
-18.695	0.007306
-18.690	0.007300
-18.685	0.007286
-18.680	0.007268
-18.675	0.007268
-18.670	0.007241
-18.665	0.007310
-18.660	0.007239
-18.655	0.007211
-18.650	0.007258
-18.645	0.007250
-18.640	0.007242
-18.635	0.007195
-18.630	0.007214
-18.625	0.007182
-18.620	0.007182
-18.615	0.007171
-18.610	0.007148
-18.605	0.007155
-18.600	0.007155
-18.595	0.007134
-18.590	0.007133
-18.585	0.007121
-18.580	0.007121
-18.575	0.007129
-18.570	0.007135
-18.565	0.007093
-18.560	0.007074
-18.555	0.007054
-18.550	0.007092
-18.545	0.007085
-18.540	0.007085
-18.535	0.007072
-18.530	0.007077
-18.525	0.007079
-18.520	0.007050
-18.515	0.007050
-18.510	0.006989
-18.505	0.007017
-18.500	0.007016
-18.495	0.006997
-18.490	0.007006
-18.485	0.006979
-18.480	0.006947
-18.475	0.006940
-18.470	0.006980
-18.465	0.006948
-18.460	0.006962
-18.455	0.006969
-18.450	0.006928
-18.445	0.006968
-18.440	0.006974
-18.435	0.006947
-18.430	0.006912
-18.425	0.006901
-18.420	0.006920
-18.415	0.006918
-18.410	0.006877
-18.405	0.006898
-18.400	0.006885
-18.395	0.006850
-18.390	0.006877
-18.385	0.006836
-18.380	0.006822
-18.375	0.006863
-18.370	0.006827
-18.365	0.006815
-18.360	0.006805
-18.355	0.006820
-18.350	0.006810
-18.345	0.006814
-18.340	0.006786
-18.335	0.006772
-18.330	0.006764
-18.325	0.006772
-18.320	0.006771
-18.315	0.006771
-18.310	0.006751
-18.305	0.006716
-18.300	0.006756
-18.295	0.006698
-18.290	0.006712
-18.285	0.006718
-18.280	0.006673
-18.275	0.006675
-18.270	0.006667
-18.265	0.006674
-18.260	0.006674
-18.255	0.006653
-18.250	0.006673
-18.245	0.006668
-18.240	0.006646
-18.235	0.006667
-18.230	0.006674
-18.225	0.006637
-18.220	0.006585
-18.215	0.006610
-18.210	0.006574
-18.205	0.006603
-18.200	0.006584
-18.195	0.006571
-18.190	0.006592
-18.185	0.006558
-18.180	0.006545
-18.175	0.006603
-18.170	0.006541
-18.165	0.006597
-18.160	0.006551
-18.155	0.006546
-18.150	0.006560
-18.145	0.006517
-18.140	0.006492
-18.135	0.006508
-18.130	0.006528
-18.125	0.006514
-18.120	0.006548
-18.115	0.006528
-18.110	0.006516
-18.105	0.006489
-18.100	0.006530
-18.095	0.006485
-18.090	0.006479
-18.085	0.006466
-18.080	0.006441
-18.075	0.006484
-18.070	0.006456
-18.065	0.006498
-18.060	0.006471
-18.055	0.006478
-18.050	0.006463
-18.045	0.006476
-18.040	0.006474
-18.035	0.006453
-18.030	0.006445
-18.025	0.006413
-18.020	0.006420
-18.015	0.006382
-18.010	0.006408
-18.005	0.006387
-18.000	0.006372
-17.995	0.006406
-17.990	0.006378
-17.985	0.006370
-17.980	0.006384
-17.975	0.006383
-17.970	0.006395
-17.965	0.006353
-17.960	0.006341
-17.955	0.006341
-17.950	0.006333
-17.945	0.006316
-17.940	0.006309
-17.935	0.006302
-17.930	0.006287
-17.925	0.006308
-17.920	0.006294
-17.915	0.006281
-17.910	0.006301
-17.905	0.006273
-17.900	0.006300
-17.895	0.006261
-17.890	0.006276
-17.885	0.006248
-17.880	0.006265
-17.875	0.006251
-17.870	0.006244
-17.865	0.006231
-17.860	0.006205
-17.855	0.006233
-17.850	0.006224
-17.845	0.006217
-17.840	0.006237
-17.835	0.006188
-17.830	0.006195
-17.825	0.006177
-17.820	0.006190
-17.815	0.006210
-17.810	0.006174
-17.805	0.006180
-17.800	0.006173
-17.795	0.006173
-17.790	0.006138
-17.785	0.006179
-17.780	0.006171
-17.775	0.006177
-17.770	0.006150
-17.765	0.006130
-17.760	0.006131
-17.755	0.006132
-17.750	0.006108
-17.745	0.006100
-17.740	0.006084
-17.735	0.006071
-17.730	0.006092
-17.725	0.006079
-17.720	0.006099
-17.715	0.006043
-17.710	0.006078
-17.705	0.006064
-17.700	0.006047
-17.695	0.006035
-17.690	0.006037
-17.685	0.006016
-17.680	0.005999
-17.675	0.006013
-17.670	0.005998
-17.665	0.005985
-17.660	0.005979
-17.655	0.006000
-17.650	0.005972
-17.645	0.005980
-17.640	0.005958
-17.635	0.005965
-17.630	0.005947
-17.625	0.005943
-17.620	0.005930
-17.615	0.005920
-17.610	0.005913
-17.605	0.005919
-17.600	0.005905
-17.595	0.005914
-17.590	0.005922
-17.585	0.005923
-17.580	0.005894
-17.575	0.005893
-17.570	0.005885
-17.565	0.005878
-17.560	0.005880
-17.555	0.005866
-17.550	0.005872
-17.545	0.005837
-17.540	0.005843
-17.535	0.005870
-17.530	0.005835
-17.525	0.005836
-17.520	0.005821
-17.515	0.005836
-17.510	0.005822
-17.505	0.005837
-17.500	0.005814
-17.495	0.005836
-17.490	0.005809
-17.485	0.005817
-17.480	0.005772
-17.475	0.005772
-17.470	0.005791
-17.465	0.005770
-17.460	0.005796
-17.455	0.005749
-17.450	0.005763
-17.445	0.005777
-17.440	0.005742
-17.435	0.005756
-17.430	0.005734
-17.425	0.005742
-17.420	0.005695
-17.415	0.005707
-17.410	0.005733
-17.405	0.005699
-17.400	0.005684
-17.395	0.005713
-17.390	0.005672
-17.385	0.005699
-17.380	0.005706
-17.375	0.005705
-17.370	0.005683
-17.365	0.005691
-17.360	0.005650
-17.355	0.005679
-17.350	0.005663
-17.345	0.005668
-17.340	0.005633
-17.335	0.005653
-17.330	0.005653
-17.325	0.005653
-17.320	0.005658
-17.315	0.005653
-17.310	0.005618
-17.305	0.005625
-17.300	0.005637
-17.295	0.005597
-17.290	0.005612
-17.285	0.005590
-17.280	0.005573
-17.275	0.005587
-17.270	0.005593
-17.265	0.005581
-17.260	0.005595
-17.255	0.005575
-17.250	0.005596
-17.245	0.005602
-17.240	0.005553
-17.235	0.005554
-17.230	0.005554
-17.225	0.005528
-17.220	0.005555
-17.215	0.005525
-17.210	0.005518
-17.205	0.005512
-17.200	0.005533
-17.195	0.005492
-17.190	0.005506
-17.185	0.005514
-17.180	0.005522
-17.175	0.005543
-17.170	0.005500
-17.165	0.005474
-17.160	0.005469
-17.155	0.005483
-17.150	0.005474
-17.145	0.005452
-17.140	0.005471
-17.135	0.005465
-17.130	0.005466
-17.125	0.005474
-17.120	0.005473
-17.115	0.005452
-17.110	0.005459
-17.105	0.005450
-17.100	0.005444
-17.095	0.005446
-17.090	0.005433
-17.085	0.005397
-17.080	0.005409
-17.075	0.005409
-17.070	0.005416
-17.065	0.005403
-17.060	0.005445
-17.055	0.005423
-17.050	0.005429
-17.045	0.005429
-17.040	0.005407
-17.035	0.005401
-17.030	0.005401
-17.025	0.005368
-17.020	0.005369
-17.015	0.005352
-17.010	0.005380
-17.005	0.005332
-17.000	0.005359
-16.995	0.005366
-16.990	0.005387
-16.985	0.005353
-16.980	0.005346
-16.975	0.005360
-16.970	0.005346
-16.965	0.005340
-16.960	0.005348
-16.955	0.005315
-16.950	0.005326
-16.945	0.005319
-16.940	0.005298
-16.935	0.005264
-16.930	0.005312
-16.925	0.005312
-16.920	0.005318
-16.915	0.005277
-16.910	0.005291
-16.905	0.005285
-16.900	0.005277
-16.895	0.005259
-16.890	0.005253
-16.885	0.005232
-16.880	0.005263
-16.875	0.005271
-16.870	0.005243
-16.865	0.005244
-16.860	0.005245
-16.855	0.005273
-16.850	0.005253
-16.845	0.005233
-16.840	0.005219
-16.835	0.005248
-16.830	0.005257
-16.825	0.005205
-16.820	0.005176
-16.815	0.005215
-16.810	0.005180
-16.805	0.005209
-16.800	0.005181
-16.795	0.005181
-16.790	0.005243
-16.785	0.005229
-16.780	0.005182
-16.775	0.005203
-16.770	0.005188
-16.765	0.005202
-16.760	0.005190
-16.755	0.005171
-16.750	0.005133
-16.745	0.005132
-16.740	0.005145
-16.735	0.005145
-16.730	0.005145
-16.725	0.005168
-16.720	0.005126
-16.715	0.005127
-16.710	0.005154
-16.705	0.005155
-16.700	0.005112
-16.695	0.005121
-16.690	0.005080
-16.685	0.005087
-16.680	0.005070
-16.675	0.005097
-16.670	0.005043
-16.665	0.005112
-16.660	0.005085
-16.655	0.005051
-16.650	0.005072
-16.645	0.005039
-16.640	0.005052
-16.635	0.005065
-16.630	0.005059
-16.625	0.005048
-16.620	0.005040
-16.615	0.005031
-16.610	0.005003
-16.605	0.005018
-16.600	0.005018
-16.595	0.004991
-16.590	0.005019
-16.585	0.005012
-16.580	0.005012
-16.575	0.004991
-16.570	0.004963
-16.565	0.004984
-16.560	0.004993
-16.555	0.004980
-16.550	0.004984
-16.545	0.004963
-16.540	0.004956
-16.535	0.004944
-16.530	0.004957
-16.525	0.004985
-16.520	0.004950
-16.515	0.004992
-16.510	0.004985
-16.505	0.004944
-16.500	0.004950
-16.495	0.004897
-16.490	0.004932
-16.485	0.004937
-16.480	0.004907
-16.475	0.004934
-16.470	0.004906
-16.465	0.004906
-16.460	0.004919
-16.455	0.004933
-16.450	0.004919
-16.445	0.004940
-16.440	0.004926
-16.435	0.004899
-16.430	0.004913
-16.425	0.004900
-16.420	0.004872
-16.415	0.004883
-16.410	0.004889
-16.405	0.004876
-16.400	0.004862
-16.395	0.004869
-16.390	0.004876
-16.385	0.004876
-16.380	0.004882
-16.375	0.004862
-16.370	0.004875
-16.365	0.004882
-16.360	0.004848
-16.355	0.004822
-16.350	0.004833
-16.345	0.004818
-16.340	0.004810
-16.335	0.004817
-16.330	0.004817
-16.325	0.004858
-16.320	0.004831
-16.315	0.004818
-16.310	0.004825
-16.305	0.004845
-16.300	0.004804
-16.295	0.004800
-16.290	0.004793
-16.285	0.004805
-16.280	0.004769
-16.275	0.004777
-16.270	0.004776
-16.265	0.004756
-16.260	0.004797
-16.255	0.004763
-16.250	0.004783
-16.245	0.004771
-16.240	0.004791
-16.235	0.004743
-16.230	0.004724
-16.225	0.004768
-16.220	0.004726
-16.215	0.004731
-16.210	0.004744
-16.205	0.004745
-16.200	0.004744
-16.195	0.004725
-16.190	0.004739
-16.185	0.004746
-16.180	0.004725
-16.175	0.004740
-16.170	0.004767
-16.165	0.004735
-16.160	0.004696
-16.155	0.004697
-16.150	0.004729
-16.145	0.004701
-16.140	0.004701
-16.135	0.004716
-16.130	0.004710
-16.125	0.004684
-16.120	0.004677
-16.115	0.004705
-16.110	0.004691
-16.105	0.004678
-16.100	0.004699
-16.095	0.004716
-16.090	0.004697
-16.085	0.004654
-16.080	0.004693
-16.075	0.004651
-16.070	0.004665
-16.065	0.004673
-16.060	0.004658
-16.055	0.004666
-16.050	0.004679
-16.045	0.004672
-16.040	0.004616
-16.035	0.004685
-16.030	0.004652
-16.025	0.004639
-16.020	0.004652
-16.015	0.004644
-16.010	0.004637
-16.005	0.004624
-16.000	0.004650
-15.995	0.004623
-15.990	0.004643
-15.985	0.004678
-15.980	0.004601
-15.975	0.004600
-15.970	0.004606
-15.965	0.004599
-15.960	0.004614
-15.955	0.004581
-15.950	0.004577
-15.945	0.004556
-15.940	0.004583
-15.935	0.004555
-15.930	0.004582
-15.925	0.004561
-15.920	0.004561
-15.915	0.004560
-15.910	0.004573
-15.905	0.004602
-15.900	0.004553
-15.895	0.004575
-15.890	0.004520
-15.885	0.004546
-15.880	0.004530
-15.875	0.004551
-15.870	0.004565
-15.865	0.004523
-15.860	0.004515
-15.855	0.004509
-15.850	0.004556
-15.845	0.004500
-15.840	0.004505
-15.835	0.004519
-15.830	0.004513
-15.825	0.004515
-15.820	0.004485
-15.815	0.004484
-15.810	0.004489
-15.805	0.004476
-15.800	0.004489
-15.795	0.004516
-15.790	0.004461
-15.785	0.004476
-15.780	0.004483
-15.775	0.004469
-15.770	0.004489
-15.765	0.004483
-15.760	0.004429
-15.755	0.004444
-15.750	0.004420
-15.745	0.004455
-15.740	0.004434
-15.735	0.004469
-15.730	0.004455
-15.725	0.004463
-15.720	0.004428
-15.715	0.004455
-15.710	0.004414
-15.705	0.004414
-15.700	0.004428
-15.695	0.004416
-15.690	0.004410
-15.685	0.004395
-15.680	0.004421
-15.675	0.004373
-15.670	0.004394
-15.665	0.004394
-15.660	0.004421
-15.655	0.004415
-15.650	0.004408
-15.645	0.004415
-15.640	0.004381
-15.635	0.004368
-15.630	0.004369
-15.625	0.004384
-15.620	0.004363
-15.615	0.004340
-15.610	0.004327
-15.605	0.004341
-15.600	0.004342
-15.595	0.004363
-15.590	0.004356
-15.585	0.004363
-15.580	0.004384
-15.575	0.004349
-15.570	0.004368
-15.565	0.004348
-15.560	0.004364
-15.555	0.004323
-15.550	0.004341
-15.545	0.004355
-15.540	0.004293
-15.535	0.004321
-15.530	0.004293
-15.525	0.004327
-15.520	0.004341
-15.515	0.004334
-15.510	0.004321
-15.505	0.004300
-15.500	0.004314
-15.495	0.004310
-15.490	0.004303
-15.485	0.004268
-15.480	0.004287
-15.475	0.004267
-15.470	0.004301
-15.465	0.004267
-15.460	0.004294
-15.455	0.004232
-15.450	0.004294
-15.445	0.004266
-15.440	0.004252
-15.435	0.004306
-15.430	0.004286
-15.425	0.004261
-15.420	0.004246
-15.415	0.004244
-15.410	0.004217
-15.405	0.004245
-15.400	0.004244
-15.395	0.004237
-15.390	0.004203
-15.385	0.004250
-15.380	0.004223
-15.375	0.004251
-15.370	0.004222
-15.365	0.004237
-15.360	0.004211
-15.355	0.004218
-15.350	0.004222
-15.345	0.004188
-15.340	0.004174
-15.335	0.004216
-15.330	0.004188
-15.325	0.004189
-15.320	0.004216
-15.315	0.004196
-15.310	0.004209
-15.305	0.004168
-15.300	0.004201
-15.295	0.004196
-15.290	0.004149
-15.285	0.004155
-15.280	0.004167
-15.275	0.004148
-15.270	0.004161
-15.265	0.004176
-15.260	0.004182
-15.255	0.004150
-15.250	0.004170
-15.245	0.004136
-15.240	0.004178
-15.235	0.004144
-15.230	0.004132
-15.225	0.004112
-15.220	0.004132
-15.215	0.004131
-15.210	0.004112
-15.205	0.004126
-15.200	0.004154
-15.195	0.004114
-15.190	0.004088
-15.185	0.004110
-15.180	0.004117
-15.175	0.004112
-15.170	0.004126
-15.165	0.004078
-15.160	0.004053
-15.155	0.004096
-15.150	0.004081
-15.145	0.004069
-15.140	0.004084
-15.135	0.004084
-15.130	0.004072
-15.125	0.004065
-15.120	0.004086
-15.115	0.004080
-15.110	0.004087
-15.105	0.004080
-15.100	0.004066
-15.095	0.004054
-15.090	0.004055
-15.085	0.004068
-15.080	0.004052
-15.075	0.004053
-15.070	0.004052
-15.065	0.004073
-15.060	0.004080
-15.055	0.004087
-15.050	0.004095
-15.045	0.004040
-15.040	0.004067
-15.035	0.004053
-15.030	0.004074
-15.025	0.004034
-15.020	0.004054
-15.015	0.004045
-15.010	0.004059
-15.005	0.004031
-15.000	0.004037
-14.995	0.004057
-14.990	0.004048
-14.985	0.004049
-14.980	0.004041
-14.975	0.004074
-14.970	0.004073
-14.965	0.004025
-14.960	0.004018
-14.955	0.004066
-14.950	0.004042
-14.945	0.004041
-14.940	0.004027
-14.935	0.004027
-14.930	0.004020
-14.925	0.004033
-14.920	0.003991
-14.915	0.004019
-14.910	0.004010
-14.905	0.004037
-14.900	0.003967
-14.895	0.004010
-14.890	0.003983
-14.885	0.003973
-14.880	0.003930
-14.875	0.003958
-14.870	0.003985
-14.865	0.003950
-14.860	0.003984
-14.855	0.003977
-14.850	0.003976
-14.845	0.003956
-14.840	0.003976
-14.835	0.003927
-14.830	0.003949
-14.825	0.003957
-14.820	0.003934
-14.815	0.003933
-14.810	0.003933
-14.805	0.003947
-14.800	0.003954
-14.795	0.003940
-14.790	0.003926
-14.785	0.003913
-14.780	0.003927
-14.775	0.003940
-14.770	0.003918
-14.765	0.003899
-14.760	0.003900
-14.755	0.003901
-14.750	0.003871
-14.745	0.003885
-14.740	0.003877
-14.735	0.003906
-14.730	0.003900
-14.725	0.003900
-14.720	0.003886
-14.715	0.003893
-14.710	0.003865
-14.705	0.003900
-14.700	0.003859
-14.695	0.003868
-14.690	0.003874
-14.685	0.003879
-14.680	0.003873
-14.675	0.003853
-14.670	0.003839
-14.665	0.003867
-14.660	0.003867
-14.655	0.003846
-14.650	0.003867
-14.645	0.003853
-14.640	0.003846
-14.635	0.003867
-14.630	0.003841
-14.625	0.003842
-14.620	0.003840
-14.615	0.003839
-14.610	0.003839
-14.605	0.003818
-14.600	0.003845
-14.595	0.003805
-14.590	0.003852
-14.585	0.003784
-14.580	0.003845
-14.575	0.003825
-14.570	0.003817
-14.565	0.003847
-14.560	0.003834
-14.555	0.003819
-14.550	0.003802
-14.545	0.003769
-14.540	0.003797
-14.535	0.003823
-14.530	0.003795
-14.525	0.003775
-14.520	0.003781
-14.515	0.003796
-14.510	0.003809
-14.505	0.003809
-14.500	0.003815
-14.495	0.003803
-14.490	0.003755
-14.485	0.003753
-14.480	0.003745
-14.475	0.003794
-14.470	0.003779
-14.465	0.003772
-14.460	0.003771
-14.455	0.003765
-14.450	0.003771
-14.445	0.003751
-14.440	0.003757
-14.435	0.003758
-14.430	0.003724
-14.425	0.003745
-14.420	0.003723
-14.415	0.003748
-14.410	0.003733
-14.405	0.003741
-14.400	0.003734
-14.395	0.003741
-14.390	0.003740
-14.385	0.003734
-14.380	0.003740
-14.375	0.003732
-14.370	0.003711
-14.365	0.003726
-14.360	0.003713
-14.355	0.003693
-14.350	0.003691
-14.345	0.003711
-14.340	0.003690
-14.335	0.003704
-14.330	0.003690
-14.325	0.003711
-14.320	0.003697
-14.315	0.003711
-14.310	0.003683
-14.305	0.003696
-14.300	0.003656
-14.295	0.003685
-14.290	0.003685
-14.285	0.003670
-14.280	0.003676
-14.275	0.003670
-14.270	0.003676
-14.265	0.003663
-14.260	0.003670
-14.255	0.003677
-14.250	0.003662
-14.245	0.003656
-14.240	0.003642
-14.235	0.003628
-14.230	0.003635
-14.225	0.003651
-14.220	0.003629
-14.215	0.003642
-14.210	0.003621
-14.205	0.003634
-14.200	0.003641
-14.195	0.003607
-14.190	0.003621
-14.185	0.003635
-14.180	0.003614
-14.175	0.003628
-14.170	0.003641
-14.165	0.003615
-14.160	0.003608
-14.155	0.003608
-14.150	0.003627
-14.145	0.003606
-14.140	0.003607
-14.135	0.003607
-14.130	0.003586
-14.125	0.003580
-14.120	0.003593
-14.115	0.003593
-14.110	0.003579
-14.105	0.003613
-14.100	0.003592
-14.095	0.003580
-14.090	0.003573
-14.085	0.003578
-14.080	0.003577
-14.075	0.003564
-14.070	0.003543
-14.065	0.003564
-14.060	0.003551
-14.055	0.003585
-14.050	0.003579
-14.045	0.003558
-14.040	0.003551
-14.035	0.003530
-14.030	0.003504
-14.025	0.003525
-14.020	0.003530
-14.015	0.003522
-14.010	0.003515
-14.005	0.003515
-14.000	0.003516
-13.995	0.003509
-13.990	0.003530
-13.985	0.003557
-13.980	0.003536
-13.975	0.003509
-13.970	0.003529
-13.965	0.003509
-13.960	0.003497
-13.955	0.003510
-13.950	0.003535
-13.945	0.003488
-13.940	0.003501
-13.935	0.003522
-13.930	0.003494
-13.925	0.003515
-13.920	0.003474
-13.915	0.003508
-13.910	0.003481
-13.905	0.003488
-13.900	0.003488
-13.895	0.003490
-13.890	0.003483
-13.885	0.003447
-13.880	0.003454
-13.875	0.003454
-13.870	0.003426
-13.865	0.003461
-13.860	0.003475
-13.855	0.003488
-13.850	0.003460
-13.845	0.003488
-13.840	0.003453
-13.835	0.003480
-13.830	0.003440
-13.825	0.003455
-13.820	0.003432
-13.815	0.003432
-13.810	0.003438
-13.805	0.003466
-13.800	0.003472
-13.795	0.003466
-13.790	0.003466
-13.785	0.003452
-13.780	0.003452
-13.775	0.003445
-13.770	0.003451
-13.765	0.003432
-13.760	0.003439
-13.755	0.003432
-13.750	0.003430
-13.745	0.003431
-13.740	0.003403
-13.735	0.003430
-13.730	0.003444
-13.725	0.003451
-13.720	0.003436
-13.715	0.003450
-13.710	0.003436
-13.705	0.003429
-13.700	0.003415
-13.695	0.003396
-13.690	0.003404
-13.685	0.003395
-13.680	0.003373
-13.675	0.003387
-13.670	0.003379
-13.665	0.003379
-13.660	0.003421
-13.655	0.003366
-13.650	0.003394
-13.645	0.003421
-13.640	0.003366
-13.635	0.003388
-13.630	0.003396
-13.625	0.003396
-13.620	0.003347
-13.615	0.003381
-13.610	0.003360
-13.605	0.003382
-13.600	0.003333
-13.595	0.003389
-13.590	0.003340
-13.585	0.003348
-13.580	0.003354
-13.575	0.003355
-13.570	0.003347
-13.565	0.003362
-13.560	0.003343
-13.555	0.003329
-13.550	0.003348
-13.545	0.003340
-13.540	0.003314
-13.535	0.003334
-13.530	0.003300
-13.525	0.003335
-13.520	0.003329
-13.515	0.003329
-13.510	0.003295
-13.505	0.003323
-13.500	0.003296
-13.495	0.003291
-13.490	0.003319
-13.485	0.003323
-13.480	0.003282
-13.475	0.003290
-13.470	0.003305
-13.465	0.003299
-13.460	0.003333
-13.455	0.003299
-13.450	0.003313
-13.445	0.003293
-13.440	0.003300
-13.435	0.003307
-13.430	0.003268
-13.425	0.003290
-13.420	0.003282
-13.415	0.003274
-13.410	0.003267
-13.405	0.003261
-13.400	0.003274
-13.395	0.003275
-13.390	0.003281
-13.385	0.003261
-13.380	0.003253
-13.375	0.003268
-13.370	0.003288
-13.365	0.003275
-13.360	0.003269
-13.355	0.003275
-13.350	0.003267
-13.345	0.003288
-13.340	0.003267
-13.335	0.003267
-13.330	0.003247
-13.325	0.003267
-13.320	0.003254
-13.315	0.003240
-13.310	0.003253
-13.305	0.003260
-13.300	0.003246
-13.295	0.003247
-13.290	0.003253
-13.285	0.003225
-13.280	0.003238
-13.275	0.003252
-13.270	0.003244
-13.265	0.003231
-13.260	0.003258
-13.255	0.003237
-13.250	0.003250
-13.245	0.003257
-13.240	0.003244
-13.235	0.003237
-13.230	0.003218
-13.225	0.003238
-13.220	0.003236
-13.215	0.003215
-13.210	0.003222
-13.205	0.003215
-13.200	0.003195
-13.195	0.003208
-13.190	0.003194
-13.185	0.003229
-13.180	0.003207
-13.175	0.003241
-13.170	0.003200
-13.165	0.003194
-13.160	0.003180
-13.155	0.003208
-13.150	0.003186
-13.145	0.003179
-13.140	0.003144
-13.135	0.003219
-13.130	0.003178
-13.125	0.003192
-13.120	0.003185
-13.115	0.003185
-13.110	0.003157
-13.105	0.003206
-13.100	0.003165
-13.095	0.003153
-13.090	0.003145
-13.085	0.003185
-13.080	0.003151
-13.075	0.003144
-13.070	0.003158
-13.065	0.003131
-13.060	0.003172
-13.055	0.003158
-13.050	0.003158
-13.045	0.003144
-13.040	0.003137
-13.035	0.003144
-13.030	0.003131
-13.025	0.003119
-13.020	0.003145
-13.015	0.003096
-13.010	0.003110
-13.005	0.003138
-13.000	0.003130
-12.995	0.003104
-12.990	0.003172
-12.985	0.003145
-12.980	0.003110
-12.975	0.003125
-12.970	0.003090
-12.965	0.003092
-12.960	0.003112
-12.955	0.003078
-12.950	0.003089
-12.945	0.003097
-12.940	0.003097
-12.935	0.003097
-12.930	0.003056
-12.925	0.003105
-12.920	0.003084
-12.915	0.003084
-12.910	0.003083
-12.905	0.003069
-12.900	0.003078
-12.895	0.003071
-12.890	0.003058
-12.885	0.003076
-12.880	0.003069
-12.875	0.003035
-12.870	0.003069
-12.865	0.003062
-12.860	0.003055
-12.855	0.003062
-12.850	0.003068
-12.845	0.003069
-12.840	0.003062
-12.835	0.003089
-12.830	0.003050
-12.825	0.003070
-12.820	0.003048
-12.815	0.003027
-12.810	0.003054
-12.805	0.003068
-12.800	0.003060
-12.795	0.003034
-12.790	0.003061
-12.785	0.003054
-12.780	0.003047
-12.775	0.003046
-12.770	0.003045
-12.765	0.003047
-12.760	0.003020
-12.755	0.003019
-12.750	0.003018
-12.745	0.003018
-12.740	0.003004
-12.735	0.003004
-12.730	0.003018
-12.725	0.003039
-12.720	0.003018
-12.715	0.003025
-12.710	0.003018
-12.705	0.003032
-12.700	0.002999
-12.695	0.003020
-12.690	0.003006
-12.685	0.003018
-12.680	0.002983
-12.675	0.002976
-12.670	0.002997
-12.665	0.003010
-12.660	0.002997
-12.655	0.003011
-12.650	0.003038
-12.645	0.002989
-12.640	0.003002
-12.635	0.002967
-12.630	0.002969
-12.625	0.002962
-12.620	0.003002
-12.615	0.002988
-12.610	0.002975
-12.605	0.002988
-12.600	0.003009
-12.595	0.002989
-12.590	0.002996
-12.585	0.003010
-12.580	0.002988
-12.575	0.003002
-12.570	0.002960
-12.565	0.002989
-12.560	0.002956
-12.555	0.002948
-12.550	0.002960
-12.545	0.002926
-12.540	0.002967
-12.535	0.002954
-12.530	0.002961
-12.525	0.002968
-12.520	0.002953
-12.515	0.002968
-12.510	0.002960
-12.505	0.002946
-12.500	0.002961
-12.495	0.002941
-12.490	0.002920
-12.485	0.002925
-12.480	0.002918
-12.475	0.002925
-12.470	0.002939
-12.465	0.002919
-12.460	0.002933
-12.455	0.002926
-12.450	0.002939
-12.445	0.002918
-12.440	0.002932
-12.435	0.002898
-12.430	0.002899
-12.425	0.002913
-12.420	0.002877
-12.415	0.002911
-12.410	0.002897
-12.405	0.002932
-12.400	0.002904
-12.395	0.002918
-12.390	0.002925
-12.385	0.002911
-12.380	0.002891
-12.375	0.002911
-12.370	0.002896
-12.365	0.002884
-12.360	0.002884
-12.355	0.002863
-12.350	0.002897
-12.345	0.002862
-12.340	0.002861
-12.335	0.002882
-12.330	0.002903
-12.325	0.002889
-12.320	0.002876
-12.315	0.002890
-12.310	0.002841
-12.305	0.002841
-12.300	0.002889
-12.295	0.002863
-12.290	0.002855
-12.285	0.002854
-12.280	0.002854
-12.275	0.002820
-12.270	0.002874
-12.265	0.002826
-12.260	0.002840
-12.255	0.002867
-12.250	0.002853
-12.245	0.002833
-12.240	0.002846
-12.235	0.002853
-12.230	0.002847
-12.225	0.002834
-12.220	0.002811
-12.215	0.002831
-12.210	0.002831
-12.205	0.002838
-12.200	0.002818
-12.195	0.002839
-12.190	0.002838
-12.185	0.002845
-12.180	0.002838
-12.175	0.002830
-12.170	0.002838
-12.165	0.002805
-12.160	0.002792
-12.155	0.002818
-12.150	0.002810
-12.145	0.002775
-12.140	0.002817
-12.135	0.002790
-12.130	0.002816
-12.125	0.002796
-12.120	0.002816
-12.115	0.002830
-12.110	0.002789
-12.105	0.002795
-12.100	0.002782
-12.095	0.002804
-12.090	0.002775
-12.085	0.002753
-12.080	0.002773
-12.075	0.002766
-12.070	0.002786
-12.065	0.002773
-12.060	0.002794
-12.055	0.002773
-12.050	0.002780
-12.045	0.002780
-12.040	0.002780
-12.035	0.002773
-12.030	0.002794
-12.025	0.002754
-12.020	0.002772
-12.015	0.002745
-12.010	0.002731
-12.005	0.002746
-12.000	0.002738
-11.995	0.002779
-11.990	0.002779
-11.985	0.002745
-11.980	0.002724
-11.975	0.002758
-11.970	0.002737
-11.965	0.002731
-11.960	0.002740
-11.955	0.002725
-11.950	0.002710
-11.945	0.002737
-11.940	0.002716
-11.935	0.002724
-11.930	0.002757
-11.925	0.002744
-11.920	0.002717
-11.915	0.002731
-11.910	0.002744
-11.905	0.002737
-11.900	0.002690
-11.895	0.002704
-11.890	0.002744
-11.885	0.002716
-11.880	0.002709
-11.875	0.002723
-11.870	0.002675
-11.865	0.002723
-11.860	0.002702
-11.855	0.002696
-11.850	0.002689
-11.845	0.002729
-11.840	0.002681
-11.835	0.002681
-11.830	0.002710
-11.825	0.002677
-11.820	0.002681
-11.815	0.002681
-11.810	0.002701
-11.805	0.002681
-11.800	0.002701
-11.795	0.002681
-11.790	0.002716
-11.785	0.002695
-11.780	0.002681
-11.775	0.002695
-11.770	0.002661
-11.765	0.002676
-11.760	0.002697
-11.755	0.002675
-11.750	0.002640
-11.745	0.002647
-11.740	0.002641
-11.735	0.002669
-11.730	0.002662
-11.725	0.002682
-11.720	0.002689
-11.715	0.002662
-11.710	0.002655
-11.705	0.002648
-11.700	0.002676
-11.695	0.002656
-11.690	0.002628
-11.685	0.002620
-11.680	0.002634
-11.675	0.002627
-11.670	0.002634
-11.665	0.002634
-11.660	0.002655
-11.655	0.002662
-11.650	0.002621
-11.645	0.002634
-11.640	0.002600
-11.635	0.002608
-11.630	0.002636
-11.625	0.002574
-11.620	0.002627
-11.615	0.002572
-11.610	0.002607
-11.605	0.002615
-11.600	0.002628
-11.595	0.002587
-11.590	0.002635
-11.585	0.002601
-11.580	0.002573
-11.575	0.002614
-11.570	0.002607
-11.565	0.002594
-11.560	0.002602
-11.555	0.002580
-11.550	0.002545
-11.545	0.002601
-11.540	0.002607
-11.535	0.002587
-11.530	0.002580
-11.525	0.002587
-11.520	0.002614
-11.515	0.002608
-11.510	0.002580
-11.505	0.002581
-11.500	0.002568
-11.495	0.002590
-11.490	0.002575
-11.485	0.002567
-11.480	0.002539
-11.475	0.002560
-11.470	0.002567
-11.465	0.002553
-11.460	0.002581
-11.455	0.002561
-11.450	0.002561
-11.445	0.002581
-11.440	0.002560
-11.435	0.002546
-11.430	0.002547
-11.425	0.002541
-11.420	0.002532
-11.415	0.002539
-11.410	0.002532
-11.405	0.002512
-11.400	0.002504
-11.395	0.002539
-11.390	0.002560
-11.385	0.002553
-11.380	0.002566
-11.375	0.002546
-11.370	0.002539
-11.365	0.002520
-11.360	0.002499
-11.355	0.002505
-11.350	0.002517
-11.345	0.002539
-11.340	0.002552
-11.335	0.002525
-11.330	0.002518
-11.325	0.002540
-11.320	0.002539
-11.315	0.002519
-11.310	0.002518
-11.305	0.002531
-11.300	0.002511
-11.295	0.002506
-11.290	0.002491
-11.285	0.002517
-11.280	0.002524
-11.275	0.002511
-11.270	0.002511
-11.265	0.002525
-11.260	0.002491
-11.255	0.002518
-11.250	0.002511
-11.245	0.002532
-11.240	0.002504
-11.235	0.002491
-11.230	0.002485
-11.225	0.002485
-11.220	0.002477
-11.215	0.002449
-11.210	0.002483
-11.205	0.002469
-11.200	0.002469
-11.195	0.002504
-11.190	0.002477
-11.185	0.002477
-11.180	0.002477
-11.175	0.002455
-11.170	0.002469
-11.165	0.002457
-11.160	0.002471
-11.155	0.002449
-11.150	0.002469
-11.145	0.002469
-11.140	0.002434
-11.135	0.002455
-11.130	0.002448
-11.125	0.002476
-11.120	0.002469
-11.115	0.002462
-11.110	0.002455
-11.105	0.002429
-11.100	0.002449
-11.095	0.002430
-11.090	0.002422
-11.085	0.002407
-11.080	0.002442
-11.075	0.002421
-11.070	0.002407
-11.065	0.002414
-11.060	0.002442
-11.055	0.002456
-11.050	0.002449
-11.045	0.002414
-11.040	0.002420
-11.035	0.002407
-11.030	0.002395
-11.025	0.002395
-11.020	0.002386
-11.015	0.002393
-11.010	0.002406
-11.005	0.002420
-11.000	0.002406
-10.995	0.002407
-10.990	0.002400
-10.985	0.002393
-10.980	0.002434
-10.975	0.002413
-10.970	0.002393
-10.965	0.002387
-10.960	0.002401
-10.955	0.002366
-10.950	0.002372
-10.945	0.002345
-10.940	0.002371
-10.935	0.002386
-10.930	0.002385
-10.925	0.002372
-10.920	0.002406
-10.915	0.002405
-10.910	0.002411
-10.905	0.002377
-10.900	0.002379
-10.895	0.002372
-10.890	0.002351
-10.885	0.002363
-10.880	0.002335
-10.875	0.002335
-10.870	0.002383
-10.865	0.002356
-10.860	0.002363
-10.855	0.002376
-10.850	0.002362
-10.845	0.002356
-10.840	0.002335
-10.835	0.002370
-10.830	0.002357
-10.825	0.002351
-10.820	0.002362
-10.815	0.002341
-10.810	0.002349
-10.805	0.002341
-10.800	0.002341
-10.795	0.002348
-10.790	0.002341
-10.785	0.002368
-10.780	0.002369
-10.775	0.002348
-10.770	0.002327
-10.765	0.002328
-10.760	0.002281
-10.755	0.002327
-10.750	0.002333
-10.745	0.002306
-10.740	0.002319
-10.735	0.002333
-10.730	0.002327
-10.725	0.002327
-10.720	0.002320
-10.715	0.002347
-10.710	0.002312
-10.705	0.002333
-10.700	0.002314
-10.695	0.002335
-10.690	0.002293
-10.685	0.002326
-10.680	0.002279
-10.675	0.002327
-10.670	0.002313
-10.665	0.002300
-10.660	0.002293
-10.655	0.002300
-10.650	0.002341
-10.645	0.002293
-10.640	0.002279
-10.635	0.002307
-10.630	0.002321
-10.625	0.002301
-10.620	0.002285
-10.615	0.002306
-10.610	0.002285
-10.605	0.002313
-10.600	0.002300
-10.595	0.002294
-10.590	0.002307
-10.585	0.002293
-10.580	0.002279
-10.575	0.002272
-10.570	0.002252
-10.565	0.002274
-10.560	0.002247
-10.555	0.002287
-10.550	0.002281
-10.545	0.002254
-10.540	0.002288
-10.535	0.002268
-10.530	0.002260
-10.525	0.002280
-10.520	0.002294
-10.515	0.002288
-10.510	0.002280
-10.505	0.002281
-10.500	0.002261
-10.495	0.002289
-10.490	0.002281
-10.485	0.002287
-10.480	0.002281
-10.475	0.002280
-10.470	0.002239
-10.465	0.002253
-10.460	0.002267
-10.455	0.002281
-10.450	0.002260
-10.445	0.002267
-10.440	0.002294
-10.435	0.002234
-10.430	0.002261
-10.425	0.002234
-10.420	0.002273
-10.415	0.002267
-10.410	0.002287
-10.405	0.002259
-10.400	0.002259
-10.395	0.002287
-10.390	0.002259
-10.385	0.002274
-10.380	0.002273
-10.375	0.002252
-10.370	0.002259
-10.365	0.002233
-10.360	0.002254
-10.355	0.002225
-10.350	0.002225
-10.345	0.002252
-10.340	0.002252
-10.335	0.002232
-10.330	0.002245
-10.325	0.002239
-10.320	0.002246
-10.315	0.002266
-10.310	0.002211
-10.305	0.002238
-10.300	0.002218
-10.295	0.002212
-10.290	0.002231
-10.285	0.002217
-10.280	0.002217
-10.275	0.002203
-10.270	0.002258
-10.265	0.002224
-10.260	0.002231
-10.255	0.002203
-10.250	0.002231
-10.245	0.002203
-10.240	0.002210
-10.235	0.002211
-10.230	0.002191
-10.225	0.002191
-10.220	0.002176
-10.215	0.002189
-10.210	0.002182
-10.205	0.002195
-10.200	0.002203
-10.195	0.002203
-10.190	0.002210
-10.185	0.002196
-10.180	0.002210
-10.175	0.002217
-10.170	0.002169
-10.165	0.002143
-10.160	0.002183
-10.155	0.002182
-10.150	0.002175
-10.145	0.002156
-10.140	0.002176
-10.135	0.002176
-10.130	0.002182
-10.125	0.002203
-10.120	0.002196
-10.115	0.002182
-10.110	0.002147
-10.105	0.002161
-10.100	0.002190
-10.095	0.002190
-10.090	0.002155
-10.085	0.002188
-10.080	0.002140
-10.075	0.002174
-10.070	0.002195
-10.065	0.002175
-10.060	0.002202
-10.055	0.002196
-10.050	0.002175
-10.045	0.002182
-10.040	0.002140
-10.035	0.002197
-10.030	0.002169
-10.025	0.002155
-10.020	0.002181
-10.015	0.002140
-10.010	0.002161
-10.005	0.002147
-10.000	0.002134
-9.995	0.002161
-9.990	0.002202
-9.985	0.002182
-9.980	0.002147
-9.975	0.002168
-9.970	0.002127
-9.965	0.002169
-9.960	0.002142
-9.955	0.002120
-9.950	0.002154
-9.945	0.002168
-9.940	0.002161
-9.935	0.002182
-9.930	0.002182
-9.925	0.002161
-9.920	0.002106
-9.915	0.002168
-9.910	0.002154
-9.905	0.002155
-9.900	0.002156
-9.895	0.002142
-9.890	0.002121
-9.885	0.002106
-9.880	0.002134
-9.875	0.002120
-9.870	0.002093
-9.865	0.002121
-9.860	0.002148
-9.855	0.002135
-9.850	0.002107
-9.845	0.002107
-9.840	0.002120
-9.835	0.002121
-9.830	0.002115
-9.825	0.002101
-9.820	0.002093
-9.815	0.002093
-9.810	0.002120
-9.805	0.002100
-9.800	0.002106
-9.795	0.002100
-9.790	0.002113
-9.785	0.002107
-9.780	0.002140
-9.775	0.002086
-9.770	0.002086
-9.765	0.002108
-9.760	0.002087
-9.755	0.002079
-9.750	0.002107
-9.745	0.002093
-9.740	0.002066
-9.735	0.002094
-9.730	0.002121
-9.725	0.002108
-9.720	0.002080
-9.715	0.002080
-9.710	0.002093
-9.705	0.002094
-9.700	0.002088
-9.695	0.002074
-9.690	0.002066
-9.685	0.002066
-9.680	0.002093
-9.675	0.002073
-9.670	0.002079
-9.665	0.002073
-9.660	0.002086
-9.655	0.002079
-9.650	0.002113
-9.645	0.002059
-9.640	0.002059
-9.635	0.002081
-9.630	0.002060
-9.625	0.002052
-9.620	0.002066
-9.615	0.002066
-9.610	0.002059
-9.605	0.002053
-9.600	0.002052
-9.595	0.002039
-9.590	0.002080
-9.585	0.002080
-9.580	0.002052
-9.575	0.002032
-9.570	0.002033
-9.565	0.002048
-9.560	0.002023
-9.555	0.002037
-9.550	0.002040
-9.545	0.002031
-9.540	0.002018
-9.535	0.002038
-9.530	0.002024
-9.525	0.001997
-9.520	0.002017
-9.515	0.001976
-9.510	0.001990
-9.505	0.001936
-9.500	0.001923
-9.495	0.001861
-9.490	0.001757
-9.485	0.001531
-9.480	0.001133
-9.475	0.000509
-9.470	-0.000376
-9.465	-0.001625
-9.460	-0.003254
-9.455	-0.005325
-9.450	-0.007915
-9.445	-0.010721
-9.440	-0.013964
-9.435	-0.017431
-9.430	-0.021218
-9.425	-0.025382
-9.420	-0.029715
-9.415	-0.034061
-9.410	-0.038410
-9.405	-0.042537
-9.400	-0.046435
-9.395	-0.050020
-9.390	-0.052680
-9.385	-0.053402
-9.380	-0.051766
-9.375	-0.048352
-9.370	-0.044234
-9.365	-0.040204
-9.360	-0.036693
-9.355	-0.033912
-9.350	-0.031668
-9.345	-0.029907
-9.340	-0.028448
-9.335	-0.027281
-9.330	-0.026207
-9.325	-0.025257
-9.320	-0.024483
-9.315	-0.023743
-9.310	-0.023087
-9.305	-0.022465
-9.300	-0.021906
-9.295	-0.021379
-9.290	-0.020877
-9.285	-0.020397
-9.280	-0.019998
-9.275	-0.019577
-9.270	-0.019202
-9.265	-0.018837
-9.260	-0.018474
-9.255	-0.018091
-9.250	-0.017752
-9.245	-0.017387
-9.240	-0.017083
-9.235	-0.016794
-9.230	-0.016522
-9.225	-0.016190
-9.220	-0.015937
-9.215	-0.015642
-9.210	-0.015396
-9.205	-0.015142
-9.200	-0.014908
-9.195	-0.014677
-9.190	-0.014436
-9.185	-0.014253
-9.180	-0.014030
-9.175	-0.013806
-9.170	-0.013621
-9.165	-0.013436
-9.160	-0.013270
-9.155	-0.013096
-9.150	-0.012979
-9.145	-0.012747
-9.140	-0.012595
-9.135	-0.012466
-9.130	-0.012329
-9.125	-0.012252
-9.120	-0.012096
-9.115	-0.011965
-9.110	-0.011812
-9.105	-0.011668
-9.100	-0.011564
-9.095	-0.011474
-9.090	-0.011332
-9.085	-0.011175
-9.080	-0.011071
-9.075	-0.010951
-9.070	-0.010849
-9.065	-0.010765
-9.060	-0.010660
-9.055	-0.010529
-9.050	-0.010453
-9.045	-0.010363
-9.040	-0.010261
-9.035	-0.010187
-9.030	-0.010068
-9.025	-0.009996
-9.020	-0.009900
-9.015	-0.009830
-9.010	-0.009706
-9.005	-0.009653
-9.000	-0.009542
-8.995	-0.009502
-8.990	-0.009384
-8.985	-0.009303
-8.980	-0.009233
-8.975	-0.009152
-8.970	-0.009085
-8.965	-0.009025
-8.960	-0.008966
-8.955	-0.008889
-8.950	-0.008841
-8.945	-0.008747
-8.940	-0.008665
-8.935	-0.008623
-8.930	-0.008560
-8.925	-0.008484
-8.920	-0.008429
-8.915	-0.008360
-8.910	-0.008320
-8.905	-0.008259
-8.900	-0.008199
-8.895	-0.008135
-8.890	-0.008092
-8.885	-0.008037
-8.880	-0.007948
-8.875	-0.007887
-8.870	-0.007807
-8.865	-0.007765
-8.860	-0.007701
-8.855	-0.007652
-8.850	-0.007597
-8.845	-0.007589
-8.840	-0.007494
-8.835	-0.007468
-8.830	-0.007404
-8.825	-0.007396
-8.820	-0.007335
-8.815	-0.007300
-8.810	-0.007272
-8.805	-0.007211
-8.800	-0.007149
-8.795	-0.007108
-8.790	-0.007087
-8.785	-0.007066
-8.780	-0.007011
-8.775	-0.006985
-8.770	-0.006968
-8.765	-0.006899
-8.760	-0.006855
-8.755	-0.006819
-8.750	-0.006798
-8.745	-0.006744
-8.740	-0.006669
-8.735	-0.006650
-8.730	-0.006571
-8.725	-0.006540
-8.720	-0.006519
-8.715	-0.006524
-8.710	-0.006494
-8.705	-0.006376
-8.700	-0.006365
-8.695	-0.006349
-8.690	-0.006369
-8.685	-0.006297
-8.680	-0.006253
-8.675	-0.006226
-8.670	-0.006179
-8.665	-0.006145
-8.660	-0.006097
-8.655	-0.006111
-8.650	-0.006055
-8.645	-0.006020
-8.640	-0.006001
-8.635	-0.005989
-8.630	-0.005948
-8.625	-0.005913
-8.620	-0.005900
-8.615	-0.005866
-8.610	-0.005804
-8.605	-0.005777
-8.600	-0.005777
-8.595	-0.005716
-8.590	-0.005709
-8.585	-0.005640
-8.580	-0.005655
-8.575	-0.005628
-8.570	-0.005595
-8.565	-0.005574
-8.560	-0.005531
-8.555	-0.005545
-8.550	-0.005469
-8.545	-0.005510
-8.540	-0.005482
-8.535	-0.005441
-8.530	-0.005399
-8.525	-0.005372
-8.520	-0.005364
-8.515	-0.005342
-8.510	-0.005301
-8.505	-0.005287
-8.500	-0.005265
-8.495	-0.005250
-8.490	-0.005200
-8.485	-0.005192
-8.480	-0.005171
-8.475	-0.005136
-8.470	-0.005129
-8.465	-0.005095
-8.460	-0.005080
-8.455	-0.005053
-8.450	-0.005026
-8.445	-0.004993
-8.440	-0.004959
-8.435	-0.004980
-8.430	-0.004966
-8.425	-0.004918
-8.420	-0.004925
-8.415	-0.004883
-8.410	-0.004849
-8.405	-0.004869
-8.400	-0.004808
-8.395	-0.004760
-8.390	-0.004774
-8.385	-0.004767
-8.380	-0.004753
-8.375	-0.004726
-8.370	-0.004712
-8.365	-0.004699
-8.360	-0.004685
-8.355	-0.004684
-8.350	-0.004664
-8.345	-0.004650
-8.340	-0.004602
-8.335	-0.004582
-8.330	-0.004548
-8.325	-0.004555
-8.320	-0.004555
-8.315	-0.004508
-8.310	-0.004501
-8.305	-0.004474
-8.300	-0.004481
-8.295	-0.004452
-8.290	-0.004458
-8.285	-0.004430
-8.280	-0.004430
-8.275	-0.004395
-8.270	-0.004388
-8.265	-0.004347
-8.260	-0.004333
-8.255	-0.004291
-8.250	-0.004312
-8.245	-0.004277
-8.240	-0.004236
-8.235	-0.004265
-8.230	-0.004237
-8.225	-0.004209
-8.220	-0.004168
-8.215	-0.004175
-8.210	-0.004161
-8.205	-0.004141
-8.200	-0.004106
-8.195	-0.004086
-8.190	-0.004073
-8.185	-0.004059
-8.180	-0.004052
-8.175	-0.004038
-8.170	-0.004025
-8.165	-0.004032
-8.160	-0.004011
-8.155	-0.003997
-8.150	-0.003977
-8.145	-0.003956
-8.140	-0.003929
-8.135	-0.003922
-8.130	-0.003887
-8.125	-0.003867
-8.120	-0.003847
-8.115	-0.003874
-8.110	-0.003867
-8.105	-0.003820
-8.100	-0.003806
-8.095	-0.003840
-8.090	-0.003785
-8.085	-0.003785
-8.080	-0.003806
-8.075	-0.003764
-8.070	-0.003757
-8.065	-0.003730
-8.060	-0.003723
-8.055	-0.003730
-8.050	-0.003682
-8.045	-0.003682
-8.040	-0.003683
-8.035	-0.003642
-8.030	-0.003662
-8.025	-0.003642
-8.020	-0.003635
-8.015	-0.003642
-8.010	-0.003594
-8.005	-0.003567
-8.000	-0.003594
-7.995	-0.003601
-7.990	-0.003566
-7.985	-0.003560
-7.980	-0.003546
-7.975	-0.003526
-7.970	-0.003547
-7.965	-0.003506
-7.960	-0.003526
-7.955	-0.003512
-7.950	-0.003498
-7.945	-0.003464
-7.940	-0.003416
-7.935	-0.003464
-7.930	-0.003456
-7.925	-0.003388
-7.920	-0.003381
-7.915	-0.003402
-7.910	-0.003388
-7.905	-0.003388
-7.900	-0.003361
-7.895	-0.003388
-7.890	-0.003367
-7.885	-0.003354
-7.880	-0.003354
-7.875	-0.003299
-7.870	-0.003306
-7.865	-0.003293
-7.860	-0.003293
-7.855	-0.003272
-7.850	-0.003279
-7.845	-0.003272
-7.840	-0.003238
-7.835	-0.003238
-7.830	-0.003238
-7.825	-0.003196
-7.820	-0.003217
-7.815	-0.003231
-7.810	-0.003190
-7.805	-0.003169
-7.800	-0.003183
-7.795	-0.003176
-7.790	-0.003176
-7.785	-0.003135
-7.780	-0.003121
-7.775	-0.003129
-7.770	-0.003129
-7.765	-0.003129
-7.760	-0.003128
-7.755	-0.003115
-7.750	-0.003115
-7.745	-0.003094
-7.740	-0.003081
-7.735	-0.003095
-7.730	-0.003074
-7.725	-0.003060
-7.720	-0.003060
-7.715	-0.003033
-7.710	-0.003026
-7.705	-0.003047
-7.700	-0.003013
-7.695	-0.003047
-7.690	-0.003019
-7.685	-0.002998
-7.680	-0.003005
-7.675	-0.002978
-7.670	-0.002971
-7.665	-0.002992
-7.660	-0.002978
-7.655	-0.002964
-7.650	-0.002902
-7.645	-0.002937
-7.640	-0.002916
-7.635	-0.002910
-7.630	-0.002916
-7.625	-0.002896
-7.620	-0.002909
-7.615	-0.002896
-7.610	-0.002882
-7.605	-0.002834
-7.600	-0.002875
-7.595	-0.002834
-7.590	-0.002827
-7.585	-0.002827
-7.580	-0.002834
-7.575	-0.002813
-7.570	-0.002807
-7.565	-0.002814
-7.560	-0.002800
-7.555	-0.002800
-7.550	-0.002800
-7.545	-0.002786
-7.540	-0.002793
-7.535	-0.002800
-7.530	-0.002752
-7.525	-0.002738
-7.520	-0.002752
-7.515	-0.002793
-7.510	-0.002745
-7.505	-0.002732
-7.500	-0.002731
-7.495	-0.002724
-7.490	-0.002738
-7.485	-0.002731
-7.480	-0.002717
-7.475	-0.002690
-7.470	-0.002697
-7.465	-0.002683
-7.460	-0.002635
-7.455	-0.002608
-7.450	-0.002628
-7.445	-0.002614
-7.440	-0.002601
-7.435	-0.002594
-7.430	-0.002573
-7.425	-0.002573
-7.420	-0.002553
-7.415	-0.002594
-7.410	-0.002553
-7.405	-0.002566
-7.400	-0.002525
-7.395	-0.002539
-7.390	-0.002539
-7.385	-0.002505
-7.380	-0.002539
-7.375	-0.002512
-7.370	-0.002533
-7.365	-0.002533
-7.360	-0.002512
-7.355	-0.002526
-7.350	-0.002526
-7.345	-0.002491
-7.340	-0.002471
-7.335	-0.002464
-7.330	-0.002485
-7.325	-0.002457
-7.320	-0.002444
-7.315	-0.002450
-7.310	-0.002457
-7.305	-0.002464
-7.300	-0.002437
-7.295	-0.002423
-7.290	-0.002416
-7.285	-0.002416
-7.280	-0.002396
-7.275	-0.002403
-7.270	-0.002403
-7.265	-0.002382
-7.260	-0.002382
-7.255	-0.002362
-7.250	-0.002355
-7.245	-0.002368
-7.240	-0.002327
-7.235	-0.002390
-7.230	-0.002389
-7.225	-0.002355
-7.220	-0.002341
-7.215	-0.002369
-7.210	-0.002328
-7.205	-0.002355
-7.200	-0.002321
-7.195	-0.002307
-7.190	-0.002280
-7.185	-0.002307
-7.180	-0.002314
-7.175	-0.002307
-7.170	-0.002273
-7.165	-0.002287
-7.160	-0.002286
-7.155	-0.002293
-7.150	-0.002279
-7.145	-0.002225
-7.140	-0.002252
-7.135	-0.002266
-7.130	-0.002245
-7.125	-0.002245
-7.120	-0.002252
-7.115	-0.002252
-7.110	-0.002225
-7.105	-0.002218
-7.100	-0.002204
-7.095	-0.002238
-7.090	-0.002204
-7.085	-0.002211
-7.080	-0.002190
-7.075	-0.002190
-7.070	-0.002197
-7.065	-0.002163
-7.060	-0.002177
-7.055	-0.002177
-7.050	-0.002190
-7.045	-0.002163
-7.040	-0.002184
-7.035	-0.002156
-7.030	-0.002170
-7.025	-0.002129
-7.020	-0.002142
-7.015	-0.002149
-7.010	-0.002163
-7.005	-0.002122
-7.000	-0.002101
-6.995	-0.002108
-6.990	-0.002074
-6.985	-0.002108
-6.980	-0.002101
-6.975	-0.002095
-6.970	-0.002067
-6.965	-0.002095
-6.960	-0.002067
-6.955	-0.002060
-6.950	-0.002054
-6.945	-0.002040
-6.940	-0.002067
-6.935	-0.002067
-6.930	-0.002026
-6.925	-0.002040
-6.920	-0.002047
-6.915	-0.002019
-6.910	-0.002033
-6.905	-0.002026
-6.900	-0.002026
-6.895	-0.002006
-6.890	-0.002054
-6.885	-0.002047
-6.880	-0.002026
-6.875	-0.001992
-6.870	-0.002040
-6.865	-0.002020
-6.860	-0.002054
-6.855	-0.002068
-6.850	-0.002033
-6.845	-0.002068
-6.840	-0.002054
-6.835	-0.002040
-6.830	-0.002040
-6.825	-0.002068
-6.820	-0.002068
-6.815	-0.002061
-6.810	-0.002068
-6.805	-0.002068
-6.800	-0.002054
-6.795	-0.002054
-6.790	-0.002041
-6.785	-0.002034
-6.780	-0.002054
-6.775	-0.002061
-6.770	-0.002034
-6.765	-0.002034
-6.760	-0.002027
-6.755	-0.002027
-6.750	-0.002020
-6.745	-0.001972
-6.740	-0.001959
-6.735	-0.001959
-6.730	-0.001986
-6.725	-0.001924
-6.720	-0.001972
-6.715	-0.001945
-6.710	-0.001945
-6.705	-0.001945
-6.700	-0.001925
-6.695	-0.001945
-6.690	-0.001931
-6.685	-0.001911
-6.680	-0.001931
-6.675	-0.001938
-6.670	-0.001925
-6.665	-0.001925
-6.660	-0.001918
-6.655	-0.001932
-6.650	-0.001897
-6.645	-0.001918
-6.640	-0.001925
-6.635	-0.001904
-6.630	-0.001904
-6.625	-0.001918
-6.620	-0.001891
-6.615	-0.001932
-6.610	-0.001891
-6.605	-0.001891
-6.600	-0.001863
-6.595	-0.001863
-6.590	-0.001863
-6.585	-0.001856
-6.580	-0.001829
-6.575	-0.001843
-6.570	-0.001836
-6.565	-0.001836
-6.560	-0.001822
-6.555	-0.001809
-6.550	-0.001781
-6.545	-0.001795
-6.540	-0.001802
-6.535	-0.001767
-6.530	-0.001761
-6.525	-0.001768
-6.520	-0.001761
-6.515	-0.001774
-6.510	-0.001761
-6.505	-0.001774
-6.500	-0.001775
-6.495	-0.001802
-6.490	-0.001781
-6.485	-0.001754
-6.480	-0.001754
-6.475	-0.001747
-6.470	-0.001713
-6.465	-0.001727
-6.460	-0.001706
-6.455	-0.001699
-6.450	-0.001768
-6.445	-0.001740
-6.440	-0.001754
-6.435	-0.001713
-6.430	-0.001727
-6.425	-0.001720
-6.420	-0.001720
-6.415	-0.001720
-6.410	-0.001727
-6.405	-0.001686
-6.400	-0.001672
-6.395	-0.001686
-6.390	-0.001699
-6.385	-0.001672
-6.380	-0.001693
-6.375	-0.001693
-6.370	-0.001700
-6.365	-0.001693
-6.360	-0.001693
-6.355	-0.001672
-6.350	-0.001693
-6.345	-0.001652
-6.340	-0.001665
-6.335	-0.001652
-6.330	-0.001652
-6.325	-0.001665
-6.320	-0.001659
-6.315	-0.001631
-6.310	-0.001617
-6.305	-0.001686
-6.300	-0.001652
-6.295	-0.001624
-6.290	-0.001645
-6.285	-0.001624
-6.280	-0.001638
-6.275	-0.001638
-6.270	-0.001618
-6.265	-0.001604
-6.260	-0.001618
-6.255	-0.001590
-6.250	-0.001604
-6.245	-0.001590
-6.240	-0.001618
-6.235	-0.001597
-6.230	-0.001604
-6.225	-0.001597
-6.220	-0.001604
-6.215	-0.001618
-6.210	-0.001611
-6.205	-0.001584
-6.200	-0.001584
-6.195	-0.001570
-6.190	-0.001577
-6.185	-0.001604
-6.180	-0.001604
-6.175	-0.001549
-6.170	-0.001591
-6.165	-0.001556
-6.160	-0.001591
-6.155	-0.001584
-6.150	-0.001549
-6.145	-0.001591
-6.140	-0.001584
-6.135	-0.001556
-6.130	-0.001563
-6.125	-0.001543
-6.120	-0.001529
-6.115	-0.001550
-6.110	-0.001536
-6.105	-0.001536
-6.100	-0.001536
-6.095	-0.001529
-6.090	-0.001577
-6.085	-0.001536
-6.080	-0.001509
-6.075	-0.001536
-6.070	-0.001509
-6.065	-0.001522
-6.060	-0.001502
-6.055	-0.001502
-6.050	-0.001522
-6.045	-0.001502
-6.040	-0.001495
-6.035	-0.001515
-6.030	-0.001481
-6.025	-0.001481
-6.020	-0.001468
-6.015	-0.001488
-6.010	-0.001481
-6.005	-0.001454
-6.000	-0.001454
-5.995	-0.001399
-5.990	-0.001433
-5.985	-0.001433
-5.980	-0.001440
-5.975	-0.001468
-5.970	-0.001454
-5.965	-0.001427
-5.960	-0.001434
-5.955	-0.001406
-5.950	-0.001420
-5.945	-0.001386
-5.940	-0.001399
-5.935	-0.001379
-5.930	-0.001379
-5.925	-0.001344
-5.920	-0.001338
-5.915	-0.001338
-5.910	-0.001365
-5.905	-0.001324
-5.900	-0.001345
-5.895	-0.001310
-5.890	-0.001345
-5.885	-0.001317
-5.880	-0.001290
-5.875	-0.001276
-5.870	-0.001276
-5.865	-0.001269
-5.860	-0.001269
-5.855	-0.001269
-5.850	-0.001283
-5.845	-0.001276
-5.840	-0.001290
-5.835	-0.001297
-5.830	-0.001269
-5.825	-0.001283
-5.820	-0.001290
-5.815	-0.001324
-5.810	-0.001318
-5.805	-0.001290
-5.800	-0.001359
-5.795	-0.001352
-5.790	-0.001373
-5.785	-0.001427
-5.780	-0.001475
-5.775	-0.001523
-5.770	-0.001578
-5.765	-0.001674
-5.760	-0.001743
-5.755	-0.001853
-5.750	-0.001956
-5.745	-0.002066
-5.740	-0.002128
-5.735	-0.002230
-5.730	-0.002347
-5.725	-0.002416
-5.720	-0.002478
-5.715	-0.002574
-5.710	-0.002622
-5.705	-0.002622
-5.700	-0.002615
-5.695	-0.002560
-5.690	-0.002491
-5.685	-0.002395
-5.680	-0.002299
-5.675	-0.002148
-5.670	-0.002032
-5.665	-0.001901
-5.660	-0.001757
-5.655	-0.001613
-5.650	-0.001469
-5.645	-0.001394
-5.640	-0.001325
-5.635	-0.001208
-5.630	-0.001188
-5.625	-0.001140
-5.620	-0.001092
-5.615	-0.001092
-5.610	-0.001071
-5.605	-0.001106
-5.600	-0.001078
-5.595	-0.001099
-5.590	-0.001085
-5.585	-0.001085
-5.580	-0.001113
-5.575	-0.001099
-5.570	-0.001105
-5.565	-0.001106
-5.560	-0.001085
-5.555	-0.001133
-5.550	-0.001113
-5.545	-0.001113
-5.540	-0.001113
-5.535	-0.001106
-5.530	-0.001126
-5.525	-0.001099
-5.520	-0.001113
-5.515	-0.001099
-5.510	-0.001133
-5.505	-0.001112
-5.500	-0.001126
-5.495	-0.001120
-5.490	-0.001133
-5.485	-0.001126
-5.480	-0.001092
-5.475	-0.001099
-5.470	-0.001120
-5.465	-0.001113
-5.460	-0.001044
-5.455	-0.000962
-5.450	-0.000687
-5.445	-0.000171
-5.440	0.000675
-5.435	0.001729
-5.430	0.003436
-5.425	0.005635
-5.420	0.008427
-5.415	0.011935
-5.410	0.015520
-5.405	0.019775
-5.400	0.024809
-5.395	0.029764
-5.390	0.035237
-5.385	0.041580
-5.380	0.047748
-5.375	0.052984
-5.370	0.058315
-5.365	0.064230
-5.360	0.069530
-5.355	0.072314
-5.350	0.071987
-5.345	0.069337
-5.340	0.065513
-5.335	0.061480
-5.330	0.057608
-5.325	0.054115
-5.320	0.051138
-5.315	0.048655
-5.310	0.046522
-5.305	0.044651
-5.300	0.042942
-5.295	0.041514
-5.290	0.040144
-5.285	0.038939
-5.280	0.037820
-5.275	0.036766
-5.270	0.035947
-5.265	0.035159
-5.260	0.034402
-5.255	0.033665
-5.250	0.032983
-5.245	0.032345
-5.240	0.031744
-5.235	0.031130
-5.230	0.030569
-5.225	0.029946
-5.220	0.029408
-5.215	0.028877
-5.210	0.028405
-5.205	0.028008
-5.200	0.027519
-5.195	0.027068
-5.190	0.026587
-5.185	0.026081
-5.180	0.025672
-5.175	0.025310
-5.170	0.024926
-5.165	0.024626
-5.160	0.024314
-5.155	0.023977
-5.150	0.023659
-5.145	0.023366
-5.140	0.023111
-5.135	0.022858
-5.130	0.022642
-5.125	0.022460
-5.120	0.022249
-5.115	0.022084
-5.110	0.021907
-5.105	0.021703
-5.100	0.021494
-5.095	0.021253
-5.090	0.020916
-5.085	0.020655
-5.080	0.020425
-5.075	0.020363
-5.070	0.020250
-5.065	0.020166
-5.060	0.019994
-5.055	0.019818
-5.050	0.019653
-5.045	0.019486
-5.040	0.019270
-5.035	0.019065
-5.030	0.018820
-5.025	0.018618
-5.020	0.018471
-5.015	0.018359
-5.010	0.018249
-5.005	0.018114
-5.000	0.018004
-4.995	0.017827
-4.990	0.017676
-4.985	0.017484
-4.980	0.017346
-4.975	0.017287
-4.970	0.017101
-4.965	0.016960
-4.960	0.016750
-4.955	0.016583
-4.950	0.016411
-4.945	0.016301
-4.940	0.016204
-4.935	0.016143
-4.930	0.016033
-4.925	0.015864
-4.920	0.015787
-4.915	0.015752
-4.910	0.015754
-4.905	0.015733
-4.900	0.015656
-4.895	0.015595
-4.890	0.015574
-4.885	0.015455
-4.880	0.015336
-4.875	0.015241
-4.870	0.015159
-4.865	0.015126
-4.860	0.015027
-4.855	0.014971
-4.850	0.014910
-4.845	0.014853
-4.840	0.014830
-4.835	0.014749
-4.830	0.014648
-4.825	0.014504
-4.820	0.014344
-4.815	0.014222
-4.810	0.014083
-4.805	0.014009
-4.800	0.013925
-4.795	0.013892
-4.790	0.013858
-4.785	0.013727
-4.780	0.013645
-4.775	0.013610
-4.770	0.013516
-4.765	0.013435
-4.760	0.013428
-4.755	0.013297
-4.750	0.013230
-4.745	0.013149
-4.740	0.013100
-4.735	0.013088
-4.730	0.013088
-4.725	0.013061
-4.720	0.013008
-4.715	0.012948
-4.710	0.012911
-4.705	0.012866
-4.700	0.012829
-4.695	0.012799
-4.690	0.012707
-4.685	0.012654
-4.680	0.012612
-4.675	0.012490
-4.670	0.012365
-4.665	0.012295
-4.660	0.012199
-4.655	0.012091
-4.650	0.011976
-4.645	0.011868
-4.640	0.011749
-4.635	0.011646
-4.630	0.011579
-4.625	0.011579
-4.620	0.011563
-4.615	0.011552
-4.610	0.011550
-4.605	0.011605
-4.600	0.011653
-4.595	0.011641
-4.590	0.011545
-4.585	0.011517
-4.580	0.011438
-4.575	0.011421
-4.570	0.011362
-4.565	0.011271
-4.560	0.011167
-4.555	0.011152
-4.550	0.011180
-4.545	0.011195
-4.540	0.011196
-4.535	0.011135
-4.530	0.011030
-4.525	0.010894
-4.520	0.010823
-4.515	0.010817
-4.510	0.010758
-4.505	0.010626
-4.500	0.010576
-4.495	0.010504
-4.490	0.010488
-4.485	0.010497
-4.480	0.010461
-4.475	0.010429
-4.470	0.010442
-4.465	0.010381
-4.460	0.010386
-4.455	0.010304
-4.450	0.010298
-4.445	0.010288
-4.440	0.010228
-4.435	0.010180
-4.430	0.010094
-4.425	0.010032
-4.420	0.009956
-4.415	0.009928
-4.410	0.009811
-4.405	0.009783
-4.400	0.009770
-4.395	0.009728
-4.390	0.009756
-4.385	0.009782
-4.380	0.009754
-4.375	0.009737
-4.370	0.009757
-4.365	0.009719
-4.360	0.009669
-4.355	0.009663
-4.350	0.009641
-4.345	0.009523
-4.340	0.009434
-4.335	0.009394
-4.330	0.009415
-4.325	0.009435
-4.320	0.009413
-4.315	0.009310
-4.310	0.009285
-4.305	0.009220
-4.300	0.009120
-4.295	0.009078
-4.290	0.009070
-4.285	0.009058
-4.280	0.009056
-4.275	0.009070
-4.270	0.009016
-4.265	0.008961
-4.260	0.008919
-4.255	0.008953
-4.250	0.008945
-4.245	0.008892
-4.240	0.008915
-4.235	0.008923
-4.230	0.008959
-4.225	0.008911
-4.220	0.008926
-4.215	0.008913
-4.210	0.008858
-4.205	0.008860
-4.200	0.008853
-4.195	0.008758
-4.190	0.008676
-4.185	0.008538
-4.180	0.008369
-4.175	0.008201
-4.170	0.008002
-4.165	0.007705
-4.160	0.007273
-4.155	0.006597
-4.150	0.005624
-4.145	0.004261
-4.140	0.002391
-4.135	0.000095
-4.130	-0.002874
-4.125	-0.006262
-4.120	-0.010262
-4.115	-0.014777
-4.110	-0.019731
-4.105	-0.025233
-4.100	-0.031078
-4.095	-0.037229
-4.090	-0.043477
-4.085	-0.049693
-4.080	-0.055757
-4.075	-0.061311
-4.070	-0.065853
-4.065	-0.069036
-4.060	-0.070510
-4.055	-0.070129
-4.050	-0.067918
-4.045	-0.064239
-4.040	-0.059942
-4.035	-0.055727
-4.030	-0.051859
-4.025	-0.048597
-4.020	-0.045782
-4.015	-0.043437
-4.010	-0.041383
-4.005	-0.039588
-4.000	-0.037996
-3.995	-0.036540
-3.990	-0.035259
-3.985	-0.034092
-3.980	-0.033061
-3.975	-0.032101
-3.970	-0.031219
-3.965	-0.030459
-3.960	-0.029696
-3.955	-0.029037
-3.950	-0.028374
-3.945	-0.027764
-3.940	-0.027202
-3.935	-0.026585
-3.930	-0.026042
-3.925	-0.025567
-3.920	-0.025172
-3.915	-0.024561
-3.910	-0.023275
-3.905	-0.022542
-3.900	-0.023573
-3.895	-0.024266
-3.890	-0.023646
-3.885	-0.022780
-3.880	-0.021914
-3.875	-0.020874
-3.870	-0.020169
-3.865	-0.020568
-3.860	-0.021271
-3.855	-0.020753
-3.850	-0.019669
-3.845	-0.019375
-3.840	-0.019496
-3.835	-0.019292
-3.830	-0.019135
-3.825	-0.018965
-3.820	-0.018262
-3.815	-0.017537
-3.810	-0.017374
-3.805	-0.017572
-3.800	-0.017660
-3.795	-0.017477
-3.790	-0.017114
-3.785	-0.016854
-3.780	-0.016633
-3.775	-0.016252
-3.770	-0.015980
-3.765	-0.015837
-3.760	-0.015746
-3.755	-0.015541
-3.750	-0.015263
-3.745	-0.015030
-3.740	-0.014786
-3.735	-0.014505
-3.730	-0.014441
-3.725	-0.014464
-3.720	-0.014443
-3.715	-0.014310
-3.710	-0.014111
-3.705	-0.013865
-3.700	-0.013758
-3.695	-0.013668
-3.690	-0.013419
-3.685	-0.013200
-3.680	-0.013107
-3.675	-0.013010
-3.670	-0.012915
-3.665	-0.012793
-3.660	-0.012694
-3.655	-0.012531
-3.650	-0.012442
-3.645	-0.012376
-3.640	-0.012323
-3.635	-0.012178
-3.630	-0.011935
-3.625	-0.011688
-3.620	-0.011495
-3.615	-0.011330
-3.610	-0.011181
-3.605	-0.010898
-3.600	-0.010696
-3.595	-0.010567
-3.590	-0.010322
-3.585	-0.009876
-3.580	-0.009470
-3.575	-0.009155
-3.570	-0.008840
-3.565	-0.008383
-3.560	-0.007746
-3.555	-0.007023
-3.550	-0.006494
-3.545	-0.006103
-3.540	-0.005469
-3.535	-0.004829
-3.530	-0.004140
-3.525	-0.003534
-3.520	-0.002958
-3.515	-0.002293
-3.510	-0.001690
-3.505	-0.001149
-3.500	-0.000669
-3.495	-0.000168
-3.490	0.000147
-3.485	0.000346
-3.480	0.000551
-3.475	0.000866
-3.470	0.001071
-3.465	0.001139
-3.460	0.001077
-3.455	0.000974
-3.450	0.000871
-3.445	0.000851
-3.440	0.000961
-3.435	0.001097
-3.430	0.001329
-3.425	0.001714
-3.420	0.002168
-3.415	0.002724
-3.410	0.003357
-3.405	0.004132
-3.400	0.004976
-3.395	0.005960
-3.390	0.007008
-3.385	0.008094
-3.380	0.009112
-3.375	0.010076
-3.370	0.011135
-3.365	0.011998
-3.360	0.012432
-3.355	0.012379
-3.350	0.012013
-3.345	0.011498
-3.340	0.010928
-3.335	0.010447
-3.330	0.010101
-3.325	0.009824
-3.320	0.009513
-3.315	0.009268
-3.310	0.009112
-3.305	0.009058
-3.300	0.009010
-3.295	0.008994
-3.290	0.008946
-3.285	0.008875
-3.280	0.008847
-3.275	0.008890
-3.270	0.008982
-3.265	0.009064
-3.260	0.009051
-3.255	0.009135
-3.250	0.009185
-3.245	0.009264
-3.240	0.009366
-3.235	0.009458
-3.230	0.009445
-3.225	0.009385
-3.220	0.009456
-3.215	0.009626
-3.210	0.009798
-3.205	0.009959
-3.200	0.010105
-3.195	0.010270
-3.190	0.010328
-3.185	0.010483
-3.180	0.010612
-3.175	0.010765
-3.170	0.010832
-3.165	0.010901
-3.160	0.010941
-3.155	0.011008
-3.150	0.011006
-3.145	0.011067
-3.140	0.011086
-3.135	0.011178
-3.130	0.011272
-3.125	0.011342
-3.120	0.011362
-3.115	0.011446
-3.110	0.011498
-3.105	0.011541
-3.100	0.011604
-3.095	0.011648
-3.090	0.011705
-3.085	0.011767
-3.080	0.011722
-3.075	0.011557
-3.070	0.010820
-3.065	0.009575
-3.060	0.009561
-3.055	0.010977
-3.050	0.012114
-3.045	0.012669
-3.040	0.013313
-3.035	0.013926
-3.030	0.014029
-3.025	0.013413
-3.020	0.012790
-3.015	0.012801
-3.010	0.013237
-3.005	0.013594
-3.000	0.013989
-2.995	0.014453
-2.990	0.014491
-2.985	0.013834
-2.980	0.013417
-2.975	0.013529
-2.970	0.013842
-2.965	0.013993
-2.960	0.013876
-2.955	0.013764
-2.950	0.014231
-2.945	0.014772
-2.940	0.014951
-2.935	0.014922
-2.930	0.014867
-2.925	0.014880
-2.920	0.014852
-2.915	0.014762
-2.910	0.014691
-2.905	0.014714
-2.900	0.014860
-2.895	0.015006
-2.890	0.015095
-2.885	0.015244
-2.880	0.015603
-2.875	0.015774
-2.870	0.015840
-2.865	0.015907
-2.860	0.016002
-2.855	0.015856
-2.850	0.015632
-2.845	0.015616
-2.840	0.015731
-2.835	0.015712
-2.830	0.015579
-2.825	0.015578
-2.820	0.015652
-2.815	0.015686
-2.810	0.015498
-2.805	0.015515
-2.800	0.015707
-2.795	0.015840
-2.790	0.015904
-2.785	0.015868
-2.780	0.015903
-2.775	0.016000
-2.770	0.016086
-2.765	0.016395
-2.760	0.016630
-2.755	0.016626
-2.750	0.016572
-2.745	0.016781
-2.740	0.017089
-2.735	0.017167
-2.730	0.017073
-2.725	0.017051
-2.720	0.017240
-2.715	0.017345
-2.710	0.017190
-2.705	0.017354
-2.700	0.017846
-2.695	0.017909
-2.690	0.017672
-2.685	0.017672
-2.680	0.017907
-2.675	0.018064
-2.670	0.018105
-2.665	0.018155
-2.660	0.018344
-2.655	0.018515
-2.650	0.018460
-2.645	0.018288
-2.640	0.018155
-2.635	0.018192
-2.630	0.018312
-2.625	0.018293
-2.620	0.018247
-2.615	0.018185
-2.610	0.018287
-2.605	0.018298
-2.600	0.018219
-2.595	0.018228
-2.590	0.018225
-2.585	0.018301
-2.580	0.018415
-2.575	0.018581
-2.570	0.018699
-2.565	0.018758
-2.560	0.018859
-2.555	0.018824
-2.550	0.018657
-2.545	0.018580
-2.540	0.018653
-2.535	0.018756
-2.530	0.018834
-2.525	0.018838
-2.520	0.018798
-2.515	0.018776
-2.510	0.018707
-2.505	0.018645
-2.500	0.018742
-2.495	0.018980
-2.490	0.019062
-2.485	0.019006
-2.480	0.018902
-2.475	0.018879
-2.470	0.018893
-2.465	0.019117
-2.460	0.019352
-2.455	0.019337
-2.450	0.019343
-2.445	0.019319
-2.440	0.019351
-2.435	0.019243
-2.430	0.019247
-2.425	0.019383
-2.420	0.019520
-2.415	0.019595
-2.410	0.019668
-2.405	0.019704
-2.400	0.019737
-2.395	0.019773
-2.390	0.019776
-2.385	0.019863
-2.380	0.019925
-2.375	0.019898
-2.370	0.019847
-2.365	0.019825
-2.360	0.019850
-2.355	0.019837
-2.350	0.019891
-2.345	0.019930
-2.340	0.020026
-2.335	0.020148
-2.330	0.020182
-2.325	0.020172
-2.320	0.020105
-2.315	0.019958
-2.310	0.019862
-2.305	0.019803
-2.300	0.019770
-2.295	0.019787
-2.290	0.019793
-2.285	0.019758
-2.280	0.019760
-2.275	0.019781
-2.270	0.019758
-2.265	0.019727
-2.260	0.019671
-2.255	0.019649
-2.250	0.019577
-2.245	0.019533
-2.240	0.019535
-2.235	0.019542
-2.230	0.019521
-2.225	0.019534
-2.220	0.019570
-2.215	0.019602
-2.210	0.019625
-2.205	0.019568
-2.200	0.019626
-2.195	0.019854
-2.190	0.019969
-2.185	0.019940
-2.180	0.019869
-2.175	0.019865
-2.170	0.019782
-2.165	0.019774
-2.160	0.019760
-2.155	0.019877
-2.150	0.020041
-2.145	0.020186
-2.140	0.020247
-2.135	0.020318
-2.130	0.020378
-2.125	0.020373
-2.120	0.020328
-2.115	0.020242
-2.110	0.020202
-2.105	0.020164
-2.100	0.020132
-2.095	0.020097
-2.090	0.020025
-2.085	0.019961
-2.080	0.019827
-2.075	0.019790
-2.070	0.019810
-2.065	0.019837
-2.060	0.019810
-2.055	0.019875
-2.050	0.019946
-2.045	0.020062
-2.040	0.020144
-2.035	0.020169
-2.030	0.020247
-2.025	0.020267
-2.020	0.020284
-2.015	0.020273
-2.010	0.020274
-2.005	0.020249
-2.000	0.020222
-1.995	0.020231
-1.990	0.020238
-1.985	0.020222
-1.980	0.020211
-1.975	0.020164
-1.970	0.020077
-1.965	0.019967
-1.960	0.019879
-1.955	0.019778
-1.950	0.019637
-1.945	0.019537
-1.940	0.019421
-1.935	0.019355
-1.930	0.019282
-1.925	0.019219
-1.920	0.019146
-1.915	0.019072
-1.910	0.019084
-1.905	0.019140
-1.900	0.019168
-1.895	0.019261
-1.890	0.019332
-1.885	0.019396
-1.880	0.019373
-1.875	0.019335
-1.870	0.019327
-1.865	0.019245
-1.860	0.019231
-1.855	0.019221
-1.850	0.019179
-1.845	0.019193
-1.840	0.019233
-1.835	0.019399
-1.830	0.019545
-1.825	0.019708
-1.820	0.019738
-1.815	0.019791
-1.810	0.019774
-1.805	0.019690
-1.800	0.019591
-1.795	0.019483
-1.790	0.019381
-1.785	0.019203
-1.780	0.019031
-1.775	0.018848
-1.770	0.018717
-1.765	0.018530
-1.760	0.018427
-1.755	0.018323
-1.750	0.018171
-1.745	0.018026
-1.740	0.017961
-1.735	0.017930
-1.730	0.017960
-1.725	0.018031
-1.720	0.018096
-1.715	0.018206
-1.710	0.018328
-1.705	0.018454
-1.700	0.018497
-1.695	0.018632
-1.690	0.018681
-1.685	0.018705
-1.680	0.018737
-1.675	0.018654
-1.670	0.018599
-1.665	0.018556
-1.660	0.018516
-1.655	0.018500
-1.650	0.018513
-1.645	0.018557
-1.640	0.018633
-1.635	0.018658
-1.630	0.018683
-1.625	0.018679
-1.620	0.018617
-1.615	0.018603
-1.610	0.018604
-1.605	0.018512
-1.600	0.018411
-1.595	0.018316
-1.590	0.018166
-1.585	0.018003
-1.580	0.017877
-1.575	0.017719
-1.570	0.017539
-1.565	0.017381
-1.560	0.017259
-1.555	0.017137
-1.550	0.017057
-1.545	0.016973
-1.540	0.016934
-1.535	0.016949
-1.530	0.016977
-1.525	0.016996
-1.520	0.017030
-1.515	0.016982
-1.510	0.016945
-1.505	0.016857
-1.500	0.016815
-1.495	0.016737
-1.490	0.016711
-1.485	0.016618
-1.480	0.016567
-1.475	0.016513
-1.470	0.016504
-1.465	0.016429
-1.460	0.016319
-1.455	0.016256
-1.450	0.016199
-1.445	0.016156
-1.440	0.016169
-1.435	0.016195
-1.430	0.016236
-1.425	0.016222
-1.420	0.016208
-1.415	0.016216
-1.410	0.016257
-1.405	0.016306
-1.400	0.016311
-1.395	0.016295
-1.390	0.016241
-1.385	0.016184
-1.380	0.016138
-1.375	0.016022
-1.370	0.015885
-1.365	0.015803
-1.360	0.015732
-1.355	0.015588
-1.350	0.015514
-1.345	0.015427
-1.340	0.015326
-1.335	0.015239
-1.330	0.015142
-1.325	0.015017
-1.320	0.014886
-1.315	0.014860
-1.310	0.014889
-1.305	0.014963
-1.300	0.014984
-1.295	0.014969
-1.290	0.014926
-1.285	0.014937
-1.280	0.014930
-1.275	0.014964
-1.270	0.014955
-1.265	0.014986
-1.260	0.014970
-1.255	0.014989
-1.250	0.014935
-1.245	0.014873
-1.240	0.014770
-1.235	0.014676
-1.230	0.014625
-1.225	0.014514
-1.220	0.014405
-1.215	0.014248
-1.210	0.014203
-1.205	0.014148
-1.200	0.014146
-1.195	0.014204
-1.190	0.014222
-1.185	0.014240
-1.180	0.014264
-1.175	0.014315
-1.170	0.014355
-1.165	0.014330
-1.160	0.014363
-1.155	0.014384
-1.150	0.014349
-1.145	0.014284
-1.140	0.014221
-1.135	0.014128
-1.130	0.014039
-1.125	0.013904
-1.120	0.013769
-1.115	0.013644
-1.110	0.013454
-1.105	0.013339
-1.100	0.013212
-1.095	0.013049
-1.090	0.012948
-1.085	0.012825
-1.080	0.012756
-1.075	0.012686
-1.070	0.012624
-1.065	0.012590
-1.060	0.012566
-1.055	0.012604
-1.050	0.012604
-1.045	0.012575
-1.040	0.012560
-1.035	0.012542
-1.030	0.012517
-1.025	0.012528
-1.020	0.012490
-1.015	0.012456
-1.010	0.012428
-1.005	0.012401
-1.000	0.012350
-0.995	0.012343
-0.990	0.012268
-0.985	0.012202
-0.980	0.012106
-0.975	0.012098
-0.970	0.012005
-0.965	0.011931
-0.960	0.011879
-0.955	0.011808
-0.950	0.011749
-0.945	0.011703
-0.940	0.011644
-0.935	0.011590
-0.930	0.011570
-0.925	0.011466
-0.920	0.011377
-0.915	0.011304
-0.910	0.011220
-0.905	0.011125
-0.900	0.011052
-0.895	0.010969
-0.890	0.010866
-0.885	0.010852
-0.880	0.010797
-0.875	0.010797
-0.870	0.010734
-0.865	0.010612
-0.860	0.010562
-0.855	0.010542
-0.850	0.010535
-0.845	0.010492
-0.840	0.010477
-0.835	0.010433
-0.830	0.010357
-0.825	0.010323
-0.820	0.010247
-0.815	0.010179
-0.810	0.010095
-0.805	0.010025
-0.800	0.009948
-0.795	0.009849
-0.790	0.009805
-0.785	0.009736
-0.780	0.009642
-0.775	0.009582
-0.770	0.009469
-0.765	0.009417
-0.760	0.009354
-0.755	0.009280
-0.750	0.009218
-0.745	0.009172
-0.740	0.009084
-0.735	0.009032
-0.730	0.008954
-0.725	0.008895
-0.720	0.008825
-0.715	0.008746
-0.710	0.008673
-0.705	0.008603
-0.700	0.008546
-0.695	0.008485
-0.690	0.008432
-0.685	0.008440
-0.680	0.008379
-0.675	0.008298
-0.670	0.008222
-0.665	0.008168
-0.660	0.008099
-0.655	0.008010
-0.650	0.007902
-0.645	0.007837
-0.640	0.007743
-0.635	0.007671
-0.630	0.007602
-0.625	0.007520
-0.620	0.007478
-0.615	0.007417
-0.610	0.007340
-0.605	0.007282
-0.600	0.007211
-0.595	0.007190
-0.590	0.007142
-0.585	0.007096
-0.580	0.007018
-0.575	0.006938
-0.570	0.006916
-0.565	0.006892
-0.560	0.006850
-0.555	0.006814
-0.550	0.006750
-0.545	0.006723
-0.540	0.006701
-0.535	0.006707
-0.530	0.006653
-0.525	0.006606
-0.520	0.006557
-0.515	0.006525
-0.510	0.006478
-0.505	0.006397
-0.500	0.006360
-0.495	0.006247
-0.490	0.006215
-0.485	0.006146
-0.480	0.006078
-0.475	0.005982
-0.470	0.005975
-0.465	0.005947
-0.460	0.005900
-0.455	0.005818
-0.450	0.005731
-0.445	0.005622
-0.440	0.005554
-0.435	0.005463
-0.430	0.005394
-0.425	0.005315
-0.420	0.005166
-0.415	0.005079
-0.410	0.004986
-0.405	0.004830
-0.400	0.004754
-0.395	0.004713
-0.390	0.004574
-0.385	0.004525
-0.380	0.004477
-0.375	0.004435
-0.370	0.004385
-0.365	0.004370
-0.360	0.004266
-0.355	0.004199
-0.350	0.004143
-0.345	0.004060
-0.340	0.003984
-0.335	0.003929
-0.330	0.003874
-0.325	0.003805
-0.320	0.003750
-0.315	0.003695
-0.310	0.003605
-0.305	0.003583
-0.300	0.003540
-0.295	0.003457
-0.290	0.003416
-0.285	0.003401
-0.280	0.003432
-0.275	0.003450
-0.270	0.003531
-0.265	0.003491
-0.260	0.003417
-0.255	0.003273
-0.250	0.003279
-0.245	0.003224
-0.240	0.003195
-0.235	0.003145
-0.230	0.003000
-0.225	0.002932
-0.220	0.002870
-0.215	0.002841
-0.210	0.002820
-0.205	0.002771
-0.200	0.002798
-0.195	0.002763
-0.190	0.002702
-0.185	0.002715
-0.180	0.002803
-0.175	0.002880
-0.170	0.002907
-0.165	0.002998
-0.160	0.003069
-0.155	0.003234
-0.150	0.003309
-0.145	0.003371
-0.140	0.003438
-0.135	0.003403
-0.130	0.003238
-0.125	0.002951
-0.120	0.002445
-0.115	0.001761
-0.110	0.000985
-0.105	0.000180
-0.100	-0.000756
-0.095	-0.001841
-0.090	-0.002982
-0.085	-0.003999
-0.080	-0.004765
-0.075	-0.005290
-0.070	-0.005412
-0.065	-0.005196
-0.060	-0.004521
-0.055	-0.003325
-0.050	-0.001711
-0.045	0.000137
-0.040	0.002034
-0.035	0.003862
-0.030	0.005481
-0.025	0.006643
-0.020	0.007208
-0.015	0.007091
-0.010	0.006383
-0.005	0.005259
0.000	0.003877
0.005	0.002306
0.010	0.000764
0.015	-0.000715
0.020	-0.001883
0.025	-0.002796
0.030	-0.003318
0.035	-0.003545
0.040	-0.003476
0.045	-0.003195
0.050	-0.002687
0.055	-0.002213
0.060	-0.001842
0.065	-0.001677
0.070	-0.001519
0.075	-0.001341
0.080	-0.001306
0.085	-0.001347
0.090	-0.001437
0.095	-0.001409
0.100	-0.001402
0.105	-0.001437
0.110	-0.001636
0.115	-0.001938
0.120	-0.002226
0.125	-0.002281
0.130	-0.002315
0.135	-0.002281
0.140	-0.002350
0.145	-0.002460
0.150	-0.002542
0.155	-0.002625
0.160	-0.002714
0.165	-0.002844
0.170	-0.002892
0.175	-0.003002
0.180	-0.003071
0.185	-0.003160
0.190	-0.003256
0.195	-0.003297
0.200	-0.003454
0.205	-0.003502
0.210	-0.003543
0.215	-0.003619
0.220	-0.003716
0.225	-0.003709
0.230	-0.003737
0.235	-0.003798
0.240	-0.003805
0.245	-0.003880
0.250	-0.003907
0.255	-0.003907
0.260	-0.003976
0.265	-0.003928
0.270	-0.003921
0.275	-0.003956
0.280	-0.003983
0.285	-0.003991
0.290	-0.004019
0.295	-0.004033
0.300	-0.004067
0.305	-0.004121
0.310	-0.004195
0.315	-0.004209
0.320	-0.004250
0.325	-0.004278
0.330	-0.004292
0.335	-0.004320
0.340	-0.004375
0.345	-0.004409
0.350	-0.004493
0.355	-0.004583
0.360	-0.004631
0.365	-0.004671
0.370	-0.004738
0.375	-0.004807
0.380	-0.004862
0.385	-0.004971
0.390	-0.005066
0.395	-0.005100
0.400	-0.005169
0.405	-0.005237
0.410	-0.005271
0.415	-0.005340
0.420	-0.005431
0.425	-0.005486
0.430	-0.005588
0.435	-0.005635
0.440	-0.005716
0.445	-0.005812
0.450	-0.005853
0.455	-0.005936
0.460	-0.006025
0.465	-0.006129
0.470	-0.006205
0.475	-0.006287
0.480	-0.006377
0.485	-0.006469
0.490	-0.006566
0.495	-0.006635
0.500	-0.006756
0.505	-0.006885
0.510	-0.006920
0.515	-0.007064
0.520	-0.007165
0.525	-0.007227
0.530	-0.007309
0.535	-0.007384
0.540	-0.007425
0.545	-0.007495
0.550	-0.007585
0.555	-0.007669
0.560	-0.007752
0.565	-0.007771
0.570	-0.007832
0.575	-0.007846
0.580	-0.007873
0.585	-0.007921
0.590	-0.007954
0.595	-0.008004
0.600	-0.008018
0.605	-0.008087
0.610	-0.008148
0.615	-0.008197
0.620	-0.008261
0.625	-0.008337
0.630	-0.008397
0.635	-0.008477
0.640	-0.008511
0.645	-0.008565
0.650	-0.008587
0.655	-0.008650
0.660	-0.008671
0.665	-0.008719
0.670	-0.008726
0.675	-0.008781
0.680	-0.008785
0.685	-0.008807
0.690	-0.008794
0.695	-0.008813
0.700	-0.008799
0.705	-0.008840
0.710	-0.008868
0.715	-0.008902
0.720	-0.008923
0.725	-0.008943
0.730	-0.009033
0.735	-0.009080
0.740	-0.009108
0.745	-0.009176
0.750	-0.009295
0.755	-0.009401
0.760	-0.009496
0.765	-0.009590
0.770	-0.009672
0.775	-0.009824
0.780	-0.009919
0.785	-0.010002
0.790	-0.010146
0.795	-0.010234
0.800	-0.010336
0.805	-0.010410
0.810	-0.010485
0.815	-0.010567
0.820	-0.010680
0.825	-0.010736
0.830	-0.010817
0.835	-0.010925
0.840	-0.010945
0.845	-0.011041
0.850	-0.011107
0.855	-0.011175
0.860	-0.011280
0.865	-0.011386
0.870	-0.011481
0.875	-0.011537
0.880	-0.011606
0.885	-0.011746
0.890	-0.011816
0.895	-0.011897
0.900	-0.012032
0.905	-0.012107
0.910	-0.012137
0.915	-0.012247
0.920	-0.012296
0.925	-0.012297
0.930	-0.012332
0.935	-0.012348
0.940	-0.012381
0.945	-0.012368
0.950	-0.012342
0.955	-0.012318
0.960	-0.012297
0.965	-0.012252
0.970	-0.012298
0.975	-0.012282
0.980	-0.012253
0.985	-0.012272
0.990	-0.012271
0.995	-0.012298
1.000	-0.012311
1.005	-0.012379
1.010	-0.012358
1.015	-0.012517
1.020	-0.012601
1.025	-0.012657
1.030	-0.012749
1.035	-0.012858
1.040	-0.012961
1.045	-0.013044
1.050	-0.013085
1.055	-0.013148
1.060	-0.013244
1.065	-0.013292
1.070	-0.013312
1.075	-0.013359
1.080	-0.013419
1.085	-0.013443
1.090	-0.013455
1.095	-0.013461
1.100	-0.013521
1.105	-0.013548
1.110	-0.013557
1.115	-0.013564
1.120	-0.013578
1.125	-0.013633
1.130	-0.013667
1.135	-0.013714
1.140	-0.013767
1.145	-0.013849
1.150	-0.013899
1.155	-0.013976
1.160	-0.014118
1.165	-0.014222
1.170	-0.014296
1.175	-0.014413
1.180	-0.014531
1.185	-0.014655
1.190	-0.014732
1.195	-0.014801
1.200	-0.014904
1.205	-0.014978
1.210	-0.015016
1.215	-0.015045
1.220	-0.015082
1.225	-0.015071
1.230	-0.015027
1.235	-0.014965
1.240	-0.014931
1.245	-0.014957
1.250	-0.014936
1.255	-0.014916
1.260	-0.014943
1.265	-0.014970
1.270	-0.014977
1.275	-0.015024
1.280	-0.015059
1.285	-0.015158
1.290	-0.015185
1.295	-0.015230
1.300	-0.015300
1.305	-0.015399
1.310	-0.015499
1.315	-0.015562
1.320	-0.015667
1.325	-0.015702
1.330	-0.015730
1.335	-0.015647
1.340	-0.015604
1.345	-0.015535
1.350	-0.015498
1.355	-0.015447
1.360	-0.015420
1.365	-0.015375
1.370	-0.015377
1.375	-0.015343
1.380	-0.015401
1.385	-0.015379
1.390	-0.015433
1.395	-0.015556
1.400	-0.015634
1.405	-0.015731
1.410	-0.015902
1.415	-0.016041
1.420	-0.016194
1.425	-0.016360
1.430	-0.016481
1.435	-0.016625
1.440	-0.016742
1.445	-0.016834
1.450	-0.016913
1.455	-0.016969
1.460	-0.017052
1.465	-0.017072
1.470	-0.017184
1.475	-0.017202
1.480	-0.017269
1.485	-0.017282
1.490	-0.017346
1.495	-0.017358
1.500	-0.017355
1.505	-0.017367
1.510	-0.017376
1.515	-0.017444
1.520	-0.017449
1.525	-0.017488
1.530	-0.017583
1.535	-0.017631
1.540	-0.017681
1.545	-0.017760
1.550	-0.017788
1.555	-0.017846
1.560	-0.017873
1.565	-0.017853
1.570	-0.017773
1.575	-0.017734
1.580	-0.017654
1.585	-0.017573
1.590	-0.017504
1.595	-0.017530
1.600	-0.017476
1.605	-0.017556
1.610	-0.017596
1.615	-0.017637
1.620	-0.017769
1.625	-0.017869
1.630	-0.017966
1.635	-0.018094
1.640	-0.018185
1.645	-0.018243
1.650	-0.018293
1.655	-0.018350
1.660	-0.018370
1.665	-0.018377
1.670	-0.018377
1.675	-0.018351
1.680	-0.018311
1.685	-0.018297
1.690	-0.018298
1.695	-0.018272
1.700	-0.018294
1.705	-0.018317
1.710	-0.018360
1.715	-0.018442
1.720	-0.018455
1.725	-0.018528
1.730	-0.018592
1.735	-0.018627
1.740	-0.018711
1.745	-0.018704
1.750	-0.018704
1.755	-0.018747
1.760	-0.018715
1.765	-0.018647
1.770	-0.018564
1.775	-0.018501
1.780	-0.018424
1.785	-0.018331
1.790	-0.018301
1.795	-0.018293
1.800	-0.018272
1.805	-0.018321
1.810	-0.018377
1.815	-0.018494
1.820	-0.018618
1.825	-0.018757
1.830	-0.018845
1.835	-0.018960
1.840	-0.019106
1.845	-0.019196
1.850	-0.019275
1.855	-0.019331
1.860	-0.019370
1.865	-0.019371
1.870	-0.019411
1.875	-0.019372
1.880	-0.019354
1.885	-0.019339
1.890	-0.019311
1.895	-0.019334
1.900	-0.019311
1.905	-0.019295
1.910	-0.019266
1.915	-0.019250
1.920	-0.019229
1.925	-0.019231
1.930	-0.019267
1.935	-0.019260
1.940	-0.019236
1.945	-0.019184
1.950	-0.019126
1.955	-0.019087
1.960	-0.019083
1.965	-0.019076
1.970	-0.019101
1.975	-0.019211
1.980	-0.019302
1.985	-0.019383
1.990	-0.019514
1.995	-0.019615
2.000	-0.019750
2.005	-0.019850
2.010	-0.019885
2.015	-0.019933
2.020	-0.019936
2.025	-0.019990
2.030	-0.020087
2.035	-0.020109
2.040	-0.020184
2.045	-0.020160
2.050	-0.020132
2.055	-0.020023
2.060	-0.019987
2.065	-0.019974
2.070	-0.019911
2.075	-0.019829
2.080	-0.019699
2.085	-0.019642
2.090	-0.019501
2.095	-0.019396
2.100	-0.019217
2.105	-0.019057
2.110	-0.018908
2.115	-0.018803
2.120	-0.018725
2.125	-0.018618
2.130	-0.018620
2.135	-0.018687
2.140	-0.018752
2.145	-0.018918
2.150	-0.019133
2.155	-0.019304
2.160	-0.019434
2.165	-0.019556
2.170	-0.019623
2.175	-0.019679
2.180	-0.019774
2.185	-0.019805
2.190	-0.019804
2.195	-0.019760
2.200	-0.019685
2.205	-0.019644
2.210	-0.019577
2.215	-0.019507
2.220	-0.019473
2.225	-0.019381
2.230	-0.019253
2.235	-0.019194
2.240	-0.019133
2.245	-0.019143
2.250	-0.019103
2.255	-0.019072
2.260	-0.019059
2.265	-0.018975
2.270	-0.019004
2.275	-0.019042
2.280	-0.019121
2.285	-0.019258
2.290	-0.019356
2.295	-0.019476
2.300	-0.019575
2.305	-0.019649
2.310	-0.019758
2.315	-0.019823
2.320	-0.019851
2.325	-0.019860
2.330	-0.019883
2.335	-0.019831
2.340	-0.019764
2.345	-0.019710
2.350	-0.019673
2.355	-0.019611
2.360	-0.019584
2.365	-0.019535
2.370	-0.019442
2.375	-0.019363
2.380	-0.019264
2.385	-0.019144
2.390	-0.019053
2.395	-0.018882
2.400	-0.018750
2.405	-0.018627
2.410	-0.018546
2.415	-0.018444
2.420	-0.018472
2.425	-0.018431
2.430	-0.018487
2.435	-0.018545
2.440	-0.018644
2.445	-0.018686
2.450	-0.018622
2.455	-0.018587
2.460	-0.018494
2.465	-0.018542
2.470	-0.018560
2.475	-0.018541
2.480	-0.018597
2.485	-0.018637
2.490	-0.018676
2.495	-0.018646
2.500	-0.018574
2.505	-0.018551
2.510	-0.018464
2.515	-0.018411
2.520	-0.018333
2.525	-0.018238
2.530	-0.018125
2.535	-0.018003
2.540	-0.017942
2.545	-0.017938
2.550	-0.017979
2.555	-0.017953
2.560	-0.017973
2.565	-0.017936
2.570	-0.017887
2.575	-0.017858
2.580	-0.017792
2.585	-0.017752
2.590	-0.017747
2.595	-0.017793
2.600	-0.017883
2.605	-0.017946
2.610	-0.017948
2.615	-0.017996
2.620	-0.018074
2.625	-0.018092
2.630	-0.018001
2.635	-0.017880
2.640	-0.017780
2.645	-0.017670
2.650	-0.017559
2.655	-0.017376
2.660	-0.017211
2.665	-0.017135
2.670	-0.017105
2.675	-0.017017
2.680	-0.016854
2.685	-0.016747
2.690	-0.016666
2.695	-0.016599
2.700	-0.016493
2.705	-0.016404
2.710	-0.016397
2.715	-0.016365
2.720	-0.016353
2.725	-0.016336
2.730	-0.016268
2.735	-0.016173
2.740	-0.016097
2.745	-0.015982
2.750	-0.015856
2.755	-0.015713
2.760	-0.015614
2.765	-0.015543
2.770	-0.015476
2.775	-0.015369
2.780	-0.015307
2.785	-0.015296
2.790	-0.015293
2.795	-0.015262
2.800	-0.015225
2.805	-0.015207
2.810	-0.015268
2.815	-0.015306
2.820	-0.015386
2.825	-0.015394
2.830	-0.015451
2.835	-0.015420
2.840	-0.015378
2.845	-0.015298
2.850	-0.015235
2.855	-0.015216
2.860	-0.015139
2.865	-0.015001
2.870	-0.014896
2.875	-0.014757
2.880	-0.014654
2.885	-0.014484
2.890	-0.014317
2.895	-0.014173
2.900	-0.014088
2.905	-0.013994
2.910	-0.013919
2.915	-0.013879
2.920	-0.013825
2.925	-0.013748
2.930	-0.013650
2.935	-0.013520
2.940	-0.013417
2.945	-0.013343
2.950	-0.013279
2.955	-0.013175
2.960	-0.013111
2.965	-0.013101
2.970	-0.013087
2.975	-0.012930
2.980	-0.012816
2.985	-0.012819
2.990	-0.012786
2.995	-0.012677
3.000	-0.012574
3.005	-0.012469
3.010	-0.012393
3.015	-0.012286
3.020	-0.012205
3.025	-0.012058
3.030	-0.011936
3.035	-0.011846
3.040	-0.011784
3.045	-0.011762
3.050	-0.011672
3.055	-0.011597
3.060	-0.011551
3.065	-0.011527
3.070	-0.011513
3.075	-0.011476
3.080	-0.011442
3.085	-0.011362
3.090	-0.011273
3.095	-0.011178
3.100	-0.011053
3.105	-0.010929
3.110	-0.010842
3.115	-0.010755
3.120	-0.010748
3.125	-0.010722
3.130	-0.010690
3.135	-0.010593
3.140	-0.010454
3.145	-0.010331
3.150	-0.010247
3.155	-0.010208
3.160	-0.010125
3.165	-0.010050
3.170	-0.009920
3.175	-0.009832
3.180	-0.009790
3.185	-0.009658
3.190	-0.009533
3.195	-0.009421
3.200	-0.009366
3.205	-0.009208
3.210	-0.009070
3.215	-0.008934
3.220	-0.008866
3.225	-0.008777
3.230	-0.008707
3.235	-0.008626
3.240	-0.008618
3.245	-0.008673
3.250	-0.008705
3.255	-0.008732
3.260	-0.008746
3.265	-0.008759
3.270	-0.008801
3.275	-0.008816
3.280	-0.008833
3.285	-0.008898
3.290	-0.009104
3.295	-0.009360
3.300	-0.009593
3.305	-0.009839
3.310	-0.010160
3.315	-0.010419
3.320	-0.010680
3.325	-0.010832
3.330	-0.010896
3.335	-0.010828
3.340	-0.010711
3.345	-0.010475
3.350	-0.010206
3.355	-0.009761
3.360	-0.009118
3.365	-0.008369
3.370	-0.007554
3.375	-0.006574
3.380	-0.005329
3.385	-0.003912
3.390	-0.002500
3.395	-0.001409
3.400	-0.000711
3.405	-0.000286
3.410	-0.000135
3.415	-0.000141
3.420	-0.000257
3.425	-0.000415
3.430	-0.000505
3.435	-0.000532
3.440	-0.000546
3.445	-0.000567
3.450	-0.000505
3.455	-0.000402
3.460	-0.000299
3.465	-0.000032
3.470	0.000256
3.475	0.000673
3.480	0.001037
3.485	0.001463
3.490	0.001998
3.495	0.002564
3.500	0.003166
3.505	0.003762
3.510	0.004432
3.515	0.005062
3.520	0.005673
3.525	0.006358
3.530	0.006968
3.535	0.007608
3.540	0.008136
3.545	0.008650
3.550	0.009113
3.555	0.009540
3.560	0.009873
3.565	0.010207
3.570	0.010516
3.575	0.010821
3.580	0.011080
3.585	0.011259
3.590	0.011445
3.595	0.011645
3.600	0.011837
3.605	0.011967
3.610	0.012136
3.615	0.012264
3.620	0.012396
3.625	0.012514
3.630	0.012638
3.635	0.012672
3.640	0.012740
3.645	0.012872
3.650	0.012956
3.655	0.013099
3.660	0.013308
3.665	0.013526
3.670	0.013713
3.675	0.013849
3.680	0.013950
3.685	0.014045
3.690	0.014183
3.695	0.014349
3.700	0.014439
3.705	0.014550
3.710	0.014709
3.715	0.014881
3.720	0.015000
3.725	0.015184
3.730	0.015399
3.735	0.015565
3.740	0.015736
3.745	0.015912
3.750	0.016082
3.755	0.016234
3.760	0.016416
3.765	0.016626
3.770	0.016801
3.775	0.017077
3.780	0.017288
3.785	0.017516
3.790	0.017743
3.795	0.017965
3.800	0.018208
3.805	0.018462
3.810	0.018748
3.815	0.019030
3.820	0.019294
3.825	0.019662
3.830	0.019931
3.835	0.020250
3.840	0.020542
3.845	0.020913
3.850	0.021256
3.855	0.021622
3.860	0.021925
3.865	0.022285
3.870	0.022655
3.875	0.023005
3.880	0.023376
3.885	0.023762
3.890	0.024214
3.895	0.024630
3.900	0.025032
3.905	0.025470
3.910	0.025918
3.915	0.026391
3.920	0.026887
3.925	0.027479
3.930	0.028045
3.935	0.028635
3.940	0.029326
3.945	0.030112
3.950	0.030843
3.955	0.031661
3.960	0.032529
3.965	0.033447
3.970	0.034498
3.975	0.035716
3.980	0.037081
3.985	0.038563
3.990	0.040262
3.995	0.042133
4.000	0.044278
4.005	0.046612
4.010	0.049160
4.015	0.051850
4.020	0.054668
4.025	0.057385
4.030	0.059865
4.035	0.061988
4.040	0.063680
4.045	0.064781
4.050	0.065222
4.055	0.064849
4.060	0.063442
4.065	0.060986
4.070	0.057604
4.075	0.053053
4.080	0.047083
4.085	0.040005
4.090	0.031983
4.095	0.023847
4.100	0.016007
4.105	0.009098
4.110	0.003547
4.115	-0.000443
4.120	-0.003114
4.125	-0.004816
4.130	-0.005948
4.135	-0.006649
4.140	-0.007089
4.145	-0.007440
4.150	-0.007654
4.155	-0.007908
4.160	-0.008057
4.165	-0.008192
4.170	-0.008322
4.175	-0.008452
4.180	-0.008509
4.185	-0.008557
4.190	-0.008530
4.195	-0.008490
4.200	-0.008449
4.205	-0.008470
4.210	-0.008551
4.215	-0.008664
4.220	-0.008706
4.225	-0.008760
4.230	-0.008772
4.235	-0.008800
4.240	-0.008758
4.245	-0.008733
4.250	-0.008656
4.255	-0.008757
4.260	-0.008873
4.265	-0.008902
4.270	-0.008802
4.275	-0.008704
4.280	-0.008718
4.285	-0.008705
4.290	-0.008780
4.295	-0.008838
4.300	-0.008948
4.305	-0.009038
4.310	-0.009115
4.315	-0.009152
4.320	-0.009180
4.325	-0.009264
4.330	-0.009338
4.335	-0.009386
4.340	-0.009439
4.345	-0.009445
4.350	-0.009425
4.355	-0.009398
4.360	-0.009362
4.365	-0.009384
4.370	-0.009371
4.375	-0.009452
4.380	-0.009555
4.385	-0.009582
4.390	-0.009617
4.395	-0.009686
4.400	-0.009753
4.405	-0.009772
4.410	-0.009819
4.415	-0.009837
4.420	-0.009879
4.425	-0.009864
4.430	-0.009840
4.435	-0.009867
4.440	-0.009860
4.445	-0.009827
4.450	-0.009929
4.455	-0.009916
4.460	-0.009990
4.465	-0.010114
4.470	-0.010120
4.475	-0.010170
4.480	-0.010234
4.485	-0.010316
4.490	-0.010405
4.495	-0.010436
4.500	-0.010497
4.505	-0.010531
4.510	-0.010592
4.515	-0.010572
4.520	-0.010606
4.525	-0.010639
4.530	-0.010665
4.535	-0.010742
4.540	-0.010867
4.545	-0.010927
4.550	-0.011031
4.555	-0.011101
4.560	-0.011202
4.565	-0.011236
4.570	-0.011303
4.575	-0.011323
4.580	-0.011276
4.585	-0.011241
4.590	-0.011159
4.595	-0.011188
4.600	-0.011174
4.605	-0.011230
4.610	-0.011203
4.615	-0.011247
4.620	-0.011240
4.625	-0.011308
4.630	-0.011401
4.635	-0.011523
4.640	-0.011555
4.645	-0.011645
4.650	-0.011757
4.655	-0.011881
4.660	-0.011937
4.665	-0.012021
4.670	-0.012097
4.675	-0.012207
4.680	-0.012342
4.685	-0.012408
4.690	-0.012477
4.695	-0.012557
4.700	-0.012663
4.705	-0.012710
4.710	-0.012726
4.715	-0.012741
4.720	-0.012758
4.725	-0.012781
4.730	-0.012781
4.735	-0.012846
4.740	-0.012833
4.745	-0.012862
4.750	-0.012990
4.755	-0.013038
4.760	-0.013073
4.765	-0.013140
4.770	-0.013158
4.775	-0.013197
4.780	-0.013275
4.785	-0.013367
4.790	-0.013526
4.795	-0.013661
4.800	-0.013788
4.805	-0.013968
4.810	-0.014083
4.815	-0.014112
4.820	-0.014186
4.825	-0.014259
4.830	-0.014331
4.835	-0.014392
4.840	-0.014457
4.845	-0.014480
4.850	-0.014647
4.855	-0.014740
4.860	-0.014898
4.865	-0.014971
4.870	-0.015053
4.875	-0.015107
4.880	-0.015132
4.885	-0.015119
4.890	-0.015159
4.895	-0.015250
4.900	-0.015310
4.905	-0.015393
4.910	-0.015416
4.915	-0.015520
4.920	-0.015579
4.925	-0.015680
4.930	-0.015747
4.935	-0.015894
4.940	-0.015960
4.945	-0.016090
4.950	-0.016261
4.955	-0.016340
4.960	-0.016496
4.965	-0.016683
4.970	-0.016800
4.975	-0.016963
4.980	-0.017106
4.985	-0.017187
4.990	-0.017260
4.995	-0.017390
5.000	-0.017552
5.005	-0.017775
5.010	-0.018001
5.015	-0.018136
5.020	-0.018309
5.025	-0.018463
5.030	-0.018680
5.035	-0.018849
5.040	-0.019004
5.045	-0.019115
5.050	-0.019265
5.055	-0.019340
5.060	-0.019487
5.065	-0.019681
5.070	-0.019931
5.075	-0.020189
5.080	-0.020434
5.085	-0.020625
5.090	-0.020838
5.095	-0.021043
5.100	-0.021255
5.105	-0.021337
5.110	-0.021489
5.115	-0.021627
5.120	-0.021785
5.125	-0.021948
5.130	-0.022143
5.135	-0.022484
5.140	-0.022825
5.145	-0.023074
5.150	-0.023363
5.155	-0.023622
5.160	-0.023901
5.165	-0.024244
5.170	-0.024622
5.175	-0.025003
5.180	-0.025391
5.185	-0.025787
5.190	-0.026160
5.195	-0.026563
5.200	-0.026997
5.205	-0.027477
5.210	-0.027952
5.215	-0.028393
5.220	-0.028884
5.225	-0.029426
5.230	-0.030027
5.235	-0.030610
5.240	-0.031197
5.245	-0.031818
5.250	-0.032363
5.255	-0.032965
5.260	-0.033639
5.265	-0.034372
5.270	-0.035208
5.275	-0.036151
5.280	-0.037058
5.285	-0.038086
5.290	-0.039164
5.295	-0.040489
5.300	-0.041960
5.305	-0.043564
5.310	-0.045513
5.315	-0.047579
5.320	-0.049999
5.325	-0.052531
5.330	-0.055262
5.335	-0.057983
5.340	-0.060379
5.345	-0.062548
5.350	-0.063918
5.355	-0.064953
5.360	-0.065621
5.365	-0.065117
5.370	-0.064077
5.375	-0.062444
5.380	-0.059108
5.385	-0.054433
5.390	-0.049610
5.395	-0.044423
5.400	-0.037384
5.405	-0.028228
5.410	-0.018786
5.415	-0.010899
5.420	-0.005472
5.425	-0.002083
5.430	-0.000175
5.435	0.000709
5.440	0.001086
5.445	0.001250
5.450	0.001340
5.455	0.001346
5.460	0.001374
5.465	0.001442
5.470	0.001415
5.475	0.001387
5.480	0.001360
5.485	0.001375
5.490	0.001340
5.495	0.001339
5.500	0.001305
5.505	0.001319
5.510	0.001346
5.515	0.001346
5.520	0.001339
5.525	0.001346
5.530	0.001346
5.535	0.001353
5.540	0.001353
5.545	0.001354
5.550	0.001347
5.555	0.001348
5.560	0.001319
5.565	0.001360
5.570	0.001333
5.575	0.001326
5.580	0.001278
5.585	0.001353
5.590	0.001326
5.595	0.001319
5.600	0.001333
5.605	0.001325
5.610	0.001312
5.615	0.001313
5.620	0.001320
5.625	0.001340
5.630	0.001367
5.635	0.001360
5.640	0.001415
5.645	0.001463
5.650	0.001572
5.655	0.001635
5.660	0.001731
5.665	0.001820
5.670	0.001944
5.675	0.002046
5.680	0.002219
5.685	0.002302
5.690	0.002472
5.695	0.002567
5.700	0.002677
5.705	0.002766
5.710	0.002828
5.715	0.002903
5.720	0.002862
5.725	0.002863
5.730	0.002835
5.735	0.002753
5.740	0.002629
5.745	0.002512
5.750	0.002445
5.755	0.002315
5.760	0.002210
5.765	0.002087
5.770	0.001984
5.775	0.001894
5.780	0.001792
5.785	0.001764
5.790	0.001689
5.795	0.001668
5.800	0.001627
5.805	0.001593
5.810	0.001573
5.815	0.001553
5.820	0.001533
5.825	0.001532
5.830	0.001497
5.835	0.001524
5.840	0.001545
5.845	0.001559
5.850	0.001525
5.855	0.001546
5.860	0.001546
5.865	0.001560
5.870	0.001538
5.875	0.001552
5.880	0.001511
5.885	0.001533
5.890	0.001539
5.895	0.001545
5.900	0.001566
5.905	0.001587
5.910	0.001573
5.915	0.001594
5.920	0.001615
5.925	0.001642
5.930	0.001621
5.935	0.001648
5.940	0.001628
5.945	0.001650
5.950	0.001677
5.955	0.001657
5.960	0.001655
5.965	0.001676
5.970	0.001662
5.975	0.001683
5.980	0.001731
5.985	0.001704
5.990	0.001704
5.995	0.001745
6.000	0.001737
6.005	0.001737
6.010	0.001696
6.015	0.001738
6.020	0.001745
6.025	0.001751
6.030	0.001778
6.035	0.001758
6.040	0.001771
6.045	0.001792
6.050	0.001792
6.055	0.001799
6.060	0.001779
6.065	0.001813
6.070	0.001813
6.075	0.001819
6.080	0.001800
6.085	0.001801
6.090	0.001835
6.095	0.001799
6.100	0.001793
6.105	0.001827
6.110	0.001813
6.115	0.001834
6.120	0.001820
6.125	0.001841
6.130	0.001827
6.135	0.001855
6.140	0.001834
6.145	0.001856
6.150	0.001849
6.155	0.001842
6.160	0.001854
6.165	0.001848
6.170	0.001840
6.175	0.001854
6.180	0.001854
6.185	0.001862
6.190	0.001875
6.195	0.001889
6.200	0.001896
6.205	0.001903
6.210	0.001897
6.215	0.001878
6.220	0.001857
6.225	0.001870
6.230	0.001890
6.235	0.001856
6.240	0.001924
6.245	0.001931
6.250	0.001911
6.255	0.001883
6.260	0.001918
6.265	0.001925
6.270	0.001918
6.275	0.001939
6.280	0.001946
6.285	0.001920
6.290	0.001913
6.295	0.001919
6.300	0.001933
6.305	0.001933
6.310	0.001960
6.315	0.001960
6.320	0.001960
6.325	0.001988
6.330	0.001967
6.335	0.001974
6.340	0.001994
6.345	0.001989
6.350	0.001983
6.355	0.001996
6.360	0.001974
6.365	0.001987
6.370	0.001953
6.375	0.002008
6.380	0.002007
6.385	0.001981
6.390	0.001987
6.395	0.002015
6.400	0.002014
6.405	0.002027
6.410	0.002027
6.415	0.001987
6.420	0.002029
6.425	0.002062
6.430	0.002027
6.435	0.002040
6.440	0.002040
6.445	0.002060
6.450	0.002054
6.455	0.002033
6.460	0.002040
6.465	0.002061
6.470	0.002040
6.475	0.002040
6.480	0.002075
6.485	0.002076
6.490	0.002068
6.495	0.002074
6.500	0.002067
6.505	0.002081
6.510	0.002102
6.515	0.002074
6.520	0.002115
6.525	0.002129
6.530	0.002108
6.535	0.002094
6.540	0.002121
6.545	0.002128
6.550	0.002108
6.555	0.002129
6.560	0.002086
6.565	0.002099
6.570	0.002085
6.575	0.002113
6.580	0.002086
6.585	0.002093
6.590	0.002113
6.595	0.002107
6.600	0.002113
6.605	0.002113
6.610	0.002113
6.615	0.002080
6.620	0.002101
6.625	0.002092
6.630	0.002119
6.635	0.002106
6.640	0.002126
6.645	0.002112
6.650	0.002119
6.655	0.002126
6.660	0.002112
6.665	0.002146
6.670	0.002152
6.675	0.002159
6.680	0.002173
6.685	0.002175
6.690	0.002160
6.695	0.002200
6.700	0.002193
6.705	0.002213
6.710	0.002214
6.715	0.002228
6.720	0.002248
6.725	0.002234
6.730	0.002241
6.735	0.002241
6.740	0.002283
6.745	0.002269
6.750	0.002290
6.755	0.002283
6.760	0.002315
6.765	0.002314
6.770	0.002308
6.775	0.002295
6.780	0.002334
6.785	0.002334
6.790	0.002355
6.795	0.002328
6.800	0.002314
6.805	0.002327
6.810	0.002320
6.815	0.002336
6.820	0.002281
6.825	0.002266
6.830	0.002293
6.835	0.002320
6.840	0.002286
6.845	0.002286
6.850	0.002299
6.855	0.002286
6.860	0.002279
6.865	0.002293
6.870	0.002272
6.875	0.002272
6.880	0.002273
6.885	0.002246
6.890	0.002258
6.895	0.002250
6.900	0.002237
6.905	0.002257
6.910	0.002291
6.915	0.002291
6.920	0.002277
6.925	0.002298
6.930	0.002298
6.935	0.002311
6.940	0.002270
6.945	0.002325
6.950	0.002278
6.955	0.002311
6.960	0.002317
6.965	0.002304
6.970	0.002318
6.975	0.002337
6.980	0.002317
6.985	0.002325
6.990	0.002345
6.995	0.002358
7.000	0.002311
7.005	0.002359
7.010	0.002332
7.015	0.002326
7.020	0.002367
7.025	0.002386
7.030	0.002372
7.035	0.002352
7.040	0.002379
7.045	0.002413
7.050	0.002386
7.055	0.002407
7.060	0.002413
7.065	0.002441
7.070	0.002392
7.075	0.002420
7.080	0.002441
7.085	0.002449
7.090	0.002427
7.095	0.002434
7.100	0.002407
7.105	0.002434
7.110	0.002468
7.115	0.002454
7.120	0.002447
7.125	0.002482
7.130	0.002462
7.135	0.002462
7.140	0.002475
7.145	0.002477
7.150	0.002478
7.155	0.002443
7.160	0.002476
7.165	0.002476
7.170	0.002483
7.175	0.002484
7.180	0.002491
7.185	0.002497
7.190	0.002511
7.195	0.002505
7.200	0.002497
7.205	0.002524
7.210	0.002525
7.215	0.002519
7.220	0.002519
7.225	0.002504
7.230	0.002559
7.235	0.002532
7.240	0.002525
7.245	0.002539
7.250	0.002580
7.255	0.002587
7.260	0.002587
7.265	0.002628
7.270	0.002594
7.275	0.002601
7.280	0.002555
7.285	0.002596
7.290	0.002595
7.295	0.002595
7.300	0.002609
7.305	0.002650
7.310	0.002637
7.315	0.002637
7.320	0.002672
7.325	0.002658
7.330	0.002672
7.335	0.002685
7.340	0.002692
7.345	0.002694
7.350	0.002722
7.355	0.002701
7.360	0.002699
7.365	0.002728
7.370	0.002713
7.375	0.002714
7.380	0.002734
7.385	0.002742
7.390	0.002756
7.395	0.002764
7.400	0.002771
7.405	0.002778
7.410	0.002765
7.415	0.002787
7.420	0.002780
7.425	0.002765
7.430	0.002813
7.435	0.002752
7.440	0.002759
7.445	0.002766
7.450	0.002787
7.455	0.002787
7.460	0.002788
7.465	0.002808
7.470	0.002781
7.475	0.002808
7.480	0.002816
7.485	0.002810
7.490	0.002809
7.495	0.002815
7.500	0.002849
7.505	0.002828
7.510	0.002883
7.515	0.002890
7.520	0.002918
7.525	0.002911
7.530	0.002904
7.535	0.002925
7.540	0.002945
7.545	0.002953
7.550	0.002974
7.555	0.002952
7.560	0.002963
7.565	0.002978
7.570	0.002978
7.575	0.003026
7.580	0.003019
7.585	0.002999
7.590	0.003019
7.595	0.003039
7.600	0.003010
7.605	0.003058
7.610	0.003065
7.615	0.003080
7.620	0.003046
7.625	0.003078
7.630	0.003057
7.635	0.003057
7.640	0.003098
7.645	0.003098
7.650	0.003104
7.655	0.003098
7.660	0.003125
7.665	0.003125
7.670	0.003138
7.675	0.003139
7.680	0.003140
7.685	0.003168
7.690	0.003166
7.695	0.003187
7.700	0.003180
7.705	0.003193
7.710	0.003207
7.715	0.003227
7.720	0.003235
7.725	0.003207
7.730	0.003227
7.735	0.003192
7.740	0.003212
7.745	0.003207
7.750	0.003221
7.755	0.003215
7.760	0.003234
7.765	0.003261
7.770	0.003254
7.775	0.003274
7.780	0.003289
7.785	0.003282
7.790	0.003282
7.795	0.003303
7.800	0.003331
7.805	0.003311
7.810	0.003285
7.815	0.003341
7.820	0.003314
7.825	0.003327
7.830	0.003382
7.835	0.003362
7.840	0.003376
7.845	0.003398
7.850	0.003418
7.855	0.003404
7.860	0.003402
7.865	0.003455
7.870	0.003447
7.875	0.003452
7.880	0.003440
7.885	0.003433
7.890	0.003444
7.895	0.003485
7.900	0.003450
7.905	0.003498
7.910	0.003505
7.915	0.003498
7.920	0.003504
7.925	0.003491
7.930	0.003559
7.935	0.003545
7.940	0.003532
7.945	0.003575
7.950	0.003575
7.955	0.003581
7.960	0.003587
7.965	0.003587
7.970	0.003614
7.975	0.003600
7.980	0.003649
7.985	0.003696
7.990	0.003675
7.995	0.003669
8.000	0.003682
8.005	0.003695
8.010	0.003682
8.015	0.003697
8.020	0.003718
8.025	0.003736
8.030	0.003730
8.035	0.003749
8.040	0.003763
8.045	0.003784
8.050	0.003804
8.055	0.003805
8.060	0.003817
8.065	0.003845
8.070	0.003858
8.075	0.003886
8.080	0.003860
8.085	0.003882
8.090	0.003873
8.095	0.003921
8.100	0.003921
8.105	0.003881
8.110	0.003916
8.115	0.003949
8.120	0.003949
8.125	0.003997
8.130	0.003976
8.135	0.004023
8.140	0.004002
8.145	0.004038
8.150	0.004087
8.155	0.004031
8.160	0.004078
8.165	0.004071
8.170	0.004064
8.175	0.004105
8.180	0.004125
8.185	0.004167
8.190	0.004174
8.195	0.004180
8.200	0.004194
8.205	0.004193
8.210	0.004229
8.215	0.004231
8.220	0.004264
8.225	0.004283
8.230	0.004283
8.235	0.004291
8.240	0.004325
8.245	0.004291
8.250	0.004305
8.255	0.004360
8.260	0.004395
8.265	0.004381
8.270	0.004394
8.275	0.004445
8.280	0.004420
8.285	0.004414
8.290	0.004453
8.295	0.004467
8.300	0.004466
8.305	0.004494
8.310	0.004479
8.315	0.004512
8.320	0.004546
8.325	0.004540
8.330	0.004596
8.335	0.004584
8.340	0.004594
8.345	0.004588
8.350	0.004601
8.355	0.004597
8.360	0.004592
8.365	0.004635
8.370	0.004660
8.375	0.004696
8.380	0.004703
8.385	0.004726
8.390	0.004737
8.395	0.004742
8.400	0.004782
8.405	0.004803
8.410	0.004789
8.415	0.004859
8.420	0.004845
8.425	0.004862
8.430	0.004842
8.435	0.004924
8.440	0.004959
8.445	0.004953
8.450	0.004967
8.455	0.004981
8.460	0.005015
8.465	0.005070
8.470	0.005048
8.475	0.005063
8.480	0.005126
8.485	0.005134
8.490	0.005145
8.495	0.005179
8.500	0.005193
8.505	0.005228
8.510	0.005242
8.515	0.005208
8.520	0.005270
8.525	0.005294
8.530	0.005318
8.535	0.005338
8.540	0.005360
8.545	0.005347
8.550	0.005379
8.555	0.005400
8.560	0.005447
8.565	0.005461
8.570	0.005477
8.575	0.005541
8.580	0.005577
8.585	0.005584
8.590	0.005608
8.595	0.005688
8.600	0.005702
8.605	0.005701
8.610	0.005751
8.615	0.005725
8.620	0.005821
8.625	0.005832
8.630	0.005840
8.635	0.005890
8.640	0.005924
8.645	0.005960
8.650	0.005953
8.655	0.006008
8.660	0.006002
8.665	0.006058
8.670	0.006071
8.675	0.006121
8.680	0.006144
8.685	0.006180
8.690	0.006205
8.695	0.006192
8.700	0.006240
8.705	0.006262
8.710	0.006311
8.715	0.006354
8.720	0.006389
8.725	0.006403
8.730	0.006445
8.735	0.006495
8.740	0.006516
8.745	0.006567
8.750	0.006582
8.755	0.006636
8.760	0.006627
8.765	0.006669
8.770	0.006730
8.775	0.006759
8.780	0.006772
8.785	0.006870
8.790	0.006883
8.795	0.006917
8.800	0.006956
8.805	0.006976
8.810	0.007045
8.815	0.007073
8.820	0.007066
8.825	0.007090
8.830	0.007144
8.835	0.007173
8.840	0.007221
8.845	0.007249
8.850	0.007285
8.855	0.007344
8.860	0.007390
8.865	0.007447
8.870	0.007500
8.875	0.007528
8.880	0.007572
8.885	0.007587
8.890	0.007668
8.895	0.007684
8.900	0.007734
8.905	0.007790
8.910	0.007860
8.915	0.007903
8.920	0.007960
8.925	0.008003
8.930	0.008012
8.935	0.008119
8.940	0.008115
8.945	0.008171
8.950	0.008238
8.955	0.008285
8.960	0.008330
8.965	0.008386
8.970	0.008456
8.975	0.008498
8.980	0.008589
8.985	0.008619
8.990	0.008710
8.995	0.008738
9.000	0.008809
9.005	0.008849
9.010	0.008945
9.015	0.009035
9.020	0.009098
9.025	0.009162
9.030	0.009231
9.035	0.009281
9.040	0.009390
9.045	0.009459
9.050	0.009575
9.055	0.009620
9.060	0.009730
9.065	0.009812
9.070	0.009895
9.075	0.009970
9.080	0.010040
9.085	0.010122
9.090	0.010177
9.095	0.010267
9.100	0.010285
9.105	0.010436
9.110	0.010518
9.115	0.010592
9.120	0.010635
9.125	0.010753
9.130	0.010852
9.135	0.010935
9.140	0.011017
9.145	0.011140
9.150	0.011254
9.155	0.011368
9.160	0.011493
9.165	0.011582
9.170	0.011725
9.175	0.011867
9.180	0.012045
9.185	0.012206
9.190	0.012450
9.195	0.012608
9.200	0.012830
9.205	0.013033
9.210	0.013251
9.215	0.013510
9.220	0.013781
9.225	0.014047
9.230	0.014284
9.235	0.014540
9.240	0.014808
9.245	0.015058
9.250	0.015290
9.255	0.015576
9.260	0.015829
9.265	0.016029
9.270	0.016419
9.275	0.016807
9.280	0.017166
9.285	0.017431
9.290	0.017656
9.295	0.017918
9.300	0.018090
9.305	0.018287
9.310	0.018582
9.315	0.018965
9.320	0.019309
9.325	0.019543
9.330	0.019661
9.335	0.019689
9.340	0.019686
9.345	0.019824
9.350	0.020003
9.355	0.020403
9.360	0.020895
9.365	0.021483
9.370	0.022122
9.375	0.022818
9.380	0.023590
9.385	0.024296
9.390	0.025003
9.395	0.025914
9.400	0.026739
9.405	0.027711
9.410	0.028796
9.415	0.030015
9.420	0.031314
9.425	0.032811
9.430	0.034566
9.435	0.036433
9.440	0.038322
9.445	0.040489
9.450	0.042935
9.455	0.045186
9.460	0.046943
9.465	0.048328
9.470	0.049274
9.475	0.049763
9.480	0.049775
9.485	0.048964
9.490	0.047240
9.495	0.044881
9.500	0.041746
9.505	0.037855
9.510	0.032839
9.515	0.026671
9.520	0.019660
9.525	0.013100
9.530	0.007543
9.535	0.003623
9.540	0.001099
9.545	-0.000289
9.550	-0.001068
9.555	-0.001440
9.560	-0.001639
9.565	-0.001715
9.570	-0.001804
9.575	-0.001831
9.580	-0.001838
9.585	-0.001852
9.590	-0.001873
9.595	-0.001873
9.600	-0.001900
9.605	-0.001880
9.610	-0.001900
9.615	-0.001928
9.620	-0.001914
9.625	-0.001921
9.630	-0.001942
9.635	-0.001921
9.640	-0.001873
9.645	-0.001887
9.650	-0.001928
9.655	-0.001907
9.660	-0.001928
9.665	-0.001942
9.670	-0.001928
9.675	-0.001921
9.680	-0.001928
9.685	-0.001956
9.690	-0.001935
9.695	-0.001928
9.700	-0.001956
9.705	-0.001956
9.710	-0.001935
9.715	-0.001963
9.720	-0.001949
9.725	-0.001956
9.730	-0.001963
9.735	-0.001949
9.740	-0.001949
9.745	-0.001935
9.750	-0.001983
9.755	-0.001984
9.760	-0.001964
9.765	-0.001964
9.770	-0.001991
9.775	-0.002005
9.780	-0.001984
9.785	-0.001984
9.790	-0.001984
9.795	-0.001957
9.800	-0.001964
9.805	-0.001957
9.810	-0.001950
9.815	-0.001971
9.820	-0.001998
9.825	-0.001991
9.830	-0.001991
9.835	-0.001964
9.840	-0.002005
9.845	-0.001950
9.850	-0.001992
9.855	-0.001957
9.860	-0.001999
9.865	-0.001985
9.870	-0.002019
9.875	-0.001992
9.880	-0.002006
9.885	-0.002019
9.890	-0.002019
9.895	-0.002040
9.900	-0.002026
9.905	-0.002013
9.910	-0.002013
9.915	-0.001992
9.920	-0.002013
9.925	-0.002006
9.930	-0.002033
9.935	-0.002020
9.940	-0.002047
9.945	-0.002033
9.950	-0.002006
9.955	-0.002020
9.960	-0.002013
9.965	-0.002020
9.970	-0.002027
9.975	-0.002013
9.980	-0.002034
9.985	-0.002006
9.990	-0.002020
9.995	-0.002034
10.000	-0.002041
10.005	-0.002013
10.010	-0.001999
10.015	-0.002020
10.020	-0.002000
10.025	-0.002027
10.030	-0.001993
10.035	-0.002055
10.040	-0.002020
10.045	-0.002013
10.050	-0.002020
10.055	-0.002034
10.060	-0.002062
10.065	-0.002027
10.070	-0.002034
10.075	-0.002034
10.080	-0.002048
10.085	-0.002048
10.090	-0.002062
10.095	-0.002076
10.100	-0.002062
10.105	-0.002041
10.110	-0.002034
10.115	-0.002062
10.120	-0.002028
10.125	-0.002041
10.130	-0.002048
10.135	-0.002041
10.140	-0.002055
10.145	-0.002048
10.150	-0.002076
10.155	-0.002062
10.160	-0.002083
10.165	-0.002083
10.170	-0.002042
10.175	-0.002055
10.180	-0.002062
10.185	-0.002090
10.190	-0.002042
10.195	-0.002076
10.200	-0.002069
10.205	-0.002069
10.210	-0.002062
10.215	-0.002063
10.220	-0.002069
10.225	-0.002056
10.230	-0.002097
10.235	-0.002111
10.240	-0.002069
10.245	-0.002104
10.250	-0.002111
10.255	-0.002090
10.260	-0.002104
10.265	-0.002076
10.270	-0.002069
10.275	-0.002111
10.280	-0.002104
10.285	-0.002083
10.290	-0.002159
10.295	-0.002131
10.300	-0.002124
10.305	-0.002118
10.310	-0.002097
10.315	-0.002131
10.320	-0.002125
10.325	-0.002125
10.330	-0.002118
10.335	-0.002111
10.340	-0.002131
10.345	-0.002132
10.350	-0.002118
10.355	-0.002138
10.360	-0.002125
10.365	-0.002145
10.370	-0.002145
10.375	-0.002111
10.380	-0.002138
10.385	-0.002180
10.390	-0.002125
10.395	-0.002125
10.400	-0.002173
10.405	-0.002173
10.410	-0.002166
10.415	-0.002180
10.420	-0.002187
10.425	-0.002166
10.430	-0.002173
10.435	-0.002180
10.440	-0.002166
10.445	-0.002187
10.450	-0.002187
10.455	-0.002152
10.460	-0.002152
10.465	-0.002173
10.470	-0.002187
10.475	-0.002180
10.480	-0.002207
10.485	-0.002201
10.490	-0.002207
10.495	-0.002200
10.500	-0.002187
10.505	-0.002194
10.510	-0.002200
10.515	-0.002187
10.520	-0.002194
10.525	-0.002194
10.530	-0.002221
10.535	-0.002214
10.540	-0.002201
10.545	-0.002221
10.550	-0.002194
10.555	-0.002208
10.560	-0.002214
10.565	-0.002201
10.570	-0.002207
10.575	-0.002214
10.580	-0.002242
10.585	-0.002228
10.590	-0.002214
10.595	-0.002242
10.600	-0.002235
10.605	-0.002228
10.610	-0.002222
10.615	-0.002229
10.620	-0.002228
10.625	-0.002222
10.630	-0.002222
10.635	-0.002235
10.640	-0.002235
10.645	-0.002228
10.650	-0.002242
10.655	-0.002235
10.660	-0.002256
10.665	-0.002222
10.670	-0.002242
10.675	-0.002242
10.680	-0.002249
10.685	-0.002270
10.690	-0.002242
10.695	-0.002284
10.700	-0.002277
10.705	-0.002249
10.710	-0.002256
10.715	-0.002256
10.720	-0.002263
10.725	-0.002243
10.730	-0.002270
10.735	-0.002270
10.740	-0.002325
10.745	-0.002291
10.750	-0.002305
10.755	-0.002298
10.760	-0.002304
10.765	-0.002277
10.770	-0.002311
10.775	-0.002291
10.780	-0.002318
10.785	-0.002291
10.790	-0.002284
10.795	-0.002263
10.800	-0.002305
10.805	-0.002284
10.810	-0.002270
10.815	-0.002312
10.820	-0.002291
10.825	-0.002298
10.830	-0.002312
10.835	-0.002325
10.840	-0.002332
10.845	-0.002325
10.850	-0.002325
10.855	-0.002284
10.860	-0.002305
10.865	-0.002319
10.870	-0.002305
10.875	-0.002332
10.880	-0.002319
10.885	-0.002333
10.890	-0.002319
10.895	-0.002333
10.900	-0.002353
10.905	-0.002319
10.910	-0.002360
10.915	-0.002340
10.920	-0.002333
10.925	-0.002319
10.930	-0.002347
10.935	-0.002360
10.940	-0.002360
10.945	-0.002354
10.950	-0.002374
10.955	-0.002340
10.960	-0.002347
10.965	-0.002361
10.970	-0.002361
10.975	-0.002340
10.980	-0.002374
10.985	-0.002361
10.990	-0.002340
10.995	-0.002354
11.000	-0.002347
11.005	-0.002354
11.010	-0.002375
11.015	-0.002361
11.020	-0.002382
11.025	-0.002368
11.030	-0.002375
11.035	-0.002402
11.040	-0.002382
11.045	-0.002402
11.050	-0.002375
11.055	-0.002368
11.060	-0.002368
11.065	-0.002368
11.070	-0.002354
11.075	-0.002368
11.080	-0.002375
11.085	-0.002403
11.090	-0.002410
11.095	-0.002396
11.100	-0.002403
11.105	-0.002403
11.110	-0.002396
11.115	-0.002410
11.120	-0.002403
11.125	-0.002396
11.130	-0.002403
11.135	-0.002403
11.140	-0.002403
11.145	-0.002424
11.150	-0.002438
11.155	-0.002417
11.160	-0.002445
11.165	-0.002417
11.170	-0.002424
11.175	-0.002431
11.180	-0.002431
11.185	-0.002424
11.190	-0.002438
11.195	-0.002390
11.200	-0.002424
11.205	-0.002424
11.210	-0.002424
11.215	-0.002445
11.220	-0.002438
11.225	-0.002438
11.230	-0.002452
11.235	-0.002438
11.240	-0.002383
11.245	-0.002417
11.250	-0.002424
11.255	-0.002424
11.260	-0.002452
11.265	-0.002411
11.270	-0.002404
11.275	-0.002445
11.280	-0.002473
11.285	-0.002445
11.290	-0.002452
11.295	-0.002452
11.300	-0.002466
11.305	-0.002452
11.310	-0.002438
11.315	-0.002445
11.320	-0.002452
11.325	-0.002432
11.330	-0.002459
11.335	-0.002404
11.340	-0.002438
11.345	-0.002487
11.350	-0.002480
11.355	-0.002452
11.360	-0.002459
11.365	-0.002445
11.370	-0.002521
11.375	-0.002480
11.380	-0.002445
11.385	-0.002445
11.390	-0.002459
11.395	-0.002473
11.400	-0.002480
11.405	-0.002473
11.410	-0.002473
11.415	-0.002473
11.420	-0.002480
11.425	-0.002487
11.430	-0.002501
11.435	-0.002473
11.440	-0.002487
11.445	-0.002466
11.450	-0.002494
11.455	-0.002501
11.460	-0.002480
11.465	-0.002459
11.470	-0.002480
11.475	-0.002507
11.480	-0.002480
11.485	-0.002494
11.490	-0.002508
11.495	-0.002494
11.500	-0.002494
11.505	-0.002480
11.510	-0.002515
11.515	-0.002494
11.520	-0.002501
11.525	-0.002522
11.530	-0.002487
11.535	-0.002522
11.540	-0.002515
11.545	-0.002508
11.550	-0.002543
11.555	-0.002549
11.560	-0.002522
11.565	-0.002528
11.570	-0.002535
11.575	-0.002508
11.580	-0.002536
11.585	-0.002536
11.590	-0.002549
11.595	-0.002515
11.600	-0.002529
11.605	-0.002549
11.610	-0.002522
11.615	-0.002543
11.620	-0.002522
11.625	-0.002529
11.630	-0.002536
11.635	-0.002536
11.640	-0.002522
11.645	-0.002536
11.650	-0.002549
11.655	-0.002556
11.660	-0.002536
11.665	-0.002536
11.670	-0.002570
11.675	-0.002529
11.680	-0.002571
11.685	-0.002564
11.690	-0.002557
11.695	-0.002536
11.700	-0.002564
11.705	-0.002571
11.710	-0.002564
11.715	-0.002571
11.720	-0.002550
11.725	-0.002570
11.730	-0.002550
11.735	-0.002563
11.740	-0.002550
11.745	-0.002557
11.750	-0.002564
11.755	-0.002578
11.760	-0.002578
11.765	-0.002612
11.770	-0.002585
11.775	-0.002592
11.780	-0.002571
11.785	-0.002571
11.790	-0.002550
11.795	-0.002564
11.800	-0.002598
11.805	-0.002598
11.810	-0.002592
11.815	-0.002585
11.820	-0.002578
11.825	-0.002585
11.830	-0.002592
11.835	-0.002606
11.840	-0.002592
11.845	-0.002620
11.850	-0.002626
11.855	-0.002585
11.860	-0.002564
11.865	-0.002592
11.870	-0.002606
11.875	-0.002626
11.880	-0.002627
11.885	-0.002640
11.890	-0.002626
11.895	-0.002633
11.900	-0.002633
11.905	-0.002606
11.910	-0.002627
11.915	-0.002620
11.920	-0.002606
11.925	-0.002565
11.930	-0.002592
11.935	-0.002620
11.940	-0.002592
11.945	-0.002613
11.950	-0.002627
11.955	-0.002648
11.960	-0.002668
11.965	-0.002634
11.970	-0.002641
11.975	-0.002655
11.980	-0.002634
11.985	-0.002620
11.990	-0.002648
11.995	-0.002641
12.000	-0.002648
12.005	-0.002661
12.010	-0.002662
12.015	-0.002669
12.020	-0.002655
12.025	-0.002662
12.030	-0.002662
12.035	-0.002668
12.040	-0.002669
12.045	-0.002662
12.050	-0.002648
12.055	-0.002662
12.060	-0.002662
12.065	-0.002669
12.070	-0.002634
12.075	-0.002689
12.080	-0.002697
12.085	-0.002676
12.090	-0.002675
12.095	-0.002662
12.100	-0.002689
12.105	-0.002689
12.110	-0.002648
12.115	-0.002682
12.120	-0.002683
12.125	-0.002703
12.130	-0.002683
12.135	-0.002703
12.140	-0.002717
12.145	-0.002703
12.150	-0.002683
12.155	-0.002662
12.160	-0.002696
12.165	-0.002689
12.170	-0.002724
12.175	-0.002683
12.180	-0.002710
12.185	-0.002703
12.190	-0.002689
12.195	-0.002690
12.200	-0.002703
12.205	-0.002724
12.210	-0.002738
12.215	-0.002738
12.220	-0.002703
12.225	-0.002710
12.230	-0.002696
12.235	-0.002724
12.240	-0.002697
12.245	-0.002724
12.250	-0.002738
12.255	-0.002703
12.260	-0.002738
12.265	-0.002724
12.270	-0.002731
12.275	-0.002772
12.280	-0.002717
12.285	-0.002738
12.290	-0.002751
12.295	-0.002738
12.300	-0.002724
12.305	-0.002758
12.310	-0.002744
12.315	-0.002737
12.320	-0.002772
12.325	-0.002738
12.330	-0.002744
12.335	-0.002765
12.340	-0.002772
12.345	-0.002758
12.350	-0.002738
12.355	-0.002765
12.360	-0.002758
12.365	-0.002792
12.370	-0.002744
12.375	-0.002785
12.380	-0.002792
12.385	-0.002779
12.390	-0.002751
12.395	-0.002765
12.400	-0.002806
12.405	-0.002785
12.410	-0.002786
12.415	-0.002786
12.420	-0.002813
12.425	-0.002772
12.430	-0.002806
12.435	-0.002778
12.440	-0.002785
12.445	-0.002813
12.450	-0.002792
12.455	-0.002785
12.460	-0.002799
12.465	-0.002813
12.470	-0.002792
12.475	-0.002785
12.480	-0.002799
12.485	-0.002827
12.490	-0.002861
12.495	-0.002792
12.500	-0.002820
12.505	-0.002820
12.510	-0.002820
12.515	-0.002826
12.520	-0.002813
12.525	-0.002833
12.530	-0.002833
12.535	-0.002826
12.540	-0.002840
12.545	-0.002833
12.550	-0.002813
12.555	-0.002806
12.560	-0.002854
12.565	-0.002826
12.570	-0.002847
12.575	-0.002819
12.580	-0.002840
12.585	-0.002860
12.590	-0.002867
12.595	-0.002854
12.600	-0.002860
12.605	-0.002867
12.610	-0.002847
12.615	-0.002847
12.620	-0.002875
12.625	-0.002861
12.630	-0.002874
12.635	-0.002895
12.640	-0.002881
12.645	-0.002881
12.650	-0.002881
12.655	-0.002874
12.660	-0.002915
12.665	-0.002874
12.670	-0.002915
12.675	-0.002888
12.680	-0.002909
12.685	-0.002888
12.690	-0.002888
12.695	-0.002888
12.700	-0.002895
12.705	-0.002936
12.710	-0.002922
12.715	-0.002895
12.720	-0.002902
12.725	-0.002881
12.730	-0.002888
12.735	-0.002901
12.740	-0.002915
12.745	-0.002909
12.750	-0.002936
12.755	-0.002922
12.760	-0.002936
12.765	-0.002915
12.770	-0.002929
12.775	-0.002950
12.780	-0.002943
12.785	-0.002950
12.790	-0.002943
12.795	-0.002970
12.800	-0.002915
12.805	-0.002956
12.810	-0.002950
12.815	-0.002964
12.820	-0.002957
12.825	-0.002970
12.830	-0.002949
12.835	-0.002956
12.840	-0.002984
12.845	-0.002929
12.850	-0.002970
12.855	-0.002977
12.860	-0.002956
12.865	-0.002963
12.870	-0.002970
12.875	-0.002991
12.880	-0.002971
12.885	-0.002998
12.890	-0.002991
12.895	-0.002977
12.900	-0.002984
12.905	-0.003025
12.910	-0.002977
12.915	-0.002957
12.920	-0.002991
12.925	-0.003005
12.930	-0.002991
12.935	-0.003011
12.940	-0.002997
12.945	-0.002998
12.950	-0.003025
12.955	-0.002998
12.960	-0.003011
12.965	-0.003018
12.970	-0.003032
12.975	-0.003039
12.980	-0.003011
12.985	-0.002991
12.990	-0.003018
12.995	-0.003032
13.000	-0.002991
13.005	-0.003011
13.010	-0.003026
13.015	-0.003012
13.020	-0.003018
13.025	-0.003039
13.030	-0.003059
13.035	-0.003004
13.040	-0.003011
13.045	-0.003025
13.050	-0.003046
13.055	-0.003018
13.060	-0.003053
13.065	-0.003032
13.070	-0.003053
13.075	-0.003046
13.080	-0.003067
13.085	-0.003060
13.090	-0.003067
13.095	-0.003053
13.100	-0.003032
13.105	-0.003101
13.110	-0.003053
13.115	-0.003060
13.120	-0.003067
13.125	-0.003025
13.130	-0.003080
13.135	-0.003060
13.140	-0.003060
13.145	-0.003081
13.150	-0.003095
13.155	-0.003080
13.160	-0.003087
13.165	-0.003108
13.170	-0.003080
13.175	-0.003067
13.180	-0.003088
13.185	-0.003101
13.190	-0.003074
13.195	-0.003094
13.200	-0.003094
13.205	-0.003074
13.210	-0.003088
13.215	-0.003123
13.220	-0.003116
13.225	-0.003115
13.230	-0.003136
13.235	-0.003081
13.240	-0.003109
13.245	-0.003123
13.250	-0.003102
13.255	-0.003095
13.260	-0.003102
13.265	-0.003123
13.270	-0.003102
13.275	-0.003123
13.280	-0.003165
13.285	-0.003130
13.290	-0.003123
13.295	-0.003157
13.300	-0.003171
13.305	-0.003151
13.310	-0.003109
13.315	-0.003165
13.320	-0.003158
13.325	-0.003165
13.330	-0.003130
13.335	-0.003123
13.340	-0.003158
13.345	-0.003158
13.350	-0.003152
13.355	-0.003165
13.360	-0.003165
13.365	-0.003172
13.370	-0.003131
13.375	-0.003158
13.380	-0.003165
13.385	-0.003172
13.390	-0.003179
13.395	-0.003179
13.400	-0.003158
13.405	-0.003179
13.410	-0.003180
13.415	-0.003173
13.420	-0.003193
13.425	-0.003207
13.430	-0.003221
13.435	-0.003186
13.440	-0.003180
13.445	-0.003187
13.450	-0.003180
13.455	-0.003180
13.460	-0.003207
13.465	-0.003200
13.470	-0.003207
13.475	-0.003201
13.480	-0.003208
13.485	-0.003221
13.490	-0.003248
13.495	-0.003221
13.500	-0.003241
13.505	-0.003207
13.510	-0.003242
13.515	-0.003201
13.520	-0.003201
13.525	-0.003208
13.530	-0.003255
13.535	-0.003228
13.540	-0.003256
13.545	-0.003222
13.550	-0.003215
13.555	-0.003256
13.560	-0.003214
13.565	-0.003235
13.570	-0.003276
13.575	-0.003249
13.580	-0.003263
13.585	-0.003277
13.590	-0.003249
13.595	-0.003249
13.600	-0.003249
13.605	-0.003290
13.610	-0.003270
13.615	-0.003243
13.620	-0.003263
13.625	-0.003297
13.630	-0.003276
13.635	-0.003304
13.640	-0.003318
13.645	-0.003283
13.650	-0.003263
13.655	-0.003283
13.660	-0.003304
13.665	-0.003283
13.670	-0.003304
13.675	-0.003304
13.680	-0.003291
13.685	-0.003298
13.690	-0.003324
13.695	-0.003359
13.700	-0.003318
13.705	-0.003331
13.710	-0.003290
13.715	-0.003290
13.720	-0.003324
13.725	-0.003317
13.730	-0.003304
13.735	-0.003345
13.740	-0.003311
13.745	-0.003325
13.750	-0.003352
13.755	-0.003338
13.760	-0.003345
13.765	-0.003345
13.770	-0.003352
13.775	-0.003372
13.780	-0.003324
13.785	-0.003345
13.790	-0.003338
13.795	-0.003344
13.800	-0.003379
13.805	-0.003372
13.810	-0.003359
13.815	-0.003386
13.820	-0.003372
13.825	-0.003338
13.830	-0.003393
13.835	-0.003344
13.840	-0.003386
13.845	-0.003372
13.850	-0.003351
13.855	-0.003345
13.860	-0.003393
13.865	-0.003365
13.870	-0.003385
13.875	-0.003386
13.880	-0.003366
13.885	-0.003420
13.890	-0.003406
13.895	-0.003399
13.900	-0.003385
13.905	-0.003406
13.910	-0.003406
13.915	-0.003386
13.920	-0.003399
13.925	-0.003413
13.930	-0.003427
13.935	-0.003427
13.940	-0.003393
13.945	-0.003427
13.950	-0.003448
13.955	-0.003434
13.960	-0.003413
13.965	-0.003447
13.970	-0.003413
13.975	-0.003434
13.980	-0.003420
13.985	-0.003420
13.990	-0.003434
13.995	-0.003441
14.000	-0.003441
14.005	-0.003427
14.010	-0.003448
14.015	-0.003442
14.020	-0.003448
14.025	-0.003468
14.030	-0.003454
14.035	-0.003441
14.040	-0.003475
14.045	-0.003462
14.050	-0.003441
14.055	-0.003475
14.060	-0.003475
14.065	-0.003455
14.070	-0.003482
14.075	-0.003475
14.080	-0.003469
14.085	-0.003462
14.090	-0.003496
14.095	-0.003510
14.100	-0.003482
14.105	-0.003482
14.110	-0.003462
14.115	-0.003496
14.120	-0.003503
14.125	-0.003455
14.130	-0.003496
14.135	-0.003503
14.140	-0.003496
14.145	-0.003496
14.150	-0.003510
14.155	-0.003503
14.160	-0.003510
14.165	-0.003510
14.170	-0.003524
14.175	-0.003516
14.180	-0.003517
14.185	-0.003531
14.190	-0.003530
14.195	-0.003523
14.200	-0.003516
14.205	-0.003537
14.210	-0.003510
14.215	-0.003524
14.220	-0.003538
14.225	-0.003558
14.230	-0.003537
14.235	-0.003531
14.240	-0.003531
14.245	-0.003517
14.250	-0.003531
14.255	-0.003558
14.260	-0.003544
14.265	-0.003572
14.270	-0.003558
14.275	-0.003517
14.280	-0.003559
14.285	-0.003573
14.290	-0.003558
14.295	-0.003579
14.300	-0.003565
14.305	-0.003572
14.310	-0.003572
14.315	-0.003586
14.320	-0.003565
14.325	-0.003565
14.330	-0.003565
14.335	-0.003627
14.340	-0.003586
14.345	-0.003587
14.350	-0.003573
14.355	-0.003607
14.360	-0.003614
14.365	-0.003593
14.370	-0.003587
14.375	-0.003600
14.380	-0.003607
14.385	-0.003628
14.390	-0.003634
14.395	-0.003614
14.400	-0.003600
14.405	-0.003641
14.410	-0.003635
14.415	-0.003662
14.420	-0.003648
14.425	-0.003655
14.430	-0.003655
14.435	-0.003655
14.440	-0.003627
14.445	-0.003648
14.450	-0.003662
14.455	-0.003635
14.460	-0.003648
14.465	-0.003683
14.470	-0.003662
14.475	-0.003683
14.480	-0.003642
14.485	-0.003670
14.490	-0.003717
14.495	-0.003717
14.500	-0.003669
14.505	-0.003683
14.510	-0.003669
14.515	-0.003711
14.520	-0.003697
14.525	-0.003711
14.530	-0.003697
14.535	-0.003683
14.540	-0.003710
14.545	-0.003718
14.550	-0.003725
14.555	-0.003704
14.560	-0.003717
14.565	-0.003732
14.570	-0.003697
14.575	-0.003697
14.580	-0.003704
14.585	-0.003697
14.590	-0.003704
14.595	-0.003718
14.600	-0.003711
14.605	-0.003746
14.610	-0.003760
14.615	-0.003726
14.620	-0.003697
14.625	-0.003725
14.630	-0.003773
14.635	-0.003753
14.640	-0.003753
14.645	-0.003746
14.650	-0.003767
14.655	-0.003753
14.660	-0.003760
14.665	-0.003780
14.670	-0.003780
14.675	-0.003753
14.680	-0.003788
14.685	-0.003781
14.690	-0.003780
14.695	-0.003780
14.700	-0.003794
14.705	-0.003794
14.710	-0.003781
14.715	-0.003781
14.720	-0.003788
14.725	-0.003809
14.730	-0.003781
14.735	-0.003795
14.740	-0.003795
14.745	-0.003803
14.750	-0.003858
14.755	-0.003823
14.760	-0.003809
14.765	-0.003830
14.770	-0.003816
14.775	-0.003810
14.780	-0.003796
14.785	-0.003824
14.790	-0.003803
14.795	-0.003837
14.800	-0.003816
14.805	-0.003823
14.810	-0.003845
14.815	-0.003831
14.820	-0.003838
14.825	-0.003831
14.830	-0.003872
14.835	-0.003824
14.840	-0.003852
14.845	-0.003866
14.850	-0.003845
14.855	-0.003859
14.860	-0.003852
14.865	-0.003900
14.870	-0.003880
14.875	-0.003881
14.880	-0.003874
14.885	-0.003874
14.890	-0.003839
14.895	-0.003853
14.900	-0.003846
14.905	-0.003894
14.910	-0.003880
14.915	-0.003887
14.920	-0.003901
14.925	-0.003901
14.930	-0.003873
14.935	-0.003901
14.940	-0.003915
14.945	-0.003922
14.950	-0.003909
14.955	-0.003915
14.960	-0.003935
14.965	-0.003901
14.970	-0.003914
14.975	-0.003914
14.980	-0.003914
14.985	-0.003907
14.990	-0.003921
14.995	-0.003914
15.000	-0.003921
15.005	-0.003942
15.010	-0.003922
15.015	-0.003929
15.020	-0.003942
15.025	-0.003921
15.030	-0.003942
15.035	-0.003935
15.040	-0.003949
15.045	-0.003901
15.050	-0.003921
15.055	-0.003942
15.060	-0.003948
15.065	-0.003941
15.070	-0.003934
15.075	-0.003970
15.080	-0.003963
15.085	-0.003976
15.090	-0.003969
15.095	-0.003982
15.100	-0.004003
15.105	-0.003969
15.110	-0.004017
15.115	-0.003976
15.120	-0.003969
15.125	-0.003989
15.130	-0.003990
15.135	-0.003996
15.140	-0.003983
15.145	-0.003998
15.150	-0.004025
15.155	-0.003990
15.160	-0.004003
15.165	-0.004011
15.170	-0.004004
15.175	-0.004052
15.180	-0.004011
15.185	-0.004004
15.190	-0.003997
15.195	-0.004039
15.200	-0.004031
15.205	-0.004025
15.210	-0.004019
15.215	-0.004046
15.220	-0.004059
15.225	-0.004060
15.230	-0.004053
15.235	-0.004032
15.240	-0.004060
15.245	-0.004053
15.250	-0.004073
15.255	-0.004046
15.260	-0.004060
15.265	-0.004060
15.270	-0.004088
15.275	-0.004123
15.280	-0.004041
15.285	-0.004088
15.290	-0.004088
15.295	-0.004095
15.300	-0.004130
15.305	-0.004102
15.310	-0.004116
15.315	-0.004082
15.320	-0.004096
15.325	-0.004109
15.330	-0.004109
15.335	-0.004130
15.340	-0.004096
15.345	-0.004131
15.350	-0.004117
15.355	-0.004158
15.360	-0.004172
15.365	-0.004117
15.370	-0.004144
15.375	-0.004131
15.380	-0.004117
15.385	-0.004179
15.390	-0.004165
15.395	-0.004138
15.400	-0.004172
15.405	-0.004152
15.410	-0.004167
15.415	-0.004174
15.420	-0.004166
15.425	-0.004159
15.430	-0.004194
15.435	-0.004153
15.440	-0.004187
15.445	-0.004173
15.450	-0.004180
15.455	-0.004187
15.460	-0.004201
15.465	-0.004214
15.470	-0.004166
15.475	-0.004202
15.480	-0.004195
15.485	-0.004188
15.490	-0.004208
15.495	-0.004221
15.500	-0.004221
15.505	-0.004187
15.510	-0.004194
15.515	-0.004215
15.520	-0.004228
15.525	-0.004201
15.530	-0.004228
15.535	-0.004235
15.540	-0.004263
15.545	-0.004243
15.550	-0.004271
15.555	-0.004283
15.560	-0.004229
15.565	-0.004270
15.570	-0.004270
15.575	-0.004263
15.580	-0.004276
15.585	-0.004277
15.590	-0.004270
15.595	-0.004276
15.600	-0.004297
15.605	-0.004283
15.610	-0.004270
15.615	-0.004243
15.620	-0.004325
15.625	-0.004270
15.630	-0.004269
15.635	-0.004283
15.640	-0.004311
15.645	-0.004311
15.650	-0.004297
15.655	-0.004297
15.660	-0.004290
15.665	-0.004310
15.670	-0.004324
15.675	-0.004346
15.680	-0.004325
15.685	-0.004324
15.690	-0.004331
15.695	-0.004317
15.700	-0.004317
15.705	-0.004345
15.710	-0.004337
15.715	-0.004338
15.720	-0.004344
15.725	-0.004344
15.730	-0.004344
15.735	-0.004344
15.740	-0.004373
15.745	-0.004373
15.750	-0.004372
15.755	-0.004337
15.760	-0.004365
15.765	-0.004386
15.770	-0.004386
15.775	-0.004372
15.780	-0.004372
15.785	-0.004372
15.790	-0.004385
15.795	-0.004365
15.800	-0.004365
15.805	-0.004407
15.810	-0.004373
15.815	-0.004400
15.820	-0.004406
15.825	-0.004385
15.830	-0.004406
15.835	-0.004441
15.840	-0.004399
15.845	-0.004406
15.850	-0.004406
15.855	-0.004413
15.860	-0.004440
15.865	-0.004413
15.870	-0.004440
15.875	-0.004427
15.880	-0.004434
15.885	-0.004461
15.890	-0.004440
15.895	-0.004433
15.900	-0.004461
15.905	-0.004454
15.910	-0.004441
15.915	-0.004461
15.920	-0.004441
15.925	-0.004441
15.930	-0.004440
15.935	-0.004496
15.940	-0.004496
15.945	-0.004476
15.950	-0.004482
15.955	-0.004496
15.960	-0.004482
15.965	-0.004489
15.970	-0.004517
15.975	-0.004482
15.980	-0.004489
15.985	-0.004523
15.990	-0.004489
15.995	-0.004502
16.000	-0.004509
16.005	-0.004517
16.010	-0.004531
16.015	-0.004525
16.020	-0.004537
16.025	-0.004530
16.030	-0.004565
16.035	-0.004551
16.040	-0.004538
16.045	-0.004531
16.050	-0.004524
16.055	-0.004537
16.060	-0.004552
16.065	-0.004558
16.070	-0.004559
16.075	-0.004574
16.080	-0.004553
16.085	-0.004573
16.090	-0.004538
16.095	-0.004587
16.100	-0.004579
16.105	-0.004600
16.110	-0.004600
16.115	-0.004600
16.120	-0.004573
16.125	-0.004614
16.130	-0.004559
16.135	-0.004607
16.140	-0.004601
16.145	-0.004615
16.150	-0.004601
16.155	-0.004607
16.160	-0.004607
16.165	-0.004628
16.170	-0.004641
16.175	-0.004649
16.180	-0.004648
16.185	-0.004649
16.190	-0.004628
16.195	-0.004628
16.200	-0.004662
16.205	-0.004636
16.210	-0.004664
16.215	-0.004677
16.220	-0.004676
16.225	-0.004669
16.230	-0.004642
16.235	-0.004669
16.240	-0.004670
16.245	-0.004684
16.250	-0.004711
16.255	-0.004676
16.260	-0.004704
16.265	-0.004676
16.270	-0.004704
16.275	-0.004719
16.280	-0.004713
16.285	-0.004684
16.290	-0.004732
16.295	-0.004718
16.300	-0.004725
16.305	-0.004740
16.310	-0.004705
16.315	-0.004732
16.320	-0.004726
16.325	-0.004698
16.330	-0.004754
16.335	-0.004760
16.340	-0.004775
16.345	-0.004748
16.350	-0.004733
16.355	-0.004760
16.360	-0.004774
16.365	-0.004768
16.370	-0.004768
16.375	-0.004802
16.380	-0.004768
16.385	-0.004810
16.390	-0.004761
16.395	-0.004795
16.400	-0.004788
16.405	-0.004796
16.410	-0.004803
16.415	-0.004825
16.420	-0.004782
16.425	-0.004789
16.430	-0.004837
16.435	-0.004816
16.440	-0.004809
16.445	-0.004782
16.450	-0.004809
16.455	-0.004844
16.460	-0.004830
16.465	-0.004817
16.470	-0.004845
16.475	-0.004880
16.480	-0.004839
16.485	-0.004872
16.490	-0.004864
16.495	-0.004837
16.500	-0.004851
16.505	-0.004851
16.510	-0.004837
16.515	-0.004871
16.520	-0.004892
16.525	-0.004885
16.530	-0.004863
16.535	-0.004884
16.540	-0.004899
16.545	-0.004900
16.550	-0.004906
16.555	-0.004878
16.560	-0.004891
16.565	-0.004919
16.570	-0.004925
16.575	-0.004939
16.580	-0.004891
16.585	-0.004933
16.590	-0.004933
16.595	-0.004926
16.600	-0.004919
16.605	-0.004934
16.610	-0.004907
16.615	-0.004941
16.620	-0.004940
16.625	-0.004954
16.630	-0.004954
16.635	-0.004961
16.640	-0.004947
16.645	-0.004988
16.650	-0.004954
16.655	-0.004996
16.660	-0.004968
16.665	-0.004996
16.670	-0.004982
16.675	-0.004997
16.680	-0.005018
16.685	-0.004989
16.690	-0.005003
16.695	-0.005024
16.700	-0.005017
16.705	-0.005031
16.710	-0.004990
16.715	-0.005038
16.720	-0.005017
16.725	-0.005011
16.730	-0.005024
16.735	-0.005039
16.740	-0.005074
16.745	-0.005075
16.750	-0.005074
16.755	-0.005081
16.760	-0.005054
16.765	-0.005074
16.770	-0.005081
16.775	-0.005069
16.780	-0.005104
16.785	-0.005110
16.790	-0.005097
16.795	-0.005076
16.800	-0.005096
16.805	-0.005132
16.810	-0.005133
16.815	-0.005140
16.820	-0.005118
16.825	-0.005133
16.830	-0.005132
16.835	-0.005160
16.840	-0.005174
16.845	-0.005167
16.850	-0.005140
16.855	-0.005168
16.860	-0.005155
16.865	-0.005155
16.870	-0.005170
16.875	-0.005185
16.880	-0.005199
16.885	-0.005198
16.890	-0.005185
16.895	-0.005199
16.900	-0.005234
16.905	-0.005206
16.910	-0.005213
16.915	-0.005227
16.920	-0.005206
16.925	-0.005206
16.930	-0.005227
16.935	-0.005254
16.940	-0.005200
16.945	-0.005263
16.950	-0.005249
16.955	-0.005283
16.960	-0.005275
16.965	-0.005261
16.970	-0.005261
16.975	-0.005268
16.980	-0.005260
16.985	-0.005281
16.990	-0.005274
16.995	-0.005281
17.000	-0.005295
17.005	-0.005290
17.010	-0.005304
17.015	-0.005331
17.020	-0.005309
17.025	-0.005322
17.030	-0.005295
17.035	-0.005323
17.040	-0.005350
17.045	-0.005281
17.050	-0.005335
17.055	-0.005342
17.060	-0.005334
17.065	-0.005355
17.070	-0.005361
17.075	-0.005363
17.080	-0.005343
17.085	-0.005327
17.090	-0.005396
17.095	-0.005369
17.100	-0.005389
17.105	-0.005368
17.110	-0.005403
17.115	-0.005362
17.120	-0.005403
17.125	-0.005431
17.130	-0.005389
17.135	-0.005403
17.140	-0.005411
17.145	-0.005404
17.150	-0.005438
17.155	-0.005437
17.160	-0.005423
17.165	-0.005424
17.170	-0.005444
17.175	-0.005423
17.180	-0.005451
17.185	-0.005430
17.190	-0.005450
17.195	-0.005471
17.200	-0.005464
17.205	-0.005512
17.210	-0.005499
17.215	-0.005485
17.220	-0.005484
17.225	-0.005498
17.230	-0.005491
17.235	-0.005492
17.240	-0.005512
17.245	-0.005499
17.250	-0.005526
17.255	-0.005513
17.260	-0.005533
17.265	-0.005465
17.270	-0.005548
17.275	-0.005535
17.280	-0.005535
17.285	-0.005554
17.290	-0.005561
17.295	-0.005575
17.300	-0.005589
17.305	-0.005561
17.310	-0.005575
17.315	-0.005575
17.320	-0.005582
17.325	-0.005582
17.330	-0.005589
17.335	-0.005589
17.340	-0.005618
17.345	-0.005605
17.350	-0.005604
17.355	-0.005610
17.360	-0.005590
17.365	-0.005617
17.370	-0.005603
17.375	-0.005645
17.380	-0.005631
17.385	-0.005652
17.390	-0.005638
17.395	-0.005672
17.400	-0.005618
17.405	-0.005647
17.410	-0.005667
17.415	-0.005688
17.420	-0.005666
17.425	-0.005706
17.430	-0.005686
17.435	-0.005693
17.440	-0.005700
17.445	-0.005707
17.450	-0.005707
17.455	-0.005692
17.460	-0.005699
17.465	-0.005719
17.470	-0.005706
17.475	-0.005742
17.480	-0.005749
17.485	-0.005740
17.490	-0.005705
17.495	-0.005720
17.500	-0.005774
17.505	-0.005760
17.510	-0.005753
17.515	-0.005768
17.520	-0.005754
17.525	-0.005781
17.530	-0.005781
17.535	-0.005802
17.540	-0.005775
17.545	-0.005797
17.550	-0.005817
17.555	-0.005803
17.560	-0.005803
17.565	-0.005831
17.570	-0.005803
17.575	-0.005830
17.580	-0.005823
17.585	-0.005830
17.590	-0.005865
17.595	-0.005858
17.600	-0.005864
17.605	-0.005879
17.610	-0.005874
17.615	-0.005872
17.620	-0.005891
17.625	-0.005898
17.630	-0.005878
17.635	-0.005892
17.640	-0.005906
17.645	-0.005885
17.650	-0.005920
17.655	-0.005906
17.660	-0.005912
17.665	-0.005926
17.670	-0.005961
17.675	-0.005921
17.680	-0.005920
17.685	-0.005946
17.690	-0.005967
17.695	-0.005974
17.700	-0.005946
17.705	-0.005974
17.710	-0.005966
17.715	-0.005960
17.720	-0.005980
17.725	-0.005959
17.730	-0.006020
17.735	-0.006027
17.740	-0.006022
17.745	-0.006009
17.750	-0.006042
17.755	-0.006061
17.760	-0.006047
17.765	-0.006054
17.770	-0.006061
17.775	-0.006060
17.780	-0.006067
17.785	-0.006074
17.790	-0.006067
17.795	-0.006108
17.800	-0.006094
17.805	-0.006081
17.810	-0.006123
17.815	-0.006108
17.820	-0.006093
17.825	-0.006134
17.830	-0.006120
17.835	-0.006113
17.840	-0.006154
17.845	-0.006153
17.850	-0.006146
17.855	-0.006167
17.860	-0.006146
17.865	-0.006180
17.870	-0.006174
17.875	-0.006167
17.880	-0.006195
17.885	-0.006193
17.890	-0.006213
17.895	-0.006212
17.900	-0.006212
17.905	-0.006199
17.910	-0.006219
17.915	-0.006205
17.920	-0.006240
17.925	-0.006246
17.930	-0.006253
17.935	-0.006261
17.940	-0.006262
17.945	-0.006262
17.950	-0.006274
17.955	-0.006308
17.960	-0.006288
17.965	-0.006302
17.970	-0.006323
17.975	-0.006289
17.980	-0.006290
17.985	-0.006310
17.990	-0.006330
17.995	-0.006309
18.000	-0.006344
18.005	-0.006332
18.010	-0.006340
18.015	-0.006345
18.020	-0.006365
18.025	-0.006385
18.030	-0.006365
18.035	-0.006386
18.040	-0.006387
18.045	-0.006366
18.050	-0.006380
18.055	-0.006408
18.060	-0.006401
18.065	-0.006442
18.070	-0.006423
18.075	-0.006439
18.080	-0.006410
18.085	-0.006436
18.090	-0.006435
18.095	-0.006443
18.100	-0.006451
18.105	-0.006451
18.110	-0.006485
18.115	-0.006443
18.120	-0.006478
18.125	-0.006464
18.130	-0.006526
18.135	-0.006478
18.140	-0.006499
18.145	-0.006500
18.150	-0.006518
18.155	-0.006498
18.160	-0.006525
18.165	-0.006539
18.170	-0.006552
18.175	-0.006553
18.180	-0.006533
18.185	-0.006533
18.190	-0.006582
18.195	-0.006568
18.200	-0.006575
18.205	-0.006598
18.210	-0.006605
18.215	-0.006611
18.220	-0.006589
18.225	-0.006603
18.230	-0.006631
18.235	-0.006611
18.240	-0.006618
18.245	-0.006639
18.250	-0.006659
18.255	-0.006673
18.260	-0.006638
18.265	-0.006659
18.270	-0.006681
18.275	-0.006662
18.280	-0.006703
18.285	-0.006701
18.290	-0.006714
18.295	-0.006721
18.300	-0.006693
18.305	-0.006728
18.310	-0.006721
18.315	-0.006701
18.320	-0.006742
18.325	-0.006735
18.330	-0.006749
18.335	-0.006785
18.340	-0.006758
18.345	-0.006744
18.350	-0.006804
18.355	-0.006784
18.360	-0.006777
18.365	-0.006784
18.370	-0.006804
18.375	-0.006839
18.380	-0.006833
18.385	-0.006825
18.390	-0.006832
18.395	-0.006866
18.400	-0.006887
18.405	-0.006827
18.410	-0.006876
18.415	-0.006876
18.420	-0.006895
18.425	-0.006881
18.430	-0.006909
18.435	-0.006944
18.440	-0.006917
18.445	-0.006931
18.450	-0.006917
18.455	-0.006944
18.460	-0.006938
18.465	-0.006938
18.470	-0.006947
18.475	-0.006983
18.480	-0.006975
18.485	-0.006982
18.490	-0.006981
18.495	-0.007023
18.500	-0.007010
18.505	-0.007003
18.510	-0.007004
18.515	-0.007026
18.520	-0.007026
18.525	-0.007059
18.530	-0.007039
18.535	-0.007047
18.540	-0.007070
18.545	-0.007098
18.550	-0.007110
18.555	-0.007047
18.560	-0.007089
18.565	-0.007111
18.570	-0.007069
18.575	-0.007125
18.580	-0.007111
18.585	-0.007159
18.590	-0.007138
18.595	-0.007153
18.600	-0.007118
18.605	-0.007107
18.610	-0.007196
18.615	-0.007174
18.620	-0.007200
18.625	-0.007215
18.630	-0.007221
18.635	-0.007215
18.640	-0.007194
18.645	-0.007194
18.650	-0.007216
18.655	-0.007258
18.660	-0.007251
18.665	-0.007244
18.670	-0.007273
18.675	-0.007274
18.680	-0.007260
18.685	-0.007272
18.690	-0.007328
18.695	-0.007300
18.700	-0.007320
18.705	-0.007314
18.710	-0.007350
18.715	-0.007349
18.720	-0.007349
18.725	-0.007355
18.730	-0.007362
18.735	-0.007356
18.740	-0.007378
18.745	-0.007386
18.750	-0.007419
18.755	-0.007424
18.760	-0.007411
18.765	-0.007438
18.770	-0.007433
18.775	-0.007447
18.780	-0.007419
18.785	-0.007439
18.790	-0.007453
18.795	-0.007439
18.800	-0.007474
18.805	-0.007491
18.810	-0.007491
18.815	-0.007496
18.820	-0.007537
18.825	-0.007524
18.830	-0.007525
18.835	-0.007560
18.840	-0.007573
18.845	-0.007565
18.850	-0.007593
18.855	-0.007572
18.860	-0.007567
18.865	-0.007616
18.870	-0.007605
18.875	-0.007634
18.880	-0.007620
18.885	-0.007627
18.890	-0.007662
18.895	-0.007697
18.900	-0.007643
18.905	-0.007672
18.910	-0.007680
18.915	-0.007674
18.920	-0.007687
18.925	-0.007679
18.930	-0.007715
18.935	-0.007744
18.940	-0.007730
18.945	-0.007722
18.950	-0.007745
18.955	-0.007787
18.960	-0.007794
18.965	-0.007768
18.970	-0.007741
18.975	-0.007743
18.980	-0.007813
18.985	-0.007782
18.990	-0.007842
18.995	-0.007826
19.000	-0.007825
19.005	-0.007832
19.010	-0.007852
19.015	-0.007843
19.020	-0.007856
19.025	-0.007892
19.030	-0.007857
19.035	-0.007905
19.040	-0.007926
19.045	-0.007960
19.050	-0.007919
19.055	-0.007973
19.060	-0.007972
19.065	-0.007951
19.070	-0.007987
19.075	-0.007989
19.080	-0.008023
19.085	-0.008014
19.090	-0.008019
19.095	-0.008007
19.100	-0.008061
19.105	-0.008054
19.110	-0.008088
19.115	-0.008075
19.120	-0.008102
19.125	-0.008136
19.130	-0.008117
19.135	-0.008126
19.140	-0.008148
19.145	-0.008154
19.150	-0.008153
19.155	-0.008174
19.160	-0.008208
19.165	-0.008235
19.170	-0.008214
19.175	-0.008199
19.180	-0.008228
19.185	-0.008209
19.190	-0.008243
19.195	-0.008292
19.200	-0.008279
19.205	-0.008295
19.210	-0.008318
19.215	-0.008304
19.220	-0.008319
19.225	-0.008348
19.230	-0.008411
19.235	-0.008352
19.240	-0.008409
19.245	-0.008438
19.250	-0.008398
19.255	-0.008421
19.260	-0.008420
19.265	-0.008454
19.270	-0.008454
19.275	-0.008475
19.280	-0.008488
19.285	-0.008486
19.290	-0.008471
19.295	-0.008492
19.300	-0.008514
19.305	-0.008514
19.310	-0.008535
19.315	-0.008548
19.320	-0.008546
19.325	-0.008551
19.330	-0.008550
19.335	-0.008578
19.340	-0.008579
19.345	-0.008608
19.350	-0.008619
19.355	-0.008666
19.360	-0.008658
19.365	-0.008649
19.370	-0.008675
19.375	-0.008687
19.380	-0.008695
19.385	-0.008687
19.390	-0.008708
19.395	-0.008742
19.400	-0.008742
19.405	-0.008730
19.410	-0.008772
19.415	-0.008770
19.420	-0.008803
19.425	-0.008846
19.430	-0.008805
19.435	-0.008867
19.440	-0.008852
19.445	-0.008844
19.450	-0.008864
19.455	-0.008865
19.460	-0.008913
19.465	-0.008934
19.470	-0.008943
19.475	-0.008951
19.480	-0.008970
19.485	-0.008996
19.490	-0.009003
19.495	-0.009017
19.500	-0.009016
19.505	-0.009031
19.510	-0.009066
19.515	-0.009074
19.520	-0.009069
19.525	-0.009098
19.530	-0.009112
19.535	-0.009100
19.540	-0.009125
19.545	-0.009124
19.550	-0.009155
19.555	-0.009171
19.560	-0.009192
19.565	-0.009192
19.570	-0.009213
19.575	-0.009214
19.580	-0.009247
19.585	-0.009241
19.590	-0.009262
19.595	-0.009270
19.600	-0.009278
19.605	-0.009324
19.610	-0.009302
19.615	-0.009329
19.620	-0.009348
19.625	-0.009375
19.630	-0.009397
19.635	-0.009364
19.640	-0.009410
19.645	-0.009403
19.650	-0.009458
19.655	-0.009452
19.660	-0.009486
19.665	-0.009459
19.670	-0.009472
19.675	-0.009522
19.680	-0.009520
19.685	-0.009563
19.690	-0.009599
19.695	-0.009585
19.700	-0.009577
19.705	-0.009573
19.710	-0.009609
19.715	-0.009658
19.720	-0.009602
19.725	-0.009672
19.730	-0.009699
19.735	-0.009723
19.740	-0.009719
19.745	-0.009774
19.750	-0.009784
19.755	-0.009789
19.760	-0.009811
19.765	-0.009819
19.770	-0.009807
19.775	-0.009862
19.780	-0.009895
19.785	-0.009924
19.790	-0.009903
19.795	-0.009948
19.800	-0.009959
19.805	-0.009956
19.810	-0.009969
19.815	-0.010022
19.820	-0.010042
19.825	-0.010063
19.830	-0.010106
19.835	-0.010115
19.840	-0.010115
19.845	-0.010128
19.850	-0.010157
19.855	-0.010149
19.860	-0.010169
19.865	-0.010233
19.870	-0.010215
19.875	-0.010235
19.880	-0.010246
19.885	-0.010312
19.890	-0.010296
19.895	-0.010329
19.900	-0.010362
19.905	-0.010346
19.910	-0.010371
19.915	-0.010377
19.920	-0.010369
19.925	-0.010444
19.930	-0.010455
19.935	-0.010490
19.940	-0.010504
19.945	-0.010537
19.950	-0.010540
19.955	-0.010569
19.960	-0.010588
19.965	-0.010630
19.970	-0.010637
19.975	-0.010658
19.980	-0.010691
19.985	-0.010746
19.990	-0.010709
19.995	-0.010715
20.000	-0.010770
20.005	-0.010779
20.010	-0.010841
20.015	-0.010838
20.020	-0.010866
20.025	-0.010879
20.030	-0.010894
20.035	-0.010936
20.040	-0.010971
20.045	-0.010993
20.050	-0.010980
20.055	-0.011021
20.060	-0.011064
20.065	-0.011092
20.070	-0.011089
20.075	-0.011125
20.080	-0.011174
20.085	-0.011201
20.090	-0.011228
20.095	-0.011228
20.100	-0.011271
20.105	-0.011286
20.110	-0.011312
20.115	-0.011332
20.120	-0.011366
20.125	-0.011352
20.130	-0.011415
20.135	-0.011454
20.140	-0.011471
20.145	-0.011470
20.150	-0.011528
20.155	-0.011543
20.160	-0.011516
20.165	-0.011601
20.170	-0.011603
20.175	-0.011605
20.180	-0.011632
20.185	-0.011697
20.190	-0.011719
20.195	-0.011755
20.200	-0.011772
20.205	-0.011813
20.210	-0.011843
20.215	-0.011853
20.220	-0.011881
20.225	-0.011932
20.230	-0.011937
20.235	-0.011947
20.240	-0.012004
20.245	-0.011991
20.250	-0.012055
20.255	-0.012070
20.260	-0.012087
20.265	-0.012127
20.270	-0.012162
20.275	-0.012170
20.280	-0.012221
20.285	-0.012245
20.290	-0.012285
20.295	-0.012295
20.300	-0.012322
20.305	-0.012377
20.310	-0.012398
20.315	-0.012413
20.320	-0.012471
20.325	-0.012513
20.330	-0.012528
20.335	-0.012576
20.340	-0.012602
20.345	-0.012650
20.350	-0.012701
20.355	-0.012722
20.360	-0.012762
20.365	-0.012803
20.370	-0.012838
20.375	-0.012879
20.380	-0.012909
20.385	-0.012928
20.390	-0.012944
20.395	-0.012980
20.400	-0.013041
20.405	-0.013091
20.410	-0.013107
20.415	-0.013185
20.420	-0.013215
20.425	-0.013229
20.430	-0.013262
20.435	-0.013292
20.440	-0.013310
20.445	-0.013401
20.450	-0.013407
20.455	-0.013474
20.460	-0.013518
20.465	-0.013534
20.470	-0.013606
20.475	-0.013679
20.480	-0.013705
20.485	-0.013760
20.490	-0.013831
20.495	-0.013859
20.500	-0.013932
20.505	-0.013987
20.510	-0.014009
20.515	-0.014033
20.520	-0.014046
20.525	-0.014089
20.530	-0.014144
20.535	-0.014142
20.540	-0.014190
20.545	-0.014255
20.550	-0.014325
20.555	-0.014353
20.560	-0.014395
20.565	-0.014438
20.570	-0.014468
20.575	-0.014554
20.580	-0.014563
20.585	-0.014596
20.590	-0.014635
20.595	-0.014698
20.600	-0.014734
20.605	-0.014777
20.610	-0.014821
20.615	-0.014902
20.620	-0.014922
20.625	-0.015009
20.630	-0.015089
20.635	-0.015142
20.640	-0.015216
20.645	-0.015283
20.650	-0.015316
20.655	-0.015390
20.660	-0.015440
20.665	-0.015533
20.670	-0.015583
20.675	-0.015626
20.680	-0.015723
20.685	-0.015759
20.690	-0.015821
20.695	-0.015871
20.700	-0.015947
20.705	-0.015977
20.710	-0.016063
20.715	-0.016136
20.720	-0.016232
20.725	-0.016309
20.730	-0.016335
20.735	-0.016389
20.740	-0.016454
20.745	-0.016506
20.750	-0.016573
20.755	-0.016638
20.760	-0.016738
20.765	-0.016809
20.770	-0.016908
20.775	-0.017017
20.780	-0.017112
20.785	-0.017246
20.790	-0.017323
20.795	-0.017373
20.800	-0.017471
20.805	-0.017571
20.810	-0.017680
20.815	-0.017754
20.820	-0.017844
20.825	-0.017950
20.830	-0.018017
20.835	-0.018118
20.840	-0.018186
20.845	-0.018323
20.850	-0.018417
20.855	-0.018514
20.860	-0.018603
20.865	-0.018668
20.870	-0.018755
20.875	-0.018890
20.880	-0.019022
20.885	-0.019154
20.890	-0.019247
20.895	-0.019374
20.900	-0.019459
20.905	-0.019567
20.910	-0.019614
20.915	-0.019710
20.920	-0.019819
20.925	-0.019910
20.930	-0.020020
20.935	-0.020112
20.940	-0.020253
20.945	-0.020390
20.950	-0.020544
20.955	-0.020650
20.960	-0.020801
20.965	-0.020867
20.970	-0.021042
20.975	-0.021165
20.980	-0.021273
20.985	-0.021361
20.990	-0.021483
20.995	-0.021652
21.000	-0.021832
21.005	-0.022021
21.010	-0.022136
21.015	-0.022305
21.020	-0.022470
21.025	-0.022676
21.030	-0.022856
21.035	-0.023026
21.040	-0.023265
21.045	-0.023482
21.050	-0.023677
21.055	-0.023885
21.060	-0.024064
21.065	-0.024261
21.070	-0.024481
21.075	-0.024744
21.080	-0.024951
21.085	-0.025189
21.090	-0.025379
21.095	-0.025658
21.100	-0.025952
21.105	-0.026257
21.110	-0.026526
21.115	-0.026835
21.120	-0.027083
21.125	-0.027386
21.130	-0.027756
21.135	-0.028148
21.140	-0.028555
21.145	-0.028873
21.150	-0.028981
21.155	-0.029216
21.160	-0.029599
21.165	-0.029842
21.170	-0.030329
21.175	-0.030952
21.180	-0.031400
21.185	-0.031949
21.190	-0.032493
21.195	-0.033012
21.200	-0.033590
21.205	-0.034259
21.210	-0.034758
21.215	-0.035210
21.220	-0.036118
21.225	-0.037148
21.230	-0.037876
21.235	-0.038991
21.240	-0.039444
21.245	-0.039769
21.250	-0.041744
21.255	-0.042770
21.260	-0.043129
21.265	-0.044181
21.270	-0.045374
21.275	-0.046565
21.280	-0.047454
21.285	-0.047838
21.290	-0.047834
21.295	-0.047627
21.300	-0.047096
21.305	-0.045991
21.310	-0.044190
21.315	-0.041813
21.320	-0.038814
21.325	-0.035231
21.330	-0.031316
21.335	-0.027388
21.340	-0.023397
21.345	-0.019144
21.350	-0.014459
21.355	-0.010071
21.360	-0.006428
21.365	-0.003791
21.370	-0.002090
21.375	-0.001110
21.380	-0.000556
21.385	-0.000306
21.390	-0.000184
21.395	-0.000070
21.400	-0.000022
21.405	-0.000015
21.410	0.000025
21.415	-0.000003
21.420	0.000031
21.425	0.000031
21.430	0.000078
21.435	0.000024
21.440	0.000038
21.445	0.000024
21.450	0.000038
21.455	0.000072
21.460	0.000058
21.465	0.000071
21.470	0.000086
21.475	0.000065
21.480	0.000051
21.485	0.000078
21.490	0.000071
21.495	0.000078
21.500	0.000051
21.505	0.000085
21.510	0.000071
21.515	0.000071
21.520	0.000085
21.525	0.000085
21.530	0.000098
21.535	0.000065
21.540	0.000086
21.545	0.000085
21.550	0.000051
21.555	0.000091
21.560	0.000071
21.565	0.000071
21.570	0.000084
21.575	0.000044
21.580	0.000078
21.585	0.000111
21.590	0.000071
21.595	0.000091
21.600	0.000071
21.605	0.000085
21.610	0.000085
21.615	0.000077
21.620	0.000084
21.625	0.000077
21.630	0.000077
21.635	0.000111
21.640	0.000064
21.645	0.000091
21.650	0.000091
21.655	0.000098
21.660	0.000104
21.665	0.000111
21.670	0.000078
21.675	0.000105
21.680	0.000084
21.685	0.000070
21.690	0.000070
21.695	0.000097
21.700	0.000091
21.705	0.000084
21.710	0.000090
21.715	0.000097
21.720	0.000077
21.725	0.000097
21.730	0.000090
21.735	0.000098
21.740	0.000084
21.745	0.000057
21.750	0.000131
21.755	0.000097
21.760	0.000077
21.765	0.000110
21.770	0.000070
21.775	0.000097
21.780	0.000083
21.785	0.000090
21.790	0.000110
21.795	0.000110
21.800	0.000104
21.805	0.000111
21.810	0.000111
21.815	0.000063
21.820	0.000110
21.825	0.000070
21.830	0.000076
21.835	0.000083
21.840	0.000110
21.845	0.000090
21.850	0.000097
21.855	0.000110
21.860	0.000090
21.865	0.000090
21.870	0.000110
21.875	0.000104
21.880	0.000083
21.885	0.000089
21.890	0.000089
21.895	0.000083
21.900	0.000076
21.905	0.000103
21.910	0.000117
21.915	0.000103
21.920	0.000116
21.925	0.000110
21.930	0.000069
21.935	0.000090
21.940	0.000110
21.945	0.000117
21.950	0.000042
21.955	0.000096
21.960	0.000103
21.965	0.000090
21.970	0.000130
21.975	0.000089
21.980	0.000096
21.985	0.000076
21.990	0.000096
21.995	0.000096
22.000	0.000083
22.005	0.000083
22.010	0.000089
22.015	0.000096
22.020	0.000096
22.025	0.000089
22.030	0.000075
22.035	0.000089
22.040	0.000095
22.045	0.000096
22.050	0.000082
22.055	0.000089
22.060	0.000082
22.065	0.000082
22.070	0.000103
22.075	0.000096
22.080	0.000075
22.085	0.000109
22.090	0.000061
22.095	0.000062
22.100	0.000075
22.105	0.000116
22.110	0.000116
22.115	0.000109
22.120	0.000102
22.125	0.000095
22.130	0.000088
22.135	0.000096
22.140	0.000089
22.145	0.000089
22.150	0.000082
22.155	0.000102
22.160	0.000122
22.165	0.000088
22.170	0.000088
22.175	0.000088
22.180	0.000088
22.185	0.000061
22.190	0.000095
22.195	0.000095
22.200	0.000096
22.205	0.000069
22.210	0.000068
22.215	0.000115
22.220	0.000095
22.225	0.000108
22.230	0.000075
22.235	0.000075
22.240	0.000088
22.245	0.000082
22.250	0.000075
22.255	0.000108
22.260	0.000115
22.265	0.000095
22.270	0.000068
22.275	0.000082
22.280	0.000074
22.285	0.000094
22.290	0.000081
22.295	0.000074
22.300	0.000067
22.305	0.000088
22.310	0.000088
22.315	0.000094
22.320	0.000074
22.325	0.000074
22.330	0.000101
22.335	0.000061
22.340	0.000082
22.345	0.000115
22.350	0.000074
22.355	0.000094
22.360	0.000067
22.365	0.000067
22.370	0.000101
22.375	0.000088
22.380	0.000081
22.385	0.000081
22.390	0.000080
22.395	0.000074
22.400	0.000088
22.405	0.000088
22.410	0.000081
22.415	0.000080
22.420	0.000087
22.425	0.000053
22.430	0.000073
22.435	0.000074
22.440	0.000101
22.445	0.000053
22.450	0.000100
22.455	0.000107
22.460	0.000094
22.465	0.000094
22.470	0.000081
22.475	0.000101
22.480	0.000073
22.485	0.000060
22.490	0.000094
22.495	0.000101
22.500	0.000087
22.505	0.000080
22.510	0.000060
22.515	0.000107
22.520	0.000094
22.525	0.000080
22.530	0.000107
22.535	0.000087
22.540	0.000053
22.545	0.000060
22.550	0.000073
22.555	0.000066
22.560	0.000066
22.565	0.000073
22.570	0.000080
22.575	0.000073
22.580	0.000073
22.585	0.000080
22.590	0.000120
22.595	0.000066
22.600	0.000060
22.605	0.000088
22.610	0.000053
22.615	0.000032
22.620	0.000059
22.625	0.000086
22.630	0.000073
22.635	0.000100
22.640	0.000086
22.645	0.000066
22.650	0.000079
22.655	0.000079
22.660	0.000079
22.665	0.000086
22.670	0.000107
22.675	0.000073
22.680	0.000045
22.685	0.000072
22.690	0.000072
22.695	0.000086
22.700	0.000066
22.705	0.000079
22.710	0.000039
22.715	0.000093
22.720	0.000086
22.725	0.000086
22.730	0.000046
22.735	0.000066
22.740	0.000087
22.745	0.000045
22.750	0.000079
22.755	0.000079
22.760	0.000086
22.765	0.000079
22.770	0.000072
22.775	0.000059
22.780	0.000079
22.785	0.000052
22.790	0.000079
22.795	0.000072
22.800	0.000079
22.805	0.000093
22.810	0.000079
22.815	0.000065
22.820	0.000065
22.825	0.000085
22.830	0.000058
22.835	0.000031
22.840	0.000085
22.845	0.000099
22.850	0.000085
22.855	0.000045
22.860	0.000072
22.865	0.000065
22.870	0.000079
22.875	0.000072
22.880	0.000099
22.885	0.000058
22.890	0.000092
22.895	0.000072
22.900	0.000065
22.905	0.000058
22.910	0.000085
22.915	0.000099
22.920	0.000065
22.925	0.000085
22.930	0.000065
22.935	0.000079
22.940	0.000038
22.945	0.000071
22.950	0.000058
22.955	0.000044
22.960	0.000078
22.965	0.000071
22.970	0.000085
22.975	0.000071
22.980	0.000065
22.985	0.000065
22.990	0.000071
22.995	0.000078
23.000	0.000079
23.005	0.000072
23.010	0.000072
23.015	0.000071
23.020	0.000071
23.025	0.000078
23.030	0.000078
23.035	0.000044
23.040	0.000071
23.045	0.000092
23.050	0.000031
23.055	0.000058
23.060	0.000071
23.065	0.000071
23.070	0.000065
23.075	0.000038
23.080	0.000057
23.085	0.000071
23.090	0.000084
23.095	0.000044
23.100	0.000071
23.105	0.000037
23.110	0.000091
23.115	0.000064
23.120	0.000050
23.125	0.000077
23.130	0.000098
23.135	0.000038
23.140	0.000045
23.145	0.000051
23.150	0.000064
23.155	0.000057
23.160	0.000030
23.165	0.000044
23.170	0.000098
23.175	0.000077
23.180	0.000071
23.185	0.000057
23.190	0.000043
23.195	0.000064
23.200	0.000071
23.205	0.000065
23.210	0.000044
23.215	0.000077
23.220	0.000063
23.225	0.000064
23.230	0.000023
23.235	0.000077
23.240	0.000070
23.245	0.000064
23.250	0.000050
23.255	0.000084
23.260	0.000084
23.265	0.000030
23.270	0.000044
23.275	0.000071
23.280	0.000090
23.285	0.000030
23.290	0.000036
23.295	0.000050
23.300	0.000063
23.305	0.000077
23.310	0.000050
23.315	0.000097
23.320	0.000063
23.325	0.000050
23.330	0.000070
23.335	0.000077
23.340	0.000037
23.345	0.000043
23.350	0.000050
23.355	0.000063
23.360	0.000049
23.365	0.000077
23.370	0.000043
23.375	0.000077
23.380	0.000083
23.385	0.000049
23.390	0.000076
23.395	0.000070
23.400	0.000063
23.405	0.000077
23.410	0.000056
23.415	0.000043
23.420	0.000056
23.425	0.000029
23.430	0.000063
23.435	0.000050
23.440	0.000070
23.445	0.000076
23.450	0.000083
23.455	0.000056
23.460	0.000062
23.465	0.000070
23.470	0.000050
23.475	0.000050
23.480	0.000069
23.485	0.000035
23.490	0.000049
23.495	0.000069
23.500	0.000035
23.505	0.000049
23.510	0.000056
23.515	0.000056
23.520	0.000056
23.525	0.000056
23.530	0.000042
23.535	0.000083
23.540	0.000070
23.545	0.000062
23.550	0.000076
23.555	0.000056
23.560	0.000042
23.565	-0.000005
23.570	0.000069
23.575	0.000028
23.580	0.000042
23.585	0.000062
23.590	0.000041
23.595	0.000062
23.600	0.000056
23.605	0.000063
23.610	0.000062
23.615	0.000055
23.620	0.000075
23.625	0.000041
23.630	0.000062
23.635	0.000021
23.640	0.000048
23.645	0.000048
23.650	0.000048
23.655	0.000089
23.660	0.000048
23.665	0.000056
23.670	0.000056
23.675	0.000015
23.680	0.000028
23.685	0.000035
23.690	0.000028
23.695	0.000062
23.700	0.000062
23.705	0.000096
23.710	0.000075
23.715	0.000055
23.720	0.000048
23.725	0.000048
23.730	0.000048
23.735	0.000055
23.740	0.000049
23.745	0.000068
23.750	0.000041
23.755	0.000054
23.760	0.000055
23.765	0.000041
23.770	0.000055
23.775	0.000041
23.780	0.000061
23.785	0.000055
23.790	0.000034
23.795	0.000041
23.800	0.000055
23.805	0.000028
23.810	0.000028
23.815	0.000034
23.820	0.000034
23.825	0.000028
23.830	0.000041
23.835	0.000068
23.840	0.000034
23.845	0.000061
23.850	0.000041
23.855	0.000041
23.860	0.000054
23.865	0.000055
23.870	0.000048
23.875	0.000041
23.880	0.000061
23.885	0.000061
23.890	0.000047
23.895	0.000034
23.900	0.000034
23.905	0.000047
23.910	0.000047
23.915	0.000054
23.920	0.000041
23.925	0.000014
23.930	0.000034
23.935	0.000055
23.940	0.000068
23.945	0.000054
23.950	0.000040
23.955	0.000067
23.960	0.000047
23.965	0.000054
23.970	0.000020
23.975	0.000054
23.980	0.000061
23.985	0.000034
23.990	0.000047
23.995	0.000060
24.000	0.000047
24.005	0.000041
24.010	0.000061
24.015	0.000040
24.020	0.000060
24.025	0.000033
24.030	0.000040
24.035	0.000033
24.040	0.000060
24.045	0.000054
24.050	0.000067
24.055	0.000047
24.060	0.000054
24.065	0.000041
24.070	0.000041
24.075	0.000048
24.080	0.000013
24.085	0.000020
24.090	0.000047
24.095	0.000040
24.100	0.000060
24.105	0.000047
24.110	0.000067
24.115	0.000006
24.120	0.000047
24.125	0.000047
24.130	0.000040
24.135	0.000034
24.140	0.000061
24.145	0.000060
24.150	0.000053
24.155	0.000060
24.160	0.000047
24.165	0.000033
24.170	0.000053
24.175	0.000019
24.180	0.000046
24.185	0.000026
24.190	0.000053
24.195	0.000060
24.200	0.000047
24.205	0.000054
24.210	0.000053
24.215	0.000067
24.220	0.000026
24.225	0.000046
24.230	0.000067
24.235	0.000026
24.240	0.000046
24.245	0.000033
24.250	0.000067
24.255	0.000053
24.260	0.000046
24.265	0.000040
24.270	0.000033
24.275	0.000033
24.280	0.000053
24.285	0.000053
24.290	0.000046
24.295	0.000046
24.300	0.000053
24.305	0.000066
24.310	0.000073
24.315	0.000032
24.320	0.000066
24.325	0.000046
24.330	0.000012
24.335	0.000087
24.340	0.000080
24.345	0.000032
24.350	0.000019
24.355	0.000019
24.360	0.000052
24.365	0.000053
24.370	0.000046
24.375	0.000066
24.380	0.000039
24.385	0.000032
24.390	0.000059
24.395	0.000025
24.400	0.000033
24.405	0.000006
24.410	0.000039
24.415	0.000059
24.420	0.000045
24.425	0.000039
24.430	0.000025
24.435	0.000052
24.440	0.000045
24.445	0.000032
24.450	0.000045
24.455	0.000072
24.460	0.000052
24.465	0.000053
24.470	0.000053
24.475	0.000039
24.480	0.000032
24.485	0.000045
24.490	0.000052
24.495	0.000038
24.500	0.000025
24.505	0.000052
24.510	0.000032
24.515	0.000052
24.520	0.000018
24.525	0.000032
24.530	0.000045
24.535	0.000032
24.540	0.000032
24.545	0.000011
24.550	0.000038
24.555	0.000038
24.560	0.000045
24.565	0.000011
24.570	0.000038
24.575	0.000052
24.580	0.000018
24.585	0.000018
24.590	0.000018
24.595	0.000045
24.600	0.000032
24.605	0.000039
24.610	0.000045
24.615	0.000031
24.620	0.000018
24.625	0.000052
24.630	0.000052
24.635	0.000031
24.640	0.000024
24.645	0.000045
24.650	0.000038
24.655	0.000065
24.660	0.000038
24.665	0.000032
24.670	0.000045
24.675	0.000018
24.680	0.000024
24.685	0.000017
24.690	0.000058
24.695	0.000038
24.700	0.000011
24.705	0.000024
24.710	0.000024
24.715	0.000044
24.720	0.000051
24.725	0.000017
24.730	0.000038
24.735	0.000018
24.740	0.000038
24.745	0.000024
24.750	0.000037
24.755	0.000017
24.760	0.000058
24.765	0.000044
24.770	0.000037
24.775	0.000037
24.780	0.000003
24.785	0.000044
24.790	0.000050
24.795	0.000024
24.800	0.000044
24.805	0.000031
24.810	0.000030
24.815	0.000010
24.820	0.000016
24.825	0.000023
24.830	0.000010
24.835	0.000051
24.840	0.000037
24.845	0.000024
24.850	0.000010
24.855	0.000023
24.860	0.000030
24.865	0.000044
24.870	0.000044
24.875	0.000030
24.880	0.000043
24.885	0.000064
24.890	0.000030
24.895	0.000003
24.900	0.000030
24.905	0.000023
24.910	0.000050
24.915	0.000043
24.920	0.000016
24.925	0.000036
24.930	0.000023
24.935	0.000017
24.940	0.000044
24.945	0.000023
24.950	0.000043
24.955	0.000036
24.960	0.000050
24.965	0.000036
24.970	0.000036
24.975	0.000030
24.980	0.000036
24.985	0.000023
24.990	0.000064
24.995	0.000043
25.000	0.000023
25.005	0.000023
25.010	0.000030
25.015	0.000029
25.020	0.000016
25.025	0.000063
25.030	-0.000004
25.035	0.000050
25.040	0.000016
25.045	0.000050
25.050	0.000036
25.055	0.000043
25.060	0.000022
25.065	0.000037
25.070	0.000050
25.075	0.000003
25.080	0.000036
25.085	0.000016
25.090	0.000015
25.095	0.000022
25.100	0.000043
25.105	0.000036
25.110	0.000036
25.115	0.000029
25.120	0.000016
25.125	0.000015
25.130	0.000057
25.135	0.000016
25.140	0.000016
25.145	0.000022
25.150	0.000042
25.155	0.000016
25.160	0.000009
25.165	0.000022
25.170	0.000029
25.175	0.000056
25.180	0.000029
25.185	0.000029
25.190	0.000015
25.195	0.000029
25.200	0.000036
25.205	0.000036
25.210	0.000049
25.215	0.000035
25.220	-0.000012
25.225	0.000022
25.230	0.000035
25.235	0.000042
25.240	0.000008
25.245	0.000056
25.250	0.000035
25.255	0.000022
25.260	0.000042
25.265	0.000056
25.270	0.000009
25.275	0.000035
25.280	0.000028
25.285	0.000049
25.290	0.000021
25.295	0.000029
25.300	0.000015
25.305	0.000029
25.310	0.000015
25.315	0.000035
25.320	0.000028
25.325	0.000021
25.330	0.000021
25.335	0.000015
25.340	0.000022
25.345	0.000028
25.350	0.000028
25.355	0.000021
25.360	0.000035
25.365	0.000028
25.370	0.000008
25.375	0.000021
25.380	0.000042
25.385	0.000028
25.390	0.000035
25.395	0.000049
25.400	0.000015
25.405	0.000029
25.410	0.000021
25.415	0.000028
25.420	0.000021
25.425	0.000062
25.430	0.000021
25.435	0.000014
25.440	0.000028
25.445	0.000014
25.450	0.000008
25.455	0.000007
25.460	0.000048
25.465	0.000014
25.470	0.000042
25.475	0.000028
25.480	0.000041
25.485	0.000021
25.490	0.000007
25.495	0.000014
25.500	0.000027
25.505	0.000021
25.510	0.000028
25.515	0.000000
25.520	0.000007
25.525	0.000014
25.530	0.000021
25.535	0.000022
25.540	0.000014
25.545	0.000047
25.550	-0.000000
25.555	0.000041
25.560	0.000027
25.565	0.000020
25.570	0.000000
25.575	0.000027
25.580	0.000020
25.585	0.000054
25.590	0.000054
25.595	0.000034
25.600	0.000027
25.605	0.000034
25.610	0.000007
25.615	-0.000000
25.620	-0.000000
25.625	0.000047
25.630	0.000027
25.635	0.000033
25.640	0.000020
25.645	0.000020
25.650	0.000006
25.655	0.000006
25.660	0.000027
25.665	0.000027
25.670	0.000007
25.675	-0.000014
25.680	0.000047
25.685	-0.000007
25.690	-0.000007
25.695	0.000040
25.700	0.000027
25.705	0.000034
25.710	0.000027
25.715	0.000034
25.720	-0.000001
25.725	0.000020
25.730	0.000020
25.735	0.000027
25.740	0.000020
25.745	-0.000001
25.750	0.000019
25.755	0.000006
25.760	0.000033
25.765	0.000033
25.770	0.000033
25.775	0.000026
25.780	0.000012
25.785	0.000026
25.790	0.000006
25.795	0.000040
25.800	0.000013
25.805	0.000013
25.810	0.000013
25.815	0.000033
25.820	0.000033
25.825	0.000033
25.830	0.000006
25.835	0.000046
25.840	0.000033
25.845	0.000013
25.850	-0.000001
25.855	0.000039
25.860	0.000012
25.865	0.000013
25.870	0.000020
25.875	0.000019
25.880	0.000012
25.885	0.000032
25.890	0.000019
25.895	0.000005
25.900	-0.000001
25.905	-0.000008
25.910	0.000005
25.915	0.000018
25.920	-0.000002
25.925	0.000019
25.930	0.000006
25.935	0.000026
25.940	0.000046
25.945	0.000019
25.950	-0.000015
25.955	0.000026
25.960	-0.000002
25.965	0.000039
25.970	-0.000002
25.975	0.000012
25.980	-0.000002
25.985	0.000018
25.990	0.000012
25.995	0.000019
26.000	0.000005
26.005	0.000026
26.010	-0.000002
26.015	0.000032
26.020	0.000025
26.025	0.000039
26.030	-0.000002
26.035	0.000005
26.040	0.000032
26.045	0.000005
26.050	0.000011
26.055	0.000018
26.060	0.000018
26.065	0.000005
26.070	0.000039
26.075	0.000005
26.080	-0.000002
26.085	0.000018
26.090	0.000018
26.095	0.000018
26.100	-0.000009
26.105	0.000005
26.110	0.000018
26.115	0.000025
26.120	-0.000009
26.125	0.000025
26.130	0.000012
26.135	-0.000015
26.140	0.000005
26.145	-0.000009
26.150	0.000011
26.155	0.000038
26.160	0.000045
26.165	0.000018
26.170	0.000025
26.175	0.000004
26.180	0.000024
26.185	-0.000009
26.190	0.000024
26.195	0.000031
26.200	-0.000009
26.205	-0.000002
26.210	0.000018
26.215	0.000025
26.220	0.000018
26.225	-0.000016
26.230	-0.000010
26.235	-0.000016
26.240	0.000024
26.245	-0.000010
26.250	0.000011
26.255	0.000004
26.260	0.000018
26.265	-0.000002
26.270	0.000005
26.275	-0.000003
26.280	-0.000030
26.285	-0.000003
26.290	0.000003
26.295	0.000031
26.300	-0.000003
26.305	0.000031
26.310	0.000024
26.315	0.000024
26.320	0.000037
26.325	0.000037
26.330	0.000011
26.335	0.000011
26.340	0.000024
26.345	0.000017
26.350	0.000018
26.355	-0.000016
26.360	-0.000010
26.365	-0.000016
26.370	0.000024
26.375	-0.000010
26.380	0.000011
26.385	0.000004
26.390	0.000018
26.395	-0.000002
26.400	0.000005
26.405	-0.000003
26.410	-0.000030
26.415	-0.000003
26.420	0.000003
26.425	0.000031
26.430	-0.000003
26.435	0.000031
26.440	0.000024
26.445	0.000024
26.450	0.000037
26.455	0.000037
26.460	0.000011
26.465	0.000011
26.470	0.000024
26.475	0.000017
