PK2650 Deflection Data
Z Position (mm)	105.000	W Position (deg)	288.00
Preform ID	Diameter (mm)	Time Stamp	Start Time	Operator	Serial Number
Test 1	25	03-Nov-22 18:05:01	03-Nov-22 18:07:20	[no user]	266007708
Radius (mm)	Deflection
-26.250	-0.000022
-26.245	-0.000002
-26.240	0.000012
-26.235	-0.000016
-26.230	0.000012
-26.225	-0.000009
-26.220	0.000011
-26.215	-0.000029
-26.210	-0.000030
-26.205	0.000004
-26.200	-0.000030
-26.195	-0.000002
-26.190	-0.000022
-26.185	-0.000002
-26.180	0.000018
-26.175	-0.000003
-26.170	-0.000016
-26.165	-0.000016
-26.160	-0.000010
-26.155	-0.000037
-26.150	0.000004
-26.145	-0.000051
-26.140	-0.000023
-26.135	-0.000010
-26.130	0.000011
-26.125	-0.000037
-26.120	-0.000016
-26.115	-0.000030
-26.110	-0.000003
-26.105	0.000017
-26.100	0.000024
-26.095	-0.000017
-26.090	-0.000003
-26.085	-0.000030
-26.080	-0.000017
-26.075	-0.000024
-26.070	-0.000037
-26.065	-0.000044
-26.060	-0.000023
-26.055	-0.000030
-26.050	0.000017
-26.045	-0.000017
-26.040	-0.000017
-26.035	-0.000017
-26.030	0.000003
-26.025	-0.000017
-26.020	0.000003
-26.015	-0.000011
-26.010	-0.000011
-26.005	-0.000024
-26.000	-0.000011
-25.995	-0.000037
-25.990	-0.000031
-25.985	0.000003
-25.980	0.000009
-25.975	0.000010
-25.970	-0.000018
-25.965	0.000023
-25.960	0.000016
-25.955	-0.000024
-25.950	0.000010
-25.945	-0.000004
-25.940	-0.000038
-25.935	-0.000011
-25.930	-0.000045
-25.925	-0.000024
-25.920	-0.000011
-25.915	-0.000011
-25.910	0.000030
-25.905	0.000009
-25.900	-0.000004
-25.895	0.000002
-25.890	0.000009
-25.885	-0.000011
-25.880	-0.000032
-25.875	-0.000011
-25.870	-0.000039
-25.865	0.000009
-25.860	0.000016
-25.855	-0.000018
-25.850	-0.000018
-25.845	-0.000012
-25.840	-0.000005
-25.835	0.000009
-25.830	0.000029
-25.825	-0.000012
-25.820	-0.000032
-25.815	-0.000018
-25.810	-0.000039
-25.805	-0.000005
-25.800	-0.000012
-25.795	-0.000025
-25.790	-0.000059
-25.785	-0.000005
-25.780	-0.000012
-25.775	0.000009
-25.770	-0.000005
-25.765	0.000008
-25.760	-0.000019
-25.755	-0.000012
-25.750	-0.000012
-25.745	0.000001
-25.740	-0.000005
-25.735	0.000001
-25.730	-0.000012
-25.725	0.000015
-25.720	-0.000012
-25.715	-0.000005
-25.710	-0.000019
-25.705	0.000001
-25.700	0.000008
-25.695	-0.000019
-25.690	0.000001
-25.685	-0.000005
-25.680	-0.000019
-25.675	-0.000026
-25.670	0.000008
-25.665	-0.000033
-25.660	0.000022
-25.655	-0.000012
-25.650	-0.000019
-25.645	-0.000033
-25.640	0.000015
-25.635	-0.000033
-25.630	-0.000006
-25.625	-0.000026
-25.620	-0.000006
-25.615	-0.000026
-25.610	-0.000047
-25.605	-0.000013
-25.600	-0.000020
-25.595	0.000008
-25.590	0.000008
-25.585	0.000001
-25.580	-0.000013
-25.575	-0.000013
-25.570	0.000021
-25.565	0.000001
-25.560	0.000014
-25.555	0.000021
-25.550	-0.000047
-25.545	0.000001
-25.540	0.000001
-25.535	-0.000033
-25.530	-0.000012
-25.525	-0.000040
-25.520	0.000001
-25.515	-0.000027
-25.510	0.000001
-25.505	-0.000006
-25.500	0.000007
-25.495	0.000000
-25.490	-0.000006
-25.485	-0.000013
-25.480	-0.000013
-25.475	-0.000020
-25.470	-0.000013
-25.465	-0.000027
-25.460	-0.000006
-25.455	0.000014
-25.450	-0.000013
-25.445	0.000014
-25.440	0.000007
-25.435	0.000000
-25.430	-0.000006
-25.425	-0.000006
-25.420	-0.000006
-25.415	-0.000027
-25.410	0.000027
-25.405	-0.000041
-25.400	-0.000006
-25.395	-0.000013
-25.390	0.000021
-25.385	-0.000013
-25.380	-0.000013
-25.375	0.000007
-25.370	0.000000
-25.365	0.000014
-25.360	0.000034
-25.355	-0.000027
-25.350	0.000013
-25.345	-0.000000
-25.340	-0.000021
-25.335	-0.000028
-25.330	-0.000027
-25.325	0.000000
-25.320	0.000020
-25.315	0.000006
-25.310	0.000013
-25.305	-0.000007
-25.300	-0.000007
-25.295	-0.000007
-25.290	-0.000014
-25.285	0.000020
-25.280	0.000020
-25.275	-0.000000
-25.270	-0.000034
-25.265	-0.000007
-25.260	-0.000007
-25.255	-0.000027
-25.250	-0.000014
-25.245	-0.000007
-25.240	-0.000001
-25.235	0.000013
-25.230	0.000033
-25.225	0.000013
-25.220	-0.000007
-25.215	-0.000014
-25.210	-0.000001
-25.205	0.000006
-25.200	-0.000014
-25.195	-0.000027
-25.190	0.000027
-25.185	-0.000001
-25.180	0.000033
-25.175	0.000013
-25.170	-0.000001
-25.165	0.000026
-25.160	0.000040
-25.155	0.000013
-25.150	0.000006
-25.145	-0.000021
-25.140	-0.000014
-25.135	-0.000028
-25.130	0.000027
-25.125	-0.000014
-25.120	-0.000001
-25.115	0.000012
-25.110	0.000006
-25.105	0.000046
-25.100	0.000026
-25.095	0.000026
-25.090	0.000026
-25.085	-0.000001
-25.080	0.000006
-25.075	0.000012
-25.070	0.000005
-25.065	0.000006
-25.060	0.000020
-25.055	0.000026
-25.050	0.000039
-25.045	0.000026
-25.040	0.000019
-25.035	0.000026
-25.030	0.000012
-25.025	-0.000001
-25.020	0.000019
-25.015	-0.000001
-25.010	0.000012
-25.005	0.000026
-25.000	0.000005
-24.995	-0.000021
-24.990	0.000019
-24.985	-0.000001
-24.980	0.000012
-24.975	0.000005
-24.970	0.000033
-24.965	0.000019
-24.960	0.000026
-24.955	0.000039
-24.950	0.000039
-24.945	-0.000002
-24.940	0.000005
-24.935	-0.000002
-24.930	-0.000008
-24.925	-0.000028
-24.920	-0.000001
-24.915	0.000032
-24.910	0.000019
-24.905	0.000039
-24.900	0.000033
-24.895	0.000039
-24.890	0.000026
-24.885	0.000019
-24.880	0.000005
-24.875	-0.000015
-24.870	0.000026
-24.865	0.000046
-24.860	0.000040
-24.855	0.000026
-24.850	0.000032
-24.845	0.000039
-24.840	0.000039
-24.835	0.000032
-24.830	0.000039
-24.825	0.000032
-24.820	0.000018
-24.815	0.000046
-24.810	0.000005
-24.805	0.000025
-24.800	0.000039
-24.795	0.000005
-24.790	0.000039
-24.785	0.000039
-24.780	0.000025
-24.775	-0.000009
-24.770	0.000026
-24.765	0.000025
-24.760	0.000053
-24.755	0.000039
-24.750	0.000019
-24.745	0.000032
-24.740	0.000012
-24.735	0.000032
-24.730	0.000046
-24.725	0.000032
-24.720	0.000053
-24.715	0.000025
-24.710	0.000046
-24.705	0.000059
-24.700	0.000066
-24.695	0.000032
-24.690	0.000039
-24.685	0.000025
-24.680	0.000032
-24.675	0.000038
-24.670	0.000039
-24.665	0.000066
-24.660	0.000032
-24.655	0.000032
-24.650	0.000059
-24.645	0.000059
-24.640	0.000052
-24.635	0.000045
-24.630	0.000046
-24.625	0.000052
-24.620	0.000045
-24.615	0.000018
-24.610	0.000032
-24.605	0.000059
-24.600	0.000032
-24.595	0.000032
-24.590	0.000039
-24.585	0.000038
-24.580	0.000059
-24.575	0.000045
-24.570	0.000072
-24.565	0.000072
-24.560	0.000038
-24.555	0.000052
-24.550	0.000018
-24.545	0.000072
-24.540	0.000031
-24.535	0.000031
-24.530	0.000039
-24.525	0.000045
-24.520	0.000045
-24.515	0.000038
-24.510	0.000093
-24.505	0.000065
-24.500	0.000086
-24.495	0.000038
-24.490	0.000052
-24.485	0.000052
-24.480	0.000045
-24.475	0.000045
-24.470	0.000065
-24.465	0.000032
-24.460	0.000052
-24.455	0.000038
-24.450	0.000079
-24.445	0.000072
-24.440	0.000038
-24.435	0.000052
-24.430	0.000065
-24.425	0.000072
-24.420	0.000038
-24.415	0.000065
-24.410	0.000051
-24.405	0.000058
-24.400	0.000065
-24.395	0.000072
-24.390	0.000065
-24.385	0.000065
-24.380	0.000085
-24.375	0.000085
-24.370	0.000065
-24.365	0.000072
-24.360	0.000085
-24.355	0.000051
-24.350	0.000058
-24.345	0.000058
-24.340	0.000045
-24.335	0.000058
-24.330	0.000045
-24.325	0.000079
-24.320	0.000052
-24.315	0.000085
-24.310	0.000072
-24.305	0.000078
-24.300	0.000058
-24.295	0.000065
-24.290	0.000051
-24.285	0.000058
-24.280	0.000065
-24.275	0.000071
-24.270	0.000058
-24.265	0.000051
-24.260	0.000051
-24.255	0.000058
-24.250	0.000058
-24.245	0.000085
-24.240	0.000092
-24.235	0.000065
-24.230	0.000099
-24.225	0.000058
-24.220	0.000064
-24.215	0.000057
-24.210	0.000037
-24.205	0.000098
-24.200	0.000071
-24.195	0.000051
-24.190	0.000058
-24.185	0.000051
-24.180	0.000085
-24.175	0.000058
-24.170	0.000085
-24.165	0.000071
-24.160	0.000105
-24.155	0.000084
-24.150	0.000071
-24.145	0.000077
-24.140	0.000070
-24.135	0.000057
-24.130	0.000078
-24.125	0.000071
-24.120	0.000064
-24.115	0.000071
-24.110	0.000077
-24.105	0.000071
-24.100	0.000091
-24.095	0.000091
-24.090	0.000064
-24.085	0.000030
-24.080	0.000064
-24.075	0.000050
-24.070	0.000057
-24.065	0.000057
-24.060	0.000078
-24.055	0.000078
-24.050	0.000084
-24.045	0.000057
-24.040	0.000084
-24.035	0.000084
-24.030	0.000098
-24.025	0.000077
-24.020	0.000057
-24.015	0.000077
-24.010	0.000043
-24.005	0.000070
-24.000	0.000070
-23.995	0.000057
-23.990	0.000084
-23.985	0.000070
-23.980	0.000050
-23.975	0.000104
-23.970	0.000091
-23.965	0.000063
-23.960	0.000084
-23.955	0.000070
-23.950	0.000070
-23.945	0.000063
-23.940	0.000036
-23.935	0.000049
-23.930	0.000077
-23.925	0.000097
-23.920	0.000077
-23.915	0.000063
-23.910	0.000083
-23.905	0.000083
-23.900	0.000063
-23.895	0.000083
-23.890	0.000062
-23.885	0.000056
-23.880	0.000056
-23.875	0.000049
-23.870	0.000076
-23.865	0.000029
-23.860	0.000104
-23.855	0.000062
-23.850	0.000089
-23.845	0.000076
-23.840	0.000062
-23.835	0.000062
-23.830	0.000056
-23.825	0.000062
-23.820	0.000062
-23.815	0.000062
-23.810	0.000035
-23.805	0.000048
-23.800	0.000083
-23.795	0.000056
-23.790	0.000056
-23.785	0.000062
-23.780	0.000082
-23.775	0.000076
-23.770	0.000082
-23.765	0.000082
-23.760	0.000082
-23.755	0.000062
-23.750	0.000055
-23.745	0.000048
-23.740	0.000048
-23.735	0.000062
-23.730	0.000049
-23.725	0.000028
-23.720	0.000021
-23.715	0.000048
-23.710	0.000082
-23.705	0.000062
-23.700	0.000089
-23.695	0.000089
-23.690	0.000082
-23.685	0.000082
-23.680	0.000068
-23.675	0.000068
-23.670	0.000041
-23.665	0.000069
-23.660	0.000062
-23.655	0.000089
-23.650	0.000075
-23.645	0.000061
-23.640	0.000075
-23.635	0.000061
-23.630	0.000089
-23.625	0.000041
-23.620	0.000068
-23.615	0.000075
-23.610	0.000054
-23.605	0.000047
-23.600	0.000075
-23.595	0.000055
-23.590	0.000055
-23.585	0.000088
-23.580	0.000075
-23.575	0.000081
-23.570	0.000061
-23.565	0.000047
-23.560	0.000061
-23.555	0.000054
-23.550	0.000054
-23.545	0.000040
-23.540	0.000047
-23.535	0.000020
-23.530	0.000041
-23.525	0.000027
-23.520	0.000040
-23.515	0.000040
-23.510	0.000060
-23.505	0.000040
-23.500	0.000054
-23.495	0.000054
-23.490	0.000026
-23.485	0.000026
-23.480	0.000006
-23.475	0.000019
-23.470	0.000040
-23.465	0.000027
-23.460	0.000034
-23.455	0.000026
-23.450	0.000040
-23.445	0.000060
-23.440	0.000040
-23.435	0.000060
-23.430	0.000081
-23.425	0.000033
-23.420	0.000087
-23.415	0.000040
-23.410	0.000033
-23.405	0.000026
-23.400	0.000019
-23.395	0.000033
-23.390	0.000067
-23.385	0.000019
-23.380	0.000073
-23.375	0.000039
-23.370	0.000019
-23.365	0.000046
-23.360	0.000039
-23.355	0.000046
-23.350	0.000046
-23.345	0.000025
-23.340	0.000046
-23.335	0.000018
-23.330	0.000067
-23.325	0.000066
-23.320	0.000025
-23.315	0.000052
-23.310	0.000039
-23.305	0.000052
-23.300	0.000053
-23.295	0.000066
-23.290	0.000039
-23.285	0.000059
-23.280	0.000032
-23.275	0.000052
-23.270	0.000012
-23.265	0.000025
-23.260	0.000039
-23.255	0.000052
-23.250	0.000038
-23.245	0.000039
-23.240	0.000045
-23.235	0.000052
-23.230	0.000045
-23.225	0.000038
-23.220	0.000038
-23.215	0.000018
-23.210	0.000025
-23.205	0.000031
-23.200	0.000052
-23.195	0.000025
-23.190	0.000039
-23.185	0.000045
-23.180	0.000045
-23.175	0.000052
-23.170	0.000038
-23.165	0.000052
-23.160	0.000025
-23.155	0.000024
-23.150	0.000065
-23.145	0.000038
-23.140	0.000045
-23.135	0.000031
-23.130	0.000065
-23.125	0.000065
-23.120	0.000058
-23.115	0.000051
-23.110	0.000058
-23.105	0.000065
-23.100	0.000058
-23.095	0.000051
-23.090	0.000010
-23.085	0.000031
-23.080	0.000037
-23.075	0.000031
-23.070	0.000031
-23.065	0.000045
-23.060	0.000038
-23.055	0.000038
-23.050	0.000044
-23.045	0.000044
-23.040	0.000065
-23.035	0.000078
-23.030	0.000024
-23.025	0.000017
-23.020	0.000058
-23.015	0.000024
-23.010	0.000037
-23.005	0.000010
-23.000	0.000031
-22.995	0.000051
-22.990	0.000058
-22.985	0.000044
-22.980	0.000051
-22.975	0.000064
-22.970	0.000051
-22.965	0.000044
-22.960	0.000057
-22.955	0.000030
-22.950	0.000037
-22.945	0.000023
-22.940	0.000044
-22.935	0.000023
-22.930	0.000031
-22.925	0.000030
-22.920	0.000023
-22.915	0.000057
-22.910	0.000044
-22.905	0.000064
-22.900	0.000057
-22.895	0.000010
-22.890	0.000044
-22.885	0.000037
-22.880	0.000037
-22.875	0.000009
-22.870	0.000043
-22.865	0.000024
-22.860	0.000010
-22.855	0.000044
-22.850	0.000057
-22.845	0.000037
-22.840	0.000043
-22.835	0.000016
-22.830	0.000050
-22.825	0.000043
-22.820	0.000077
-22.815	0.000022
-22.810	0.000023
-22.805	0.000016
-22.800	0.000057
-22.795	0.000016
-22.790	0.000016
-22.785	0.000056
-22.780	0.000050
-22.775	0.000029
-22.770	0.000036
-22.765	0.000036
-22.760	0.000057
-22.755	0.000036
-22.750	0.000023
-22.745	0.000036
-22.740	0.000050
-22.735	0.000016
-22.730	0.000030
-22.725	-0.000004
-22.720	0.000016
-22.715	0.000036
-22.710	0.000043
-22.705	0.000070
-22.700	0.000056
-22.695	0.000049
-22.690	0.000002
-22.685	0.000042
-22.680	0.000042
-22.675	0.000015
-22.670	0.000049
-22.665	0.000029
-22.660	0.000036
-22.655	0.000002
-22.650	0.000022
-22.645	0.000015
-22.640	0.000029
-22.635	0.000036
-22.630	0.000015
-22.625	0.000036
-22.620	0.000022
-22.615	-0.000005
-22.610	0.000001
-22.605	0.000029
-22.600	-0.000012
-22.595	0.000022
-22.590	0.000022
-22.585	0.000022
-22.580	0.000015
-22.575	0.000035
-22.570	0.000028
-22.565	0.000035
-22.560	0.000042
-22.555	0.000055
-22.550	0.000001
-22.545	0.000055
-22.540	0.000035
-22.535	-0.000013
-22.530	0.000022
-22.525	0.000015
-22.520	0.000055
-22.515	0.000021
-22.510	0.000021
-22.505	0.000042
-22.500	0.000028
-22.495	0.000015
-22.490	0.000028
-22.485	0.000021
-22.480	-0.000006
-22.475	0.000021
-22.470	0.000008
-22.465	0.000015
-22.460	0.000022
-22.455	0.000001
-22.450	0.000028
-22.445	0.000034
-22.440	0.000028
-22.435	0.000041
-22.430	0.000048
-22.425	0.000007
-22.420	0.000021
-22.415	0.000014
-22.410	0.000027
-22.405	0.000028
-22.400	0.000007
-22.395	0.000021
-22.390	0.000035
-22.385	0.000034
-22.380	0.000021
-22.375	0.000014
-22.370	0.000028
-22.365	0.000007
-22.360	-0.000006
-22.355	0.000000
-22.350	0.000007
-22.345	-0.000013
-22.340	0.000027
-22.335	0.000034
-22.330	0.000001
-22.325	0.000028
-22.320	0.000034
-22.315	-0.000014
-22.310	0.000034
-22.305	0.000041
-22.300	0.000034
-22.295	0.000014
-22.290	0.000013
-22.285	0.000054
-22.280	0.000007
-22.275	-0.000021
-22.270	-0.000000
-22.265	0.000007
-22.260	0.000000
-22.255	0.000014
-22.250	0.000013
-22.245	0.000007
-22.240	0.000034
-22.235	0.000027
-22.230	0.000027
-22.225	0.000020
-22.220	-0.000000
-22.215	-0.000007
-22.210	-0.000000
-22.205	-0.000014
-22.200	-0.000020
-22.195	0.000007
-22.190	0.000020
-22.185	0.000020
-22.180	0.000020
-22.175	0.000033
-22.170	0.000020
-22.165	-0.000001
-22.160	0.000006
-22.155	0.000013
-22.150	0.000006
-22.145	-0.000008
-22.140	-0.000007
-22.135	-0.000021
-22.130	0.000013
-22.125	-0.000000
-22.120	0.000013
-22.115	0.000033
-22.110	0.000040
-22.105	0.000020
-22.100	0.000033
-22.095	0.000026
-22.090	0.000020
-22.085	0.000006
-22.080	-0.000028
-22.075	0.000019
-22.070	-0.000042
-22.065	-0.000001
-22.060	0.000013
-22.055	0.000033
-22.050	-0.000021
-22.045	0.000006
-22.040	0.000019
-22.035	0.000026
-22.030	-0.000021
-22.025	-0.000021
-22.020	0.000019
-22.015	0.000006
-22.010	-0.000001
-22.005	-0.000001
-22.000	-0.000001
-21.995	-0.000014
-21.990	0.000019
-21.985	0.000019
-21.980	0.000026
-21.975	0.000019
-21.970	-0.000035
-21.965	0.000006
-21.960	-0.000015
-21.955	0.000005
-21.950	-0.000022
-21.945	-0.000029
-21.940	-0.000029
-21.935	0.000019
-21.930	-0.000028
-21.925	-0.000021
-21.920	0.000019
-21.915	0.000019
-21.910	0.000019
-21.905	0.000005
-21.900	0.000039
-21.895	-0.000008
-21.890	0.000025
-21.885	-0.000002
-21.880	0.000005
-21.875	-0.000009
-21.870	0.000039
-21.865	-0.000008
-21.860	-0.000015
-21.855	-0.000015
-21.850	-0.000016
-21.845	0.000018
-21.840	-0.000022
-21.835	0.000025
-21.830	-0.000015
-21.825	-0.000022
-21.820	-0.000009
-21.815	0.000018
-21.810	0.000005
-21.805	-0.000009
-21.800	0.000019
-21.795	-0.000022
-21.790	0.000005
-21.785	-0.000002
-21.780	0.000005
-21.775	0.000005
-21.770	0.000025
-21.765	-0.000009
-21.760	-0.000002
-21.755	0.000018
-21.750	-0.000016
-21.745	0.000011
-21.740	0.000032
-21.735	0.000005
-21.730	-0.000008
-21.725	0.000005
-21.720	-0.000023
-21.715	0.000038
-21.710	0.000011
-21.705	0.000005
-21.700	0.000038
-21.695	0.000025
-21.690	0.000018
-21.685	0.000004
-21.680	-0.000002
-21.675	0.000004
-21.670	-0.000009
-21.665	0.000005
-21.660	0.000012
-21.655	0.000032
-21.650	0.000025
-21.645	0.000004
-21.640	0.000011
-21.635	0.000011
-21.630	0.000004
-21.625	0.000024
-21.620	-0.000023
-21.615	0.000024
-21.610	0.000011
-21.605	-0.000010
-21.600	0.000025
-21.595	0.000025
-21.590	0.000018
-21.585	0.000010
-21.580	0.000024
-21.575	0.000018
-21.570	0.000045
-21.565	0.000024
-21.560	0.000052
-21.555	0.000038
-21.550	0.000011
-21.545	0.000024
-21.540	-0.000017
-21.535	-0.000003
-21.530	0.000004
-21.525	0.000004
-21.520	0.000031
-21.515	0.000031
-21.510	0.000038
-21.505	0.000004
-21.500	0.000024
-21.495	0.000038
-21.490	0.000017
-21.485	0.000044
-21.480	0.000024
-21.475	-0.000024
-21.470	0.000024
-21.465	0.000065
-21.460	0.000045
-21.455	0.000085
-21.450	0.000106
-21.445	0.000154
-21.440	0.000263
-21.435	0.000373
-21.430	0.000585
-21.425	0.000921
-21.420	0.001292
-21.415	0.001844
-21.410	0.002614
-21.405	0.003632
-21.400	0.004839
-21.395	0.006293
-21.390	0.008006
-21.385	0.010055
-21.380	0.012411
-21.375	0.015171
-21.370	0.018164
-21.365	0.021416
-21.360	0.024887
-21.355	0.028498
-21.350	0.032168
-21.345	0.035802
-21.340	0.039474
-21.335	0.043213
-21.330	0.046733
-21.325	0.049894
-21.320	0.050785
-21.315	0.049771
-21.310	0.048953
-21.305	0.047477
-21.300	0.045508
-21.295	0.044586
-21.290	0.043758
-21.285	0.042815
-21.280	0.042111
-21.275	0.041717
-21.270	0.040524
-21.265	0.039133
-21.260	0.038227
-21.255	0.037296
-21.250	0.036435
-21.245	0.036021
-21.240	0.035287
-21.235	0.034391
-21.230	0.034200
-21.225	0.033591
-21.220	0.033000
-21.215	0.032486
-21.210	0.031994
-21.205	0.031585
-21.200	0.031224
-21.195	0.030974
-21.190	0.030720
-21.185	0.030614
-21.180	0.030166
-21.175	0.029322
-21.170	0.028736
-21.165	0.028523
-21.160	0.028288
-21.155	0.027773
-21.150	0.027348
-21.145	0.027201
-21.140	0.027197
-21.135	0.027439
-21.130	0.027398
-21.125	0.026508
-21.120	0.025861
-21.115	0.025712
-21.110	0.025571
-21.105	0.025328
-21.100	0.025115
-21.095	0.024984
-21.090	0.024755
-21.085	0.024425
-21.080	0.024143
-21.075	0.023966
-21.070	0.023785
-21.065	0.023553
-21.060	0.023253
-21.055	0.023050
-21.050	0.022840
-21.045	0.022746
-21.040	0.022667
-21.035	0.022496
-21.030	0.022324
-21.025	0.022143
-21.020	0.022038
-21.015	0.021907
-21.010	0.021761
-21.005	0.021711
-21.000	0.021628
-20.995	0.021550
-20.990	0.021383
-20.985	0.021186
-20.980	0.020986
-20.975	0.020818
-20.970	0.020715
-20.965	0.020604
-20.960	0.020454
-20.955	0.020303
-20.950	0.020184
-20.945	0.020068
-20.940	0.019943
-20.935	0.019845
-20.930	0.019722
-20.925	0.019625
-20.920	0.019482
-20.915	0.019377
-20.910	0.019294
-20.905	0.019161
-20.900	0.019076
-20.895	0.018999
-20.890	0.018850
-20.885	0.018749
-20.880	0.018651
-20.875	0.018564
-20.870	0.018525
-20.865	0.018441
-20.860	0.018374
-20.855	0.018315
-20.850	0.018195
-20.845	0.018075
-20.840	0.017946
-20.835	0.017850
-20.830	0.017724
-20.825	0.017631
-20.820	0.017536
-20.815	0.017481
-20.810	0.017351
-20.805	0.017263
-20.800	0.017209
-20.795	0.017170
-20.790	0.017096
-20.785	0.017030
-20.780	0.016986
-20.775	0.016915
-20.770	0.016886
-20.765	0.016759
-20.760	0.016681
-20.755	0.016641
-20.750	0.016495
-20.745	0.016397
-20.740	0.016349
-20.735	0.016292
-20.730	0.016234
-20.725	0.016135
-20.720	0.016108
-20.715	0.016042
-20.710	0.016012
-20.705	0.015899
-20.700	0.015821
-20.695	0.015752
-20.690	0.015684
-20.685	0.015638
-20.680	0.015610
-20.675	0.015523
-20.670	0.015451
-20.665	0.015430
-20.660	0.015410
-20.655	0.015319
-20.650	0.015293
-20.645	0.015233
-20.640	0.015177
-20.635	0.015095
-20.630	0.015053
-20.625	0.015003
-20.620	0.014947
-20.615	0.014926
-20.610	0.014833
-20.605	0.014799
-20.600	0.014754
-20.595	0.014733
-20.590	0.014675
-20.585	0.014603
-20.580	0.014573
-20.575	0.014567
-20.570	0.014485
-20.565	0.014434
-20.560	0.014359
-20.555	0.014310
-20.550	0.014266
-20.545	0.014208
-20.540	0.014159
-20.535	0.014114
-20.530	0.014083
-20.525	0.014035
-20.520	0.014001
-20.515	0.013971
-20.510	0.013947
-20.505	0.013879
-20.500	0.013837
-20.495	0.013800
-20.490	0.013806
-20.485	0.013713
-20.480	0.013715
-20.475	0.013689
-20.470	0.013666
-20.465	0.013633
-20.460	0.013569
-20.455	0.013547
-20.450	0.013508
-20.445	0.013428
-20.440	0.013420
-20.435	0.013361
-20.430	0.013280
-20.425	0.013248
-20.420	0.013197
-20.415	0.013206
-20.410	0.013148
-20.405	0.013079
-20.400	0.013074
-20.395	0.013059
-20.390	0.012977
-20.385	0.012979
-20.380	0.012948
-20.375	0.012919
-20.370	0.012869
-20.365	0.012846
-20.360	0.012815
-20.355	0.012757
-20.350	0.012760
-20.345	0.012706
-20.340	0.012658
-20.335	0.012634
-20.330	0.012617
-20.325	0.012566
-20.320	0.012524
-20.315	0.012504
-20.310	0.012431
-20.305	0.012428
-20.300	0.012389
-20.295	0.012344
-20.290	0.012327
-20.285	0.012275
-20.280	0.012260
-20.275	0.012225
-20.270	0.012184
-20.265	0.012120
-20.260	0.012139
-20.255	0.012098
-20.250	0.012101
-20.245	0.012082
-20.240	0.012040
-20.235	0.012036
-20.230	0.012018
-20.225	0.012004
-20.220	0.011919
-20.215	0.011921
-20.210	0.011860
-20.205	0.011866
-20.200	0.011851
-20.195	0.011805
-20.190	0.011793
-20.185	0.011760
-20.180	0.011780
-20.175	0.011743
-20.170	0.011659
-20.165	0.011672
-20.160	0.011644
-20.155	0.011593
-20.150	0.011572
-20.145	0.011557
-20.140	0.011513
-20.135	0.011481
-20.130	0.011472
-20.125	0.011432
-20.120	0.011411
-20.115	0.011388
-20.110	0.011379
-20.105	0.011332
-20.100	0.011316
-20.095	0.011271
-20.090	0.011227
-20.085	0.011217
-20.080	0.011202
-20.075	0.011180
-20.070	0.011118
-20.065	0.011115
-20.060	0.011093
-20.055	0.011097
-20.050	0.011055
-20.045	0.011034
-20.040	0.011025
-20.035	0.010977
-20.030	0.010983
-20.025	0.010949
-20.020	0.010927
-20.015	0.010879
-20.010	0.010886
-20.005	0.010873
-20.000	0.010843
-19.995	0.010785
-19.990	0.010782
-19.985	0.010784
-19.980	0.010738
-19.975	0.010723
-19.970	0.010687
-19.965	0.010694
-19.960	0.010667
-19.955	0.010660
-19.950	0.010629
-19.945	0.010622
-19.940	0.010573
-19.935	0.010570
-19.930	0.010543
-19.925	0.010529
-19.920	0.010514
-19.915	0.010486
-19.910	0.010484
-19.905	0.010446
-19.900	0.010497
-19.895	0.010442
-19.890	0.010415
-19.885	0.010366
-19.880	0.010356
-19.875	0.010323
-19.870	0.010312
-19.865	0.010331
-19.860	0.010303
-19.855	0.010265
-19.850	0.010269
-19.845	0.010252
-19.840	0.010234
-19.835	0.010201
-19.830	0.010153
-19.825	0.010150
-19.820	0.010156
-19.815	0.010093
-19.810	0.010074
-19.805	0.010031
-19.800	0.010055
-19.795	0.010039
-19.790	0.010016
-19.785	0.009998
-19.780	0.009964
-19.775	0.009950
-19.770	0.009908
-19.765	0.009913
-19.760	0.009878
-19.755	0.009838
-19.750	0.009823
-19.745	0.009831
-19.740	0.009789
-19.735	0.009772
-19.730	0.009785
-19.725	0.009706
-19.720	0.009718
-19.715	0.009699
-19.710	0.009692
-19.705	0.009643
-19.700	0.009630
-19.695	0.009581
-19.690	0.009582
-19.685	0.009611
-19.680	0.009563
-19.675	0.009514
-19.670	0.009528
-19.665	0.009508
-19.660	0.009465
-19.655	0.009483
-19.650	0.009462
-19.645	0.009428
-19.640	0.009403
-19.635	0.009408
-19.630	0.009387
-19.625	0.009374
-19.620	0.009320
-19.615	0.009307
-19.610	0.009291
-19.605	0.009283
-19.600	0.009325
-19.595	0.009330
-19.590	0.009270
-19.585	0.009274
-19.580	0.009245
-19.575	0.009262
-19.570	0.009271
-19.565	0.009240
-19.560	0.009243
-19.555	0.009202
-19.550	0.009183
-19.545	0.009181
-19.540	0.009158
-19.535	0.009186
-19.530	0.009137
-19.525	0.009105
-19.520	0.009116
-19.515	0.009102
-19.510	0.009092
-19.505	0.009123
-19.500	0.009093
-19.495	0.009076
-19.490	0.009054
-19.485	0.009038
-19.480	0.009017
-19.475	0.009025
-19.470	0.008986
-19.465	0.009003
-19.460	0.009023
-19.455	0.008958
-19.450	0.008953
-19.445	0.008955
-19.440	0.008928
-19.435	0.008936
-19.430	0.008903
-19.425	0.008902
-19.420	0.008877
-19.415	0.008851
-19.410	0.008804
-19.405	0.008840
-19.400	0.008817
-19.395	0.008802
-19.390	0.008786
-19.385	0.008785
-19.380	0.008764
-19.375	0.008752
-19.370	0.008753
-19.365	0.008742
-19.360	0.008701
-19.355	0.008721
-19.350	0.008678
-19.345	0.008668
-19.340	0.008688
-19.335	0.008629
-19.330	0.008638
-19.325	0.008641
-19.320	0.008644
-19.315	0.008606
-19.310	0.008612
-19.305	0.008625
-19.300	0.008617
-19.295	0.008573
-19.290	0.008563
-19.285	0.008558
-19.280	0.008534
-19.275	0.008543
-19.270	0.008520
-19.265	0.008493
-19.260	0.008504
-19.255	0.008512
-19.250	0.008490
-19.245	0.008489
-19.240	0.008495
-19.235	0.008458
-19.230	0.008435
-19.225	0.008398
-19.220	0.008412
-19.215	0.008383
-19.210	0.008384
-19.205	0.008355
-19.200	0.008346
-19.195	0.008360
-19.190	0.008339
-19.185	0.008352
-19.180	0.008325
-19.175	0.008346
-19.170	0.008321
-19.165	0.008321
-19.160	0.008301
-19.155	0.008267
-19.150	0.008263
-19.145	0.008262
-19.140	0.008258
-19.135	0.008221
-19.130	0.008234
-19.125	0.008212
-19.120	0.008221
-19.115	0.008236
-19.110	0.008215
-19.105	0.008211
-19.100	0.008212
-19.095	0.008195
-19.090	0.008194
-19.085	0.008165
-19.080	0.008150
-19.075	0.008149
-19.070	0.008124
-19.065	0.008098
-19.060	0.008119
-19.055	0.008117
-19.050	0.008102
-19.045	0.008109
-19.040	0.008082
-19.035	0.008062
-19.030	0.008047
-19.025	0.008046
-19.020	0.008018
-19.015	0.007996
-19.010	0.008002
-19.005	0.008003
-19.000	0.007953
-18.995	0.007989
-18.990	0.007960
-18.985	0.007945
-18.980	0.007946
-18.975	0.007946
-18.970	0.007897
-18.965	0.007883
-18.960	0.007882
-18.955	0.007834
-18.950	0.007861
-18.945	0.007811
-18.940	0.007805
-18.935	0.007793
-18.930	0.007794
-18.925	0.007806
-18.920	0.007786
-18.915	0.007758
-18.910	0.007740
-18.905	0.007725
-18.900	0.007732
-18.895	0.007697
-18.890	0.007719
-18.885	0.007699
-18.880	0.007700
-18.875	0.007651
-18.870	0.007647
-18.865	0.007668
-18.860	0.007647
-18.855	0.007649
-18.850	0.007647
-18.845	0.007626
-18.840	0.007592
-18.835	0.007600
-18.830	0.007586
-18.825	0.007564
-18.820	0.007556
-18.815	0.007522
-18.810	0.007543
-18.805	0.007536
-18.800	0.007537
-18.795	0.007519
-18.790	0.007481
-18.785	0.007522
-18.780	0.007486
-18.775	0.007462
-18.770	0.007515
-18.765	0.007512
-18.760	0.007490
-18.755	0.007469
-18.750	0.007467
-18.745	0.007437
-18.740	0.007463
-18.735	0.007417
-18.730	0.007472
-18.725	0.007381
-18.720	0.007414
-18.715	0.007400
-18.710	0.007413
-18.705	0.007398
-18.700	0.007396
-18.695	0.007395
-18.690	0.007367
-18.685	0.007331
-18.680	0.007323
-18.675	0.007317
-18.670	0.007305
-18.665	0.007292
-18.660	0.007290
-18.655	0.007300
-18.650	0.007307
-18.645	0.007300
-18.640	0.007252
-18.635	0.007286
-18.630	0.007272
-18.625	0.007241
-18.620	0.007228
-18.615	0.007213
-18.610	0.007213
-18.605	0.007220
-18.600	0.007202
-18.595	0.007172
-18.590	0.007204
-18.585	0.007183
-18.580	0.007211
-18.575	0.007149
-18.570	0.007184
-18.565	0.007184
-18.560	0.007148
-18.555	0.007140
-18.550	0.007125
-18.545	0.007126
-18.540	0.007133
-18.535	0.007102
-18.530	0.007081
-18.525	0.007121
-18.520	0.007106
-18.515	0.007114
-18.510	0.007087
-18.505	0.007073
-18.500	0.007093
-18.495	0.007066
-18.490	0.007060
-18.485	0.007032
-18.480	0.007032
-18.475	0.007011
-18.470	0.007020
-18.465	0.006994
-18.460	0.007034
-18.455	0.007004
-18.450	0.007024
-18.445	0.006995
-18.440	0.006981
-18.435	0.007002
-18.430	0.006995
-18.425	0.006972
-18.420	0.006924
-18.415	0.006917
-18.410	0.006917
-18.405	0.006918
-18.400	0.006923
-18.395	0.006920
-18.390	0.006911
-18.385	0.006944
-18.380	0.006898
-18.375	0.006898
-18.370	0.006879
-18.365	0.006891
-18.360	0.006884
-18.355	0.006876
-18.350	0.006870
-18.345	0.006820
-18.340	0.006814
-18.335	0.006844
-18.330	0.006824
-18.325	0.006801
-18.320	0.006799
-18.315	0.006811
-18.310	0.006839
-18.305	0.006811
-18.300	0.006756
-18.295	0.006784
-18.290	0.006749
-18.285	0.006734
-18.280	0.006701
-18.275	0.006728
-18.270	0.006758
-18.265	0.006724
-18.260	0.006729
-18.255	0.006679
-18.250	0.006693
-18.245	0.006694
-18.240	0.006675
-18.235	0.006676
-18.230	0.006669
-18.225	0.006683
-18.220	0.006635
-18.215	0.006684
-18.210	0.006650
-18.205	0.006645
-18.200	0.006636
-18.195	0.006622
-18.190	0.006614
-18.185	0.006606
-18.180	0.006627
-18.175	0.006587
-18.170	0.006596
-18.165	0.006568
-18.160	0.006561
-18.155	0.006583
-18.150	0.006590
-18.145	0.006577
-18.140	0.006550
-18.135	0.006531
-18.130	0.006532
-18.125	0.006557
-18.120	0.006565
-18.115	0.006560
-18.110	0.006569
-18.105	0.006557
-18.100	0.006572
-18.095	0.006530
-18.090	0.006538
-18.085	0.006502
-18.080	0.006529
-18.075	0.006509
-18.070	0.006470
-18.065	0.006548
-18.060	0.006533
-18.055	0.006517
-18.050	0.006494
-18.045	0.006522
-18.040	0.006486
-18.035	0.006478
-18.030	0.006491
-18.025	0.006441
-18.020	0.006428
-18.015	0.006433
-18.010	0.006419
-18.005	0.006385
-18.000	0.006428
-17.995	0.006426
-17.990	0.006395
-17.985	0.006415
-17.980	0.006415
-17.975	0.006401
-17.970	0.006394
-17.965	0.006392
-17.960	0.006400
-17.955	0.006337
-17.950	0.006363
-17.945	0.006362
-17.940	0.006335
-17.935	0.006337
-17.930	0.006329
-17.925	0.006321
-17.920	0.006334
-17.915	0.006341
-17.910	0.006334
-17.905	0.006313
-17.900	0.006292
-17.895	0.006305
-17.890	0.006305
-17.885	0.006270
-17.880	0.006290
-17.875	0.006256
-17.870	0.006266
-17.865	0.006294
-17.860	0.006265
-17.855	0.006235
-17.850	0.006262
-17.845	0.006284
-17.840	0.006269
-17.835	0.006248
-17.830	0.006255
-17.825	0.006229
-17.820	0.006222
-17.815	0.006206
-17.810	0.006151
-17.805	0.006222
-17.800	0.006203
-17.795	0.006236
-17.790	0.006198
-17.785	0.006197
-17.780	0.006196
-17.775	0.006189
-17.770	0.006196
-17.765	0.006174
-17.760	0.006182
-17.755	0.006138
-17.750	0.006131
-17.745	0.006123
-17.740	0.006117
-17.735	0.006091
-17.730	0.006098
-17.725	0.006130
-17.720	0.006109
-17.715	0.006109
-17.710	0.006103
-17.705	0.006109
-17.700	0.006096
-17.695	0.006066
-17.690	0.006066
-17.685	0.006038
-17.680	0.006073
-17.675	0.006031
-17.670	0.006032
-17.665	0.006020
-17.660	0.006039
-17.655	0.006024
-17.650	0.005997
-17.645	0.006045
-17.640	0.006018
-17.635	0.006017
-17.630	0.005998
-17.625	0.005983
-17.620	0.005971
-17.615	0.005950
-17.610	0.005950
-17.605	0.005965
-17.600	0.005946
-17.595	0.005973
-17.590	0.005945
-17.585	0.005945
-17.580	0.005904
-17.575	0.005945
-17.570	0.005910
-17.565	0.005918
-17.560	0.005910
-17.555	0.005888
-17.550	0.005896
-17.545	0.005881
-17.540	0.005902
-17.535	0.005890
-17.530	0.005890
-17.525	0.005881
-17.520	0.005859
-17.515	0.005846
-17.510	0.005860
-17.505	0.005868
-17.500	0.005852
-17.495	0.005837
-17.490	0.005878
-17.485	0.005795
-17.480	0.005830
-17.475	0.005794
-17.470	0.005810
-17.465	0.005795
-17.460	0.005779
-17.455	0.005792
-17.450	0.005758
-17.445	0.005786
-17.440	0.005786
-17.435	0.005793
-17.430	0.005751
-17.425	0.005764
-17.420	0.005765
-17.415	0.005737
-17.410	0.005752
-17.405	0.005731
-17.400	0.005733
-17.395	0.005718
-17.390	0.005757
-17.385	0.005749
-17.380	0.005722
-17.375	0.005749
-17.370	0.005721
-17.365	0.005721
-17.360	0.005691
-17.355	0.005691
-17.350	0.005676
-17.345	0.005677
-17.340	0.005698
-17.335	0.005678
-17.330	0.005651
-17.325	0.005724
-17.320	0.005668
-17.315	0.005675
-17.310	0.005676
-17.305	0.005655
-17.300	0.005662
-17.295	0.005620
-17.290	0.005627
-17.285	0.005633
-17.280	0.005625
-17.275	0.005562
-17.270	0.005648
-17.265	0.005622
-17.260	0.005607
-17.255	0.005605
-17.250	0.005557
-17.245	0.005619
-17.240	0.005598
-17.235	0.005577
-17.230	0.005577
-17.225	0.005576
-17.220	0.005569
-17.215	0.005589
-17.210	0.005542
-17.205	0.005516
-17.200	0.005531
-17.195	0.005531
-17.190	0.005523
-17.185	0.005551
-17.180	0.005545
-17.175	0.005539
-17.170	0.005532
-17.165	0.005511
-17.160	0.005517
-17.155	0.005483
-17.150	0.005517
-17.145	0.005523
-17.140	0.005490
-17.135	0.005498
-17.130	0.005478
-17.125	0.005483
-17.120	0.005489
-17.115	0.005488
-17.110	0.005468
-17.105	0.005495
-17.100	0.005453
-17.095	0.005459
-17.090	0.005445
-17.085	0.005452
-17.080	0.005458
-17.075	0.005438
-17.070	0.005448
-17.065	0.005454
-17.060	0.005460
-17.055	0.005438
-17.050	0.005444
-17.045	0.005465
-17.040	0.005452
-17.035	0.005444
-17.030	0.005429
-17.025	0.005428
-17.020	0.005409
-17.015	0.005387
-17.010	0.005382
-17.005	0.005390
-17.000	0.005398
-16.995	0.005404
-16.990	0.005361
-16.985	0.005382
-16.980	0.005388
-16.975	0.005369
-16.970	0.005347
-16.965	0.005375
-16.960	0.005368
-16.955	0.005319
-16.950	0.005333
-16.945	0.005361
-16.940	0.005313
-16.935	0.005309
-16.930	0.005315
-16.925	0.005313
-16.920	0.005368
-16.915	0.005299
-16.910	0.005307
-16.905	0.005307
-16.900	0.005328
-16.895	0.005314
-16.890	0.005265
-16.885	0.005294
-16.880	0.005273
-16.875	0.005286
-16.870	0.005316
-16.865	0.005263
-16.860	0.005269
-16.855	0.005288
-16.850	0.005282
-16.845	0.005283
-16.840	0.005283
-16.835	0.005284
-16.830	0.005264
-16.825	0.005264
-16.820	0.005237
-16.815	0.005271
-16.810	0.005258
-16.805	0.005232
-16.800	0.005232
-16.795	0.005224
-16.790	0.005243
-16.785	0.005217
-16.780	0.005225
-16.775	0.005224
-16.770	0.005211
-16.765	0.005197
-16.760	0.005210
-16.755	0.005189
-16.750	0.005203
-16.745	0.005195
-16.740	0.005154
-16.735	0.005184
-16.730	0.005164
-16.725	0.005183
-16.720	0.005168
-16.715	0.005182
-16.710	0.005163
-16.705	0.005121
-16.700	0.005128
-16.695	0.005107
-16.690	0.005153
-16.685	0.005139
-16.680	0.005126
-16.675	0.005105
-16.670	0.005115
-16.665	0.005094
-16.660	0.005093
-16.655	0.005085
-16.650	0.005093
-16.645	0.005094
-16.640	0.005122
-16.635	0.005073
-16.630	0.005115
-16.625	0.005066
-16.620	0.005060
-16.615	0.005053
-16.610	0.005046
-16.605	0.005027
-16.600	0.005049
-16.595	0.005055
-16.590	0.005019
-16.585	0.005026
-16.580	0.005026
-16.575	0.005033
-16.570	0.005033
-16.565	0.005005
-16.560	0.005039
-16.555	0.005011
-16.550	0.004977
-16.545	0.004984
-16.540	0.005020
-16.535	0.004966
-16.530	0.004965
-16.525	0.004998
-16.520	0.004992
-16.515	0.005019
-16.510	0.004972
-16.505	0.004985
-16.500	0.004965
-16.495	0.004957
-16.490	0.004951
-16.485	0.004949
-16.480	0.004963
-16.475	0.004948
-16.470	0.004923
-16.465	0.004935
-16.460	0.004955
-16.455	0.004919
-16.450	0.004940
-16.445	0.004967
-16.440	0.004947
-16.435	0.004926
-16.430	0.004932
-16.425	0.004917
-16.420	0.004897
-16.415	0.004889
-16.410	0.004910
-16.405	0.004869
-16.400	0.004912
-16.395	0.004889
-16.390	0.004868
-16.385	0.004881
-16.380	0.004854
-16.375	0.004869
-16.370	0.004869
-16.365	0.004889
-16.360	0.004882
-16.355	0.004874
-16.350	0.004860
-16.345	0.004838
-16.340	0.004832
-16.335	0.004855
-16.330	0.004840
-16.325	0.004831
-16.320	0.004859
-16.315	0.004831
-16.310	0.004852
-16.305	0.004831
-16.300	0.004838
-16.295	0.004797
-16.290	0.004811
-16.285	0.004830
-16.280	0.004837
-16.275	0.004810
-16.270	0.004784
-16.265	0.004804
-16.260	0.004810
-16.255	0.004797
-16.250	0.004776
-16.245	0.004818
-16.240	0.004784
-16.235	0.004784
-16.230	0.004792
-16.225	0.004744
-16.220	0.004758
-16.215	0.004744
-16.210	0.004757
-16.205	0.004745
-16.200	0.004754
-16.195	0.004738
-16.190	0.004737
-16.185	0.004744
-16.180	0.004759
-16.175	0.004745
-16.170	0.004753
-16.165	0.004760
-16.160	0.004713
-16.155	0.004740
-16.150	0.004713
-16.145	0.004714
-16.140	0.004721
-16.135	0.004730
-16.130	0.004731
-16.125	0.004688
-16.120	0.004724
-16.115	0.004711
-16.110	0.004691
-16.105	0.004684
-16.100	0.004733
-16.095	0.004699
-16.090	0.004685
-16.085	0.004671
-16.080	0.004663
-16.075	0.004664
-16.070	0.004666
-16.065	0.004658
-16.060	0.004658
-16.055	0.004670
-16.050	0.004662
-16.045	0.004690
-16.040	0.004669
-16.035	0.004682
-16.030	0.004696
-16.025	0.004669
-16.020	0.004676
-16.015	0.004613
-16.010	0.004642
-16.005	0.004636
-16.000	0.004602
-15.995	0.004635
-15.990	0.004634
-15.985	0.004613
-15.980	0.004613
-15.975	0.004605
-15.970	0.004653
-15.965	0.004632
-15.960	0.004570
-15.955	0.004611
-15.950	0.004624
-15.945	0.004560
-15.940	0.004603
-15.935	0.004576
-15.930	0.004603
-15.925	0.004600
-15.920	0.004586
-15.915	0.004543
-15.910	0.004599
-15.905	0.004578
-15.900	0.004557
-15.895	0.004549
-15.890	0.004549
-15.885	0.004569
-15.880	0.004534
-15.875	0.004535
-15.870	0.004508
-15.865	0.004535
-15.860	0.004512
-15.855	0.004560
-15.850	0.004519
-15.845	0.004518
-15.840	0.004525
-15.835	0.004504
-15.830	0.004503
-15.825	0.004530
-15.820	0.004537
-15.815	0.004509
-15.810	0.004488
-15.805	0.004496
-15.800	0.004510
-15.795	0.004481
-15.790	0.004487
-15.785	0.004494
-15.780	0.004522
-15.775	0.004480
-15.770	0.004480
-15.765	0.004493
-15.760	0.004473
-15.755	0.004444
-15.750	0.004458
-15.745	0.004458
-15.740	0.004446
-15.735	0.004433
-15.730	0.004460
-15.725	0.004437
-15.720	0.004466
-15.715	0.004431
-15.710	0.004446
-15.705	0.004474
-15.700	0.004439
-15.695	0.004432
-15.690	0.004391
-15.685	0.004425
-15.680	0.004412
-15.675	0.004412
-15.670	0.004393
-15.665	0.004421
-15.660	0.004385
-15.655	0.004391
-15.650	0.004412
-15.645	0.004411
-15.640	0.004399
-15.635	0.004378
-15.630	0.004378
-15.625	0.004385
-15.620	0.004371
-15.615	0.004357
-15.610	0.004351
-15.605	0.004381
-15.600	0.004361
-15.595	0.004373
-15.590	0.004359
-15.585	0.004408
-15.580	0.004367
-15.575	0.004359
-15.570	0.004352
-15.565	0.004352
-15.560	0.004359
-15.555	0.004338
-15.550	0.004345
-15.545	0.004345
-15.540	0.004312
-15.535	0.004313
-15.530	0.004340
-15.525	0.004324
-15.520	0.004372
-15.515	0.004351
-15.510	0.004289
-15.505	0.004317
-15.500	0.004324
-15.495	0.004317
-15.490	0.004311
-15.485	0.004331
-15.480	0.004290
-15.475	0.004283
-15.470	0.004306
-15.465	0.004278
-15.460	0.004291
-15.455	0.004296
-15.450	0.004283
-15.445	0.004296
-15.440	0.004249
-15.435	0.004262
-15.430	0.004254
-15.425	0.004261
-15.420	0.004262
-15.415	0.004241
-15.410	0.004248
-15.405	0.004235
-15.400	0.004250
-15.395	0.004242
-15.390	0.004254
-15.385	0.004233
-15.380	0.004254
-15.375	0.004246
-15.370	0.004246
-15.365	0.004224
-15.360	0.004239
-15.355	0.004190
-15.350	0.004231
-15.345	0.004232
-15.340	0.004212
-15.335	0.004241
-15.330	0.004205
-15.325	0.004211
-15.320	0.004184
-15.315	0.004211
-15.310	0.004192
-15.305	0.004191
-15.300	0.004192
-15.295	0.004177
-15.290	0.004184
-15.285	0.004135
-15.280	0.004191
-15.275	0.004157
-15.270	0.004167
-15.265	0.004146
-15.260	0.004173
-15.255	0.004166
-15.250	0.004173
-15.245	0.004132
-15.240	0.004154
-15.235	0.004112
-15.230	0.004118
-15.225	0.004125
-15.220	0.004125
-15.215	0.004105
-15.210	0.004105
-15.205	0.004123
-15.200	0.004124
-15.195	0.004157
-15.190	0.004130
-15.185	0.004111
-15.180	0.004112
-15.175	0.004113
-15.170	0.004107
-15.165	0.004115
-15.160	0.004122
-15.155	0.004088
-15.150	0.004090
-15.145	0.004063
-15.140	0.004093
-15.135	0.004081
-15.130	0.004088
-15.125	0.004065
-15.120	0.004080
-15.115	0.004073
-15.110	0.004081
-15.105	0.004060
-15.100	0.004067
-15.095	0.004087
-15.090	0.004081
-15.085	0.004053
-15.080	0.004060
-15.075	0.004046
-15.070	0.004027
-15.065	0.004074
-15.060	0.004101
-15.055	0.004080
-15.050	0.004075
-15.045	0.004109
-15.040	0.004074
-15.035	0.004074
-15.030	0.004060
-15.025	0.004060
-15.020	0.004026
-15.015	0.004066
-15.010	0.004045
-15.005	0.004040
-15.000	0.004046
-14.995	0.004045
-14.990	0.004036
-14.985	0.004042
-14.980	0.004048
-14.975	0.004102
-14.970	0.004019
-14.965	0.004011
-14.960	0.004037
-14.955	0.004016
-14.950	0.004022
-14.945	0.004027
-14.940	0.004015
-14.935	0.004022
-14.930	0.004042
-14.925	0.004019
-14.920	0.004019
-14.915	0.004012
-14.910	0.004033
-14.905	0.004010
-14.900	0.003996
-14.895	0.003982
-14.890	0.004002
-14.885	0.004015
-14.880	0.003980
-14.875	0.003966
-14.870	0.003968
-14.865	0.003987
-14.860	0.003986
-14.855	0.003985
-14.850	0.003964
-14.845	0.003978
-14.840	0.003964
-14.835	0.003942
-14.830	0.003928
-14.825	0.003955
-14.820	0.003941
-14.815	0.003933
-14.810	0.003934
-14.805	0.003922
-14.800	0.003936
-14.795	0.003934
-14.790	0.003920
-14.785	0.003934
-14.780	0.003900
-14.775	0.003935
-14.770	0.003928
-14.765	0.003914
-14.760	0.003907
-14.755	0.003886
-14.750	0.003907
-14.745	0.003900
-14.740	0.003901
-14.735	0.003923
-14.730	0.003916
-14.725	0.003915
-14.720	0.003887
-14.715	0.003894
-14.710	0.003915
-14.705	0.003908
-14.700	0.003894
-14.695	0.003880
-14.690	0.003865
-14.685	0.003872
-14.680	0.003852
-14.675	0.003867
-14.670	0.003849
-14.665	0.003868
-14.660	0.003860
-14.655	0.003859
-14.650	0.003874
-14.645	0.003819
-14.640	0.003874
-14.635	0.003833
-14.630	0.003840
-14.625	0.003833
-14.620	0.003805
-14.615	0.003846
-14.610	0.003831
-14.605	0.003820
-14.600	0.003840
-14.595	0.003832
-14.590	0.003825
-14.585	0.003831
-14.580	0.003831
-14.575	0.003816
-14.570	0.003830
-14.565	0.003822
-14.560	0.003788
-14.555	0.003794
-14.550	0.003808
-14.545	0.003780
-14.540	0.003803
-14.535	0.003823
-14.530	0.003787
-14.525	0.003793
-14.520	0.003780
-14.515	0.003774
-14.510	0.003780
-14.505	0.003822
-14.500	0.003835
-14.495	0.003773
-14.490	0.003759
-14.485	0.003772
-14.480	0.003778
-14.475	0.003744
-14.470	0.003780
-14.465	0.003738
-14.460	0.003764
-14.455	0.003785
-14.450	0.003784
-14.445	0.003749
-14.440	0.003777
-14.435	0.003749
-14.430	0.003728
-14.425	0.003755
-14.420	0.003741
-14.415	0.003726
-14.410	0.003733
-14.405	0.003715
-14.400	0.003750
-14.395	0.003734
-14.390	0.003719
-14.385	0.003733
-14.380	0.003713
-14.375	0.003747
-14.370	0.003706
-14.365	0.003712
-14.360	0.003713
-14.355	0.003698
-14.350	0.003678
-14.345	0.003664
-14.340	0.003679
-14.335	0.003680
-14.330	0.003692
-14.325	0.003711
-14.320	0.003684
-14.315	0.003712
-14.310	0.003691
-14.305	0.003711
-14.300	0.003690
-14.295	0.003697
-14.290	0.003696
-14.285	0.003676
-14.280	0.003690
-14.275	0.003663
-14.270	0.003685
-14.265	0.003657
-14.260	0.003655
-14.255	0.003676
-14.250	0.003649
-14.245	0.003649
-14.240	0.003677
-14.235	0.003677
-14.230	0.003636
-14.225	0.003649
-14.220	0.003629
-14.215	0.003662
-14.210	0.003608
-14.205	0.003610
-14.200	0.003624
-14.195	0.003643
-14.190	0.003628
-14.185	0.003635
-14.180	0.003622
-14.175	0.003621
-14.170	0.003628
-14.165	0.003607
-14.160	0.003600
-14.155	0.003607
-14.150	0.003565
-14.145	0.003607
-14.140	0.003595
-14.135	0.003581
-14.130	0.003587
-14.125	0.003613
-14.120	0.003566
-14.115	0.003600
-14.110	0.003573
-14.105	0.003586
-14.100	0.003621
-14.095	0.003607
-14.090	0.003558
-14.085	0.003551
-14.080	0.003592
-14.075	0.003572
-14.070	0.003566
-14.065	0.003539
-14.060	0.003551
-14.055	0.003544
-14.050	0.003565
-14.045	0.003558
-14.040	0.003537
-14.035	0.003543
-14.030	0.003536
-14.025	0.003550
-14.020	0.003501
-14.015	0.003535
-14.010	0.003536
-14.005	0.003544
-14.000	0.003510
-13.995	0.003515
-13.990	0.003557
-13.985	0.003529
-13.980	0.003544
-13.975	0.003516
-13.970	0.003523
-13.965	0.003509
-13.960	0.003509
-13.955	0.003508
-13.950	0.003508
-13.945	0.003501
-13.940	0.003489
-13.935	0.003510
-13.930	0.003496
-13.925	0.003508
-13.920	0.003488
-13.915	0.003508
-13.910	0.003502
-13.905	0.003474
-13.900	0.003481
-13.895	0.003494
-13.890	0.003480
-13.885	0.003474
-13.880	0.003494
-13.875	0.003468
-13.870	0.003456
-13.865	0.003454
-13.860	0.003495
-13.855	0.003474
-13.850	0.003487
-13.845	0.003481
-13.840	0.003474
-13.835	0.003460
-13.830	0.003480
-13.825	0.003439
-13.820	0.003452
-13.815	0.003445
-13.810	0.003452
-13.805	0.003454
-13.800	0.003440
-13.795	0.003459
-13.790	0.003465
-13.785	0.003410
-13.780	0.003431
-13.775	0.003451
-13.770	0.003451
-13.765	0.003416
-13.760	0.003443
-13.755	0.003436
-13.750	0.003436
-13.745	0.003436
-13.740	0.003397
-13.735	0.003417
-13.730	0.003396
-13.725	0.003415
-13.720	0.003443
-13.715	0.003436
-13.710	0.003464
-13.705	0.003443
-13.700	0.003457
-13.695	0.003415
-13.690	0.003409
-13.685	0.003381
-13.680	0.003408
-13.675	0.003401
-13.670	0.003388
-13.665	0.003422
-13.660	0.003414
-13.655	0.003428
-13.650	0.003414
-13.645	0.003400
-13.640	0.003379
-13.635	0.003393
-13.630	0.003366
-13.625	0.003373
-13.620	0.003366
-13.615	0.003372
-13.610	0.003339
-13.605	0.003327
-13.600	0.003354
-13.595	0.003353
-13.590	0.003367
-13.585	0.003333
-13.580	0.003361
-13.575	0.003354
-13.570	0.003347
-13.565	0.003347
-13.560	0.003320
-13.555	0.003348
-13.550	0.003327
-13.545	0.003313
-13.540	0.003342
-13.535	0.003329
-13.530	0.003315
-13.525	0.003341
-13.520	0.003342
-13.515	0.003314
-13.510	0.003322
-13.505	0.003322
-13.500	0.003294
-13.495	0.003281
-13.490	0.003336
-13.485	0.003315
-13.480	0.003309
-13.475	0.003303
-13.470	0.003264
-13.465	0.003290
-13.460	0.003317
-13.455	0.003318
-13.450	0.003312
-13.445	0.003312
-13.440	0.003333
-13.435	0.003292
-13.430	0.003279
-13.425	0.003265
-13.420	0.003265
-13.415	0.003266
-13.410	0.003293
-13.405	0.003261
-13.400	0.003296
-13.395	0.003266
-13.390	0.003266
-13.385	0.003273
-13.380	0.003293
-13.375	0.003279
-13.370	0.003273
-13.365	0.003252
-13.360	0.003272
-13.355	0.003244
-13.350	0.003245
-13.345	0.003272
-13.340	0.003260
-13.335	0.003246
-13.330	0.003245
-13.325	0.003265
-13.320	0.003252
-13.315	0.003251
-13.310	0.003244
-13.305	0.003258
-13.300	0.003237
-13.295	0.003243
-13.290	0.003250
-13.285	0.003236
-13.280	0.003236
-13.275	0.003223
-13.270	0.003238
-13.265	0.003257
-13.260	0.003256
-13.255	0.003228
-13.250	0.003242
-13.245	0.003249
-13.240	0.003235
-13.235	0.003235
-13.230	0.003221
-13.225	0.003193
-13.220	0.003206
-13.215	0.003206
-13.210	0.003199
-13.205	0.003235
-13.200	0.003255
-13.195	0.003220
-13.190	0.003233
-13.185	0.003212
-13.180	0.003206
-13.175	0.003226
-13.170	0.003240
-13.165	0.003199
-13.160	0.003205
-13.155	0.003191
-13.150	0.003212
-13.145	0.003156
-13.140	0.003171
-13.135	0.003164
-13.130	0.003177
-13.125	0.003176
-13.120	0.003204
-13.115	0.003176
-13.110	0.003197
-13.105	0.003142
-13.100	0.003148
-13.095	0.003175
-13.090	0.003127
-13.085	0.003141
-13.080	0.003141
-13.075	0.003122
-13.070	0.003137
-13.065	0.003122
-13.060	0.003100
-13.055	0.003155
-13.050	0.003156
-13.045	0.003129
-13.040	0.003128
-13.035	0.003121
-13.030	0.003129
-13.025	0.003135
-13.020	0.003149
-13.015	0.003101
-13.010	0.003088
-13.005	0.003109
-13.000	0.003144
-12.995	0.003080
-12.990	0.003142
-12.985	0.003087
-12.980	0.003136
-12.975	0.003115
-12.970	0.003108
-12.965	0.003101
-12.960	0.003067
-12.955	0.003108
-12.950	0.003087
-12.945	0.003080
-12.940	0.003089
-12.935	0.003061
-12.930	0.003054
-12.925	0.003067
-12.920	0.003088
-12.915	0.003081
-12.910	0.003115
-12.905	0.003081
-12.900	0.003088
-12.895	0.003074
-12.890	0.003047
-12.885	0.003053
-12.880	0.003047
-12.875	0.003061
-12.870	0.003069
-12.865	0.003089
-12.860	0.003074
-12.855	0.003108
-12.850	0.003053
-12.845	0.003052
-12.840	0.003073
-12.835	0.003058
-12.830	0.003031
-12.825	0.003024
-12.820	0.003044
-12.815	0.003072
-12.810	0.003058
-12.805	0.003053
-12.800	0.003052
-12.795	0.003043
-12.790	0.003016
-12.785	0.003085
-12.780	0.003037
-12.775	0.003057
-12.770	0.003030
-12.765	0.003023
-12.760	0.003016
-12.755	0.003043
-12.750	0.003008
-12.745	0.003008
-12.740	0.003017
-12.735	0.003031
-12.730	0.003023
-12.725	0.003022
-12.720	0.003008
-12.715	0.003023
-12.710	0.003036
-12.705	0.003022
-12.700	0.003008
-12.695	0.003001
-12.690	0.003008
-12.685	0.003001
-12.680	0.002980
-12.675	0.002961
-12.670	0.002995
-12.665	0.002973
-12.660	0.002993
-12.655	0.002973
-12.650	0.003007
-12.645	0.003000
-12.640	0.003000
-12.635	0.002993
-12.630	0.002958
-12.625	0.002958
-12.620	0.002951
-12.615	0.002931
-12.610	0.002972
-12.605	0.002960
-12.600	0.002960
-12.595	0.002972
-12.590	0.002980
-12.585	0.002979
-12.580	0.002965
-12.575	0.002972
-12.570	0.002964
-12.565	0.002971
-12.560	0.002964
-12.555	0.002895
-12.550	0.002958
-12.545	0.002957
-12.540	0.002939
-12.535	0.002952
-12.530	0.002937
-12.525	0.002943
-12.520	0.002971
-12.515	0.002958
-12.510	0.002923
-12.505	0.002930
-12.500	0.002930
-12.495	0.002971
-12.490	0.002937
-12.485	0.002902
-12.480	0.002922
-12.475	0.002923
-12.470	0.002945
-12.465	0.002931
-12.460	0.002936
-12.455	0.002916
-12.450	0.002909
-12.445	0.002930
-12.440	0.002915
-12.435	0.002929
-12.430	0.002881
-12.425	0.002908
-12.420	0.002873
-12.415	0.002887
-12.410	0.002909
-12.405	0.002896
-12.400	0.002895
-12.395	0.002914
-12.390	0.002888
-12.385	0.002922
-12.380	0.002908
-12.375	0.002894
-12.370	0.002894
-12.365	0.002880
-12.360	0.002880
-12.355	0.002880
-12.350	0.002866
-12.345	0.002873
-12.340	0.002875
-12.335	0.002847
-12.330	0.002880
-12.325	0.002879
-12.320	0.002866
-12.315	0.002859
-12.310	0.002879
-12.305	0.002879
-12.300	0.002844
-12.295	0.002884
-12.290	0.002857
-12.285	0.002857
-12.280	0.002858
-12.275	0.002844
-12.270	0.002838
-12.265	0.002858
-12.260	0.002864
-12.255	0.002843
-12.250	0.002864
-12.245	0.002823
-12.240	0.002830
-12.235	0.002781
-12.230	0.002815
-12.225	0.002823
-12.220	0.002788
-12.215	0.002836
-12.210	0.002802
-12.205	0.002803
-12.200	0.002830
-12.195	0.002828
-12.190	0.002849
-12.185	0.002808
-12.180	0.002814
-12.175	0.002821
-12.170	0.002814
-12.165	0.002821
-12.160	0.002800
-12.155	0.002833
-12.150	0.002806
-12.145	0.002772
-12.140	0.002794
-12.135	0.002794
-12.130	0.002820
-12.125	0.002826
-12.120	0.002793
-12.115	0.002806
-12.110	0.002813
-12.105	0.002806
-12.100	0.002778
-12.095	0.002778
-12.090	0.002778
-12.085	0.002778
-12.080	0.002784
-12.075	0.002765
-12.070	0.002772
-12.065	0.002750
-12.060	0.002770
-12.055	0.002797
-12.050	0.002777
-12.045	0.002797
-12.040	0.002776
-12.035	0.002769
-12.030	0.002776
-12.025	0.002748
-12.020	0.002728
-12.015	0.002735
-12.010	0.002715
-12.005	0.002756
-12.000	0.002749
-11.995	0.002748
-11.990	0.002748
-11.985	0.002762
-11.980	0.002763
-11.975	0.002735
-11.970	0.002721
-11.965	0.002734
-11.960	0.002727
-11.955	0.002748
-11.950	0.002693
-11.945	0.002734
-11.940	0.002709
-11.935	0.002743
-11.930	0.002742
-11.925	0.002733
-11.920	0.002748
-11.915	0.002748
-11.910	0.002748
-11.905	0.002713
-11.900	0.002706
-11.895	0.002726
-11.890	0.002712
-11.885	0.002706
-11.880	0.002699
-11.875	0.002700
-11.870	0.002700
-11.865	0.002720
-11.860	0.002698
-11.855	0.002712
-11.850	0.002692
-11.845	0.002706
-11.840	0.002685
-11.835	0.002685
-11.830	0.002740
-11.825	0.002692
-11.820	0.002685
-11.815	0.002670
-11.810	0.002679
-11.805	0.002680
-11.800	0.002666
-11.795	0.002699
-11.790	0.002685
-11.785	0.002678
-11.780	0.002692
-11.775	0.002685
-11.770	0.002720
-11.765	0.002657
-11.760	0.002665
-11.755	0.002657
-11.750	0.002664
-11.745	0.002671
-11.740	0.002680
-11.735	0.002652
-11.730	0.002644
-11.725	0.002637
-11.720	0.002630
-11.715	0.002651
-11.710	0.002651
-11.705	0.002672
-11.700	0.002679
-11.695	0.002638
-11.690	0.002645
-11.685	0.002624
-11.680	0.002604
-11.675	0.002597
-11.670	0.002619
-11.665	0.002611
-11.660	0.002638
-11.655	0.002672
-11.650	0.002610
-11.645	0.002631
-11.640	0.002624
-11.635	0.002645
-11.630	0.002631
-11.625	0.002638
-11.620	0.002617
-11.615	0.002651
-11.610	0.002618
-11.605	0.002599
-11.600	0.002618
-11.595	0.002631
-11.590	0.002597
-11.585	0.002631
-11.580	0.002604
-11.575	0.002645
-11.570	0.002618
-11.565	0.002604
-11.560	0.002590
-11.555	0.002610
-11.550	0.002604
-11.545	0.002597
-11.540	0.002572
-11.535	0.002585
-11.530	0.002598
-11.525	0.002577
-11.520	0.002577
-11.515	0.002591
-11.510	0.002605
-11.505	0.002591
-11.500	0.002612
-11.495	0.002577
-11.490	0.002549
-11.485	0.002577
-11.480	0.002577
-11.475	0.002578
-11.470	0.002544
-11.465	0.002598
-11.460	0.002577
-11.455	0.002591
-11.450	0.002598
-11.445	0.002570
-11.440	0.002571
-11.435	0.002591
-11.430	0.002578
-11.425	0.002549
-11.420	0.002563
-11.415	0.002529
-11.410	0.002543
-11.405	0.002551
-11.400	0.002523
-11.395	0.002549
-11.390	0.002577
-11.385	0.002569
-11.380	0.002556
-11.375	0.002569
-11.370	0.002562
-11.365	0.002569
-11.360	0.002555
-11.355	0.002541
-11.350	0.002514
-11.345	0.002500
-11.340	0.002544
-11.335	0.002522
-11.330	0.002542
-11.325	0.002562
-11.320	0.002535
-11.315	0.002549
-11.310	0.002542
-11.305	0.002542
-11.300	0.002507
-11.295	0.002548
-11.290	0.002542
-11.285	0.002521
-11.280	0.002493
-11.275	0.002495
-11.270	0.002481
-11.265	0.002508
-11.260	0.002507
-11.255	0.002528
-11.250	0.002514
-11.245	0.002501
-11.240	0.002529
-11.235	0.002507
-11.230	0.002521
-11.225	0.002520
-11.220	0.002486
-11.215	0.002486
-11.210	0.002494
-11.205	0.002481
-11.200	0.002501
-11.195	0.002486
-11.190	0.002500
-11.185	0.002479
-11.180	0.002466
-11.175	0.002493
-11.170	0.002473
-11.165	0.002466
-11.160	0.002480
-11.155	0.002479
-11.150	0.002445
-11.145	0.002479
-11.140	0.002474
-11.135	0.002453
-11.130	0.002473
-11.125	0.002472
-11.120	0.002466
-11.115	0.002459
-11.110	0.002458
-11.105	0.002458
-11.100	0.002452
-11.095	0.002459
-11.090	0.002431
-11.085	0.002396
-11.080	0.002424
-11.075	0.002425
-11.070	0.002460
-11.065	0.002431
-11.060	0.002438
-11.055	0.002431
-11.050	0.002472
-11.045	0.002424
-11.040	0.002424
-11.035	0.002424
-11.030	0.002403
-11.025	0.002416
-11.020	0.002397
-11.015	0.002430
-11.010	0.002424
-11.005	0.002439
-11.000	0.002418
-10.995	0.002430
-10.990	0.002451
-10.985	0.002423
-10.980	0.002437
-10.975	0.002430
-10.970	0.002396
-10.965	0.002402
-10.960	0.002423
-10.955	0.002402
-10.950	0.002402
-10.945	0.002402
-10.940	0.002404
-10.935	0.002417
-10.930	0.002381
-10.925	0.002415
-10.920	0.002422
-10.915	0.002401
-10.910	0.002408
-10.905	0.002381
-10.900	0.002395
-10.895	0.002367
-10.890	0.002387
-10.885	0.002380
-10.880	0.002380
-10.875	0.002402
-10.870	0.002381
-10.865	0.002360
-10.860	0.002366
-10.855	0.002400
-10.850	0.002386
-10.845	0.002359
-10.840	0.002400
-10.835	0.002359
-10.830	0.002365
-10.825	0.002372
-10.820	0.002392
-10.815	0.002351
-10.810	0.002366
-10.805	0.002380
-10.800	0.002338
-10.795	0.002371
-10.790	0.002379
-10.785	0.002365
-10.780	0.002372
-10.775	0.002351
-10.770	0.002372
-10.765	0.002351
-10.760	0.002351
-10.755	0.002344
-10.750	0.002337
-10.745	0.002344
-10.740	0.002338
-10.735	0.002366
-10.730	0.002323
-10.725	0.002357
-10.720	0.002364
-10.715	0.002378
-10.710	0.002364
-10.705	0.002330
-10.700	0.002350
-10.695	0.002322
-10.690	0.002329
-10.685	0.002343
-10.680	0.002330
-10.675	0.002331
-10.670	0.002331
-10.665	0.002371
-10.660	0.002357
-10.655	0.002337
-10.650	0.002344
-10.645	0.002296
-10.640	0.002337
-10.635	0.002351
-10.630	0.002316
-10.625	0.002344
-10.620	0.002302
-10.615	0.002275
-10.610	0.002303
-10.605	0.002318
-10.600	0.002345
-10.595	0.002330
-10.590	0.002317
-10.585	0.002330
-10.580	0.002317
-10.575	0.002303
-10.570	0.002317
-10.565	0.002289
-10.560	0.002283
-10.555	0.002290
-10.550	0.002290
-10.545	0.002304
-10.540	0.002292
-10.535	0.002298
-10.530	0.002311
-10.525	0.002290
-10.520	0.002269
-10.515	0.002318
-10.510	0.002291
-10.505	0.002311
-10.500	0.002271
-10.495	0.002277
-10.490	0.002263
-10.485	0.002304
-10.480	0.002290
-10.475	0.002271
-10.470	0.002278
-10.465	0.002291
-10.460	0.002297
-10.455	0.002290
-10.450	0.002283
-10.445	0.002276
-10.440	0.002283
-10.435	0.002283
-10.430	0.002262
-10.425	0.002269
-10.420	0.002269
-10.415	0.002289
-10.410	0.002270
-10.405	0.002263
-10.400	0.002276
-10.395	0.002255
-10.390	0.002282
-10.385	0.002283
-10.380	0.002283
-10.375	0.002269
-10.370	0.002242
-10.365	0.002262
-10.360	0.002262
-10.355	0.002276
-10.350	0.002262
-10.345	0.002249
-10.340	0.002284
-10.335	0.002284
-10.330	0.002262
-10.325	0.002282
-10.320	0.002248
-10.315	0.002283
-10.310	0.002269
-10.305	0.002234
-10.300	0.002213
-10.295	0.002226
-10.290	0.002267
-10.285	0.002233
-10.280	0.002220
-10.275	0.002227
-10.270	0.002214
-10.265	0.002247
-10.260	0.002254
-10.255	0.002226
-10.250	0.002233
-10.245	0.002227
-10.240	0.002234
-10.235	0.002226
-10.230	0.002213
-10.225	0.002219
-10.220	0.002199
-10.215	0.002220
-10.210	0.002220
-10.205	0.002193
-10.200	0.002234
-10.195	0.002199
-10.190	0.002226
-10.185	0.002213
-10.180	0.002219
-10.175	0.002205
-10.170	0.002225
-10.165	0.002205
-10.160	0.002239
-10.155	0.002205
-10.150	0.002205
-10.145	0.002185
-10.140	0.002200
-10.135	0.002213
-10.130	0.002212
-10.125	0.002191
-10.120	0.002205
-10.115	0.002226
-10.110	0.002226
-10.105	0.002184
-10.100	0.002198
-10.095	0.002171
-10.090	0.002191
-10.085	0.002170
-10.080	0.002219
-10.075	0.002151
-10.070	0.002206
-10.065	0.002185
-10.060	0.002184
-10.055	0.002205
-10.050	0.002225
-10.045	0.002184
-10.040	0.002198
-10.035	0.002170
-10.030	0.002162
-10.025	0.002169
-10.020	0.002183
-10.015	0.002155
-10.010	0.002164
-10.005	0.002171
-10.000	0.002163
-9.995	0.002142
-9.990	0.002183
-9.985	0.002198
-9.980	0.002170
-9.975	0.002149
-9.970	0.002163
-9.965	0.002177
-9.960	0.002177
-9.955	0.002149
-9.950	0.002156
-9.945	0.002115
-9.940	0.002151
-9.935	0.002143
-9.930	0.002142
-9.925	0.002163
-9.920	0.002163
-9.915	0.002163
-9.910	0.002163
-9.905	0.002149
-9.900	0.002163
-9.895	0.002129
-9.890	0.002121
-9.885	0.002142
-9.880	0.002129
-9.875	0.002137
-9.870	0.002129
-9.865	0.002122
-9.860	0.002143
-9.855	0.002157
-9.850	0.002136
-9.845	0.002101
-9.840	0.002129
-9.835	0.002108
-9.830	0.002088
-9.825	0.002108
-9.820	0.002101
-9.815	0.002108
-9.810	0.002095
-9.805	0.002089
-9.800	0.002116
-9.795	0.002108
-9.790	0.002101
-9.785	0.002149
-9.780	0.002094
-9.775	0.002073
-9.770	0.002087
-9.765	0.002100
-9.760	0.002080
-9.755	0.002086
-9.750	0.002087
-9.745	0.002087
-9.740	0.002081
-9.735	0.002080
-9.730	0.002114
-9.725	0.002093
-9.720	0.002059
-9.715	0.002075
-9.710	0.002069
-9.705	0.002096
-9.700	0.002088
-9.695	0.002081
-9.690	0.002129
-9.685	0.002074
-9.680	0.002053
-9.675	0.002067
-9.670	0.002080
-9.665	0.002060
-9.660	0.002066
-9.655	0.002067
-9.650	0.002067
-9.645	0.002061
-9.640	0.002060
-9.635	0.002094
-9.630	0.002073
-9.625	0.002039
-9.620	0.002087
-9.615	0.002067
-9.610	0.002046
-9.605	0.002040
-9.600	0.002039
-9.595	0.002032
-9.590	0.002039
-9.585	0.002018
-9.580	0.002013
-9.575	0.002033
-9.570	0.002019
-9.565	0.002053
-9.560	0.002038
-9.555	0.001990
-9.550	0.002025
-9.545	0.001997
-9.540	0.001984
-9.535	0.001949
-9.530	0.001969
-9.525	0.001956
-9.520	0.001908
-9.515	0.001826
-9.510	0.001716
-9.505	0.001440
-9.500	0.001006
-9.495	0.000359
-9.490	-0.000577
-9.485	-0.001845
-9.480	-0.003555
-9.475	-0.005688
-9.470	-0.008287
-9.465	-0.011084
-9.460	-0.014274
-9.455	-0.017806
-9.450	-0.021581
-9.445	-0.025814
-9.440	-0.030156
-9.435	-0.034540
-9.430	-0.038874
-9.425	-0.043001
-9.420	-0.046867
-9.415	-0.050464
-9.410	-0.053077
-9.405	-0.053653
-9.400	-0.051863
-9.395	-0.048376
-9.390	-0.044223
-9.385	-0.040179
-9.380	-0.036746
-9.375	-0.033906
-9.370	-0.031697
-9.365	-0.029924
-9.360	-0.028526
-9.355	-0.027308
-9.350	-0.026226
-9.345	-0.025330
-9.340	-0.024471
-9.335	-0.023755
-9.330	-0.023098
-9.325	-0.022489
-9.320	-0.021933
-9.315	-0.021375
-9.310	-0.020852
-9.305	-0.020410
-9.300	-0.019929
-9.295	-0.019470
-9.290	-0.019076
-9.285	-0.018668
-9.280	-0.018340
-9.275	-0.017975
-9.270	-0.017655
-9.265	-0.017343
-9.260	-0.017036
-9.255	-0.016708
-9.250	-0.016407
-9.245	-0.016135
-9.240	-0.015849
-9.235	-0.015606
-9.230	-0.015349
-9.225	-0.015096
-9.220	-0.014875
-9.215	-0.014630
-9.210	-0.014348
-9.205	-0.014112
-9.200	-0.013921
-9.195	-0.013695
-9.190	-0.013540
-9.185	-0.013395
-9.180	-0.013257
-9.175	-0.013053
-9.170	-0.012952
-9.165	-0.012746
-9.160	-0.012611
-9.155	-0.012445
-9.150	-0.012335
-9.145	-0.012148
-9.140	-0.012074
-9.135	-0.011944
-9.130	-0.011798
-9.125	-0.011662
-9.120	-0.011565
-9.115	-0.011473
-9.110	-0.011314
-9.105	-0.011209
-9.100	-0.011117
-9.095	-0.011020
-9.090	-0.010902
-9.085	-0.010805
-9.080	-0.010674
-9.075	-0.010605
-9.070	-0.010494
-9.065	-0.010384
-9.060	-0.010279
-9.055	-0.010193
-9.050	-0.010114
-9.045	-0.010054
-9.040	-0.009953
-9.035	-0.009851
-9.030	-0.009719
-9.025	-0.009685
-9.020	-0.009595
-9.015	-0.009531
-9.010	-0.009453
-9.005	-0.009362
-9.000	-0.009301
-8.995	-0.009207
-8.990	-0.009124
-8.985	-0.009073
-8.980	-0.009012
-8.975	-0.008940
-8.970	-0.008822
-8.965	-0.008786
-8.960	-0.008728
-8.955	-0.008679
-8.950	-0.008621
-8.945	-0.008529
-8.940	-0.008474
-8.935	-0.008413
-8.930	-0.008317
-8.925	-0.008275
-8.920	-0.008090
-8.915	-0.007800
-8.910	-0.007913
-8.905	-0.008080
-8.900	-0.008019
-8.895	-0.007983
-8.890	-0.007907
-8.885	-0.007838
-8.880	-0.007788
-8.875	-0.007748
-8.870	-0.007699
-8.865	-0.007673
-8.860	-0.007609
-8.855	-0.007560
-8.850	-0.007568
-8.845	-0.007494
-8.840	-0.007424
-8.835	-0.007375
-8.830	-0.007341
-8.825	-0.007314
-8.820	-0.007231
-8.815	-0.007203
-8.810	-0.007181
-8.805	-0.007148
-8.800	-0.007087
-8.795	-0.007079
-8.790	-0.007057
-8.785	-0.006982
-8.780	-0.006936
-8.775	-0.006901
-8.770	-0.006879
-8.765	-0.006796
-8.760	-0.006762
-8.755	-0.006720
-8.750	-0.006712
-8.745	-0.006698
-8.740	-0.006642
-8.735	-0.006587
-8.730	-0.006553
-8.725	-0.006547
-8.720	-0.006478
-8.715	-0.006486
-8.710	-0.006445
-8.705	-0.006396
-8.700	-0.006306
-8.695	-0.006267
-8.690	-0.006274
-8.685	-0.006280
-8.680	-0.006216
-8.675	-0.006215
-8.670	-0.006187
-8.665	-0.006146
-8.660	-0.006125
-8.655	-0.006105
-8.650	-0.006085
-8.645	-0.006003
-8.640	-0.005975
-8.635	-0.005919
-8.630	-0.005912
-8.625	-0.005878
-8.620	-0.005849
-8.615	-0.005842
-8.610	-0.005820
-8.605	-0.005786
-8.600	-0.005737
-8.595	-0.005731
-8.590	-0.005703
-8.585	-0.005683
-8.580	-0.005649
-8.575	-0.005620
-8.570	-0.005599
-8.565	-0.005544
-8.560	-0.005517
-8.555	-0.005510
-8.550	-0.005483
-8.545	-0.005449
-8.540	-0.005435
-8.535	-0.005448
-8.530	-0.005393
-8.525	-0.005400
-8.520	-0.005359
-8.515	-0.005318
-8.510	-0.005263
-8.505	-0.005270
-8.500	-0.005221
-8.495	-0.005207
-8.490	-0.005194
-8.485	-0.005207
-8.480	-0.005193
-8.475	-0.005192
-8.470	-0.005158
-8.465	-0.005110
-8.460	-0.005089
-8.455	-0.005076
-8.450	-0.005056
-8.445	-0.005063
-8.440	-0.005000
-8.435	-0.005013
-8.430	-0.004972
-8.425	-0.004924
-8.420	-0.004945
-8.415	-0.004904
-8.410	-0.004903
-8.405	-0.004862
-8.400	-0.004869
-8.395	-0.004848
-8.390	-0.004827
-8.385	-0.004786
-8.380	-0.004767
-8.375	-0.004725
-8.370	-0.004744
-8.365	-0.004710
-8.360	-0.004696
-8.355	-0.004669
-8.350	-0.004662
-8.345	-0.004628
-8.340	-0.004634
-8.335	-0.004614
-8.330	-0.004593
-8.325	-0.004580
-8.320	-0.004545
-8.315	-0.004533
-8.310	-0.004532
-8.305	-0.004505
-8.300	-0.004456
-8.295	-0.004436
-8.290	-0.004443
-8.285	-0.004429
-8.280	-0.004401
-8.275	-0.004408
-8.270	-0.004394
-8.265	-0.004360
-8.260	-0.004346
-8.255	-0.004353
-8.250	-0.004333
-8.245	-0.004293
-8.240	-0.004292
-8.235	-0.004257
-8.230	-0.004230
-8.225	-0.004202
-8.220	-0.004182
-8.215	-0.004188
-8.210	-0.004174
-8.205	-0.004133
-8.200	-0.004161
-8.195	-0.004140
-8.190	-0.004113
-8.185	-0.004114
-8.180	-0.004059
-8.175	-0.004052
-8.170	-0.004051
-8.165	-0.004044
-8.160	-0.004038
-8.155	-0.004025
-8.150	-0.003997
-8.145	-0.003963
-8.140	-0.003950
-8.135	-0.003971
-8.130	-0.003929
-8.125	-0.003936
-8.120	-0.003937
-8.115	-0.003910
-8.110	-0.003903
-8.105	-0.003895
-8.100	-0.003867
-8.095	-0.003833
-8.090	-0.003867
-8.085	-0.003846
-8.080	-0.003825
-8.075	-0.003811
-8.070	-0.003783
-8.065	-0.003797
-8.060	-0.003783
-8.055	-0.003770
-8.050	-0.003729
-8.045	-0.003751
-8.040	-0.003716
-8.035	-0.003729
-8.030	-0.003702
-8.025	-0.003682
-8.020	-0.003654
-8.015	-0.003633
-8.010	-0.003641
-8.005	-0.003634
-8.000	-0.003619
-7.995	-0.003598
-7.990	-0.003619
-7.985	-0.003592
-7.980	-0.003572
-7.975	-0.003571
-7.970	-0.003564
-7.965	-0.003550
-7.960	-0.003536
-7.955	-0.003543
-7.950	-0.003509
-7.945	-0.003516
-7.940	-0.003495
-7.935	-0.003509
-7.930	-0.003502
-7.925	-0.003454
-7.920	-0.003475
-7.915	-0.003435
-7.910	-0.003462
-7.905	-0.003461
-7.900	-0.003447
-7.895	-0.003406
-7.890	-0.003379
-7.885	-0.003359
-7.880	-0.003365
-7.875	-0.003386
-7.870	-0.003400
-7.865	-0.003379
-7.860	-0.003337
-7.855	-0.003351
-7.850	-0.003331
-7.845	-0.003325
-7.840	-0.003331
-7.835	-0.003296
-7.830	-0.003269
-7.825	-0.003283
-7.820	-0.003290
-7.815	-0.003249
-7.810	-0.003242
-7.805	-0.003269
-7.800	-0.003256
-7.795	-0.003256
-7.790	-0.003222
-7.785	-0.003237
-7.780	-0.003223
-7.775	-0.003210
-7.770	-0.003244
-7.765	-0.003209
-7.760	-0.003168
-7.755	-0.003161
-7.750	-0.003133
-7.745	-0.003140
-7.740	-0.003154
-7.735	-0.003167
-7.730	-0.003146
-7.725	-0.003132
-7.720	-0.003104
-7.715	-0.003105
-7.710	-0.003105
-7.705	-0.003070
-7.700	-0.003077
-7.695	-0.003049
-7.690	-0.003049
-7.685	-0.003036
-7.680	-0.003049
-7.675	-0.003035
-7.670	-0.003049
-7.665	-0.003070
-7.660	-0.003022
-7.655	-0.003008
-7.650	-0.003022
-7.645	-0.003002
-7.640	-0.003009
-7.635	-0.003008
-7.630	-0.002981
-7.625	-0.002967
-7.620	-0.002974
-7.615	-0.002933
-7.610	-0.002940
-7.605	-0.002947
-7.600	-0.002947
-7.595	-0.002926
-7.590	-0.002899
-7.585	-0.002927
-7.580	-0.002927
-7.575	-0.002906
-7.570	-0.002906
-7.565	-0.002885
-7.560	-0.002830
-7.555	-0.002844
-7.550	-0.002837
-7.545	-0.002872
-7.540	-0.002851
-7.535	-0.002879
-7.530	-0.002886
-7.525	-0.002858
-7.520	-0.002879
-7.515	-0.002845
-7.510	-0.002817
-7.505	-0.002823
-7.500	-0.002837
-7.495	-0.002830
-7.490	-0.002824
-7.485	-0.002803
-7.480	-0.002796
-7.475	-0.002796
-7.470	-0.002748
-7.465	-0.002775
-7.460	-0.002734
-7.455	-0.002734
-7.450	-0.002714
-7.445	-0.002721
-7.440	-0.002665
-7.435	-0.002658
-7.430	-0.002658
-7.425	-0.002645
-7.420	-0.002610
-7.415	-0.002611
-7.410	-0.002617
-7.405	-0.002625
-7.400	-0.002590
-7.395	-0.002618
-7.390	-0.002577
-7.385	-0.002556
-7.380	-0.002577
-7.375	-0.002549
-7.370	-0.002570
-7.365	-0.002549
-7.360	-0.002535
-7.355	-0.002556
-7.350	-0.002528
-7.345	-0.002535
-7.340	-0.002521
-7.335	-0.002535
-7.330	-0.002549
-7.325	-0.002528
-7.320	-0.002521
-7.315	-0.002501
-7.310	-0.002501
-7.305	-0.002446
-7.300	-0.002459
-7.295	-0.002432
-7.290	-0.002446
-7.285	-0.002425
-7.280	-0.002425
-7.275	-0.002411
-7.270	-0.002398
-7.265	-0.002404
-7.260	-0.002370
-7.255	-0.002391
-7.250	-0.002384
-7.245	-0.002405
-7.240	-0.002384
-7.235	-0.002349
-7.230	-0.002356
-7.225	-0.002391
-7.220	-0.002398
-7.215	-0.002356
-7.210	-0.002370
-7.205	-0.002391
-7.200	-0.002397
-7.195	-0.002377
-7.190	-0.002411
-7.185	-0.002384
-7.180	-0.002405
-7.175	-0.002377
-7.170	-0.002384
-7.165	-0.002398
-7.160	-0.002356
-7.155	-0.002356
-7.150	-0.002363
-7.145	-0.002342
-7.140	-0.002349
-7.135	-0.002322
-7.130	-0.002308
-7.125	-0.002322
-7.120	-0.002301
-7.115	-0.002357
-7.110	-0.002315
-7.105	-0.002301
-7.100	-0.002315
-7.095	-0.002267
-7.090	-0.002274
-7.085	-0.002288
-7.080	-0.002260
-7.075	-0.002267
-7.070	-0.002260
-7.065	-0.002281
-7.060	-0.002232
-7.055	-0.002232
-7.050	-0.002260
-7.045	-0.002240
-7.040	-0.002233
-7.035	-0.002226
-7.030	-0.002198
-7.025	-0.002212
-7.020	-0.002178
-7.015	-0.002185
-7.010	-0.002178
-7.005	-0.002212
-7.000	-0.002185
-6.995	-0.002171
-6.990	-0.002178
-6.985	-0.002171
-6.980	-0.002199
-6.975	-0.002185
-6.970	-0.002164
-6.965	-0.002144
-6.960	-0.002157
-6.955	-0.002158
-6.950	-0.002123
-6.945	-0.002144
-6.940	-0.002130
-6.935	-0.002151
-6.930	-0.002123
-6.925	-0.002144
-6.920	-0.002137
-6.915	-0.002117
-6.910	-0.002144
-6.905	-0.002116
-6.900	-0.002096
-6.895	-0.002116
-6.890	-0.002068
-6.885	-0.002075
-6.880	-0.002103
-6.875	-0.002110
-6.870	-0.002096
-6.865	-0.002116
-6.860	-0.002110
-6.855	-0.002117
-6.850	-0.002110
-6.845	-0.002144
-6.840	-0.002144
-6.835	-0.002137
-6.830	-0.002131
-6.825	-0.002124
-6.820	-0.002096
-6.815	-0.002117
-6.810	-0.002145
-6.805	-0.002138
-6.800	-0.002158
-6.795	-0.002103
-6.790	-0.002172
-6.785	-0.002138
-6.780	-0.002138
-6.775	-0.002117
-6.770	-0.002138
-6.765	-0.002131
-6.760	-0.002049
-6.755	-0.002097
-6.750	-0.002069
-6.745	-0.002083
-6.740	-0.002090
-6.735	-0.002083
-6.730	-0.002069
-6.725	-0.002049
-6.720	-0.002070
-6.715	-0.002015
-6.710	-0.002063
-6.705	-0.002022
-6.700	-0.002015
-6.695	-0.002028
-6.690	-0.001994
-6.685	-0.001994
-6.680	-0.001994
-6.675	-0.002001
-6.670	-0.002015
-6.665	-0.001980
-6.660	-0.002022
-6.655	-0.001987
-6.650	-0.001988
-6.645	-0.001988
-6.640	-0.001960
-6.635	-0.001994
-6.630	-0.001926
-6.625	-0.001926
-6.620	-0.001939
-6.615	-0.001953
-6.610	-0.001953
-6.605	-0.001905
-6.600	-0.001933
-6.595	-0.001940
-6.590	-0.001933
-6.585	-0.001919
-6.580	-0.001912
-6.575	-0.001919
-6.570	-0.001912
-6.565	-0.001919
-6.560	-0.001912
-6.555	-0.001885
-6.550	-0.001892
-6.545	-0.001912
-6.540	-0.001899
-6.535	-0.001899
-6.530	-0.001899
-6.525	-0.001892
-6.520	-0.001858
-6.515	-0.001872
-6.510	-0.001878
-6.505	-0.001851
-6.500	-0.001837
-6.495	-0.001851
-6.490	-0.001837
-6.485	-0.001858
-6.480	-0.001823
-6.475	-0.001830
-6.470	-0.001830
-6.465	-0.001858
-6.460	-0.001858
-6.455	-0.001837
-6.450	-0.001831
-6.445	-0.001824
-6.440	-0.001817
-6.435	-0.001803
-6.430	-0.001796
-6.425	-0.001769
-6.420	-0.001838
-6.415	-0.001789
-6.410	-0.001810
-6.405	-0.001810
-6.400	-0.001762
-6.395	-0.001783
-6.390	-0.001803
-6.385	-0.001797
-6.380	-0.001769
-6.375	-0.001769
-6.370	-0.001762
-6.365	-0.001776
-6.360	-0.001769
-6.355	-0.001748
-6.350	-0.001755
-6.345	-0.001748
-6.340	-0.001728
-6.335	-0.001755
-6.330	-0.001742
-6.325	-0.001742
-6.320	-0.001762
-6.315	-0.001735
-6.310	-0.001735
-6.305	-0.001721
-6.300	-0.001735
-6.295	-0.001721
-6.290	-0.001721
-6.285	-0.001707
-6.280	-0.001742
-6.275	-0.001749
-6.270	-0.001735
-6.265	-0.001701
-6.260	-0.001714
-6.255	-0.001721
-6.250	-0.001708
-6.245	-0.001721
-6.240	-0.001728
-6.235	-0.001701
-6.230	-0.001708
-6.225	-0.001680
-6.220	-0.001708
-6.215	-0.001680
-6.210	-0.001694
-6.205	-0.001673
-6.200	-0.001715
-6.195	-0.001666
-6.190	-0.001708
-6.185	-0.001687
-6.180	-0.001673
-6.175	-0.001667
-6.170	-0.001653
-6.165	-0.001660
-6.160	-0.001653
-6.155	-0.001625
-6.150	-0.001646
-6.145	-0.001646
-6.140	-0.001660
-6.135	-0.001646
-6.130	-0.001625
-6.125	-0.001639
-6.120	-0.001639
-6.115	-0.001667
-6.110	-0.001639
-6.105	-0.001619
-6.100	-0.001619
-6.095	-0.001605
-6.090	-0.001639
-6.085	-0.001584
-6.080	-0.001619
-6.075	-0.001619
-6.070	-0.001598
-6.065	-0.001584
-6.060	-0.001564
-6.055	-0.001612
-6.050	-0.001585
-6.045	-0.001598
-6.040	-0.001578
-6.035	-0.001591
-6.030	-0.001571
-6.025	-0.001571
-6.020	-0.001578
-6.015	-0.001550
-6.010	-0.001537
-6.005	-0.001585
-6.000	-0.001557
-5.995	-0.001564
-5.990	-0.001564
-5.985	-0.001578
-5.980	-0.001509
-5.975	-0.001530
-5.970	-0.001537
-5.965	-0.001495
-5.960	-0.001495
-5.955	-0.001523
-5.950	-0.001509
-5.945	-0.001475
-5.940	-0.001468
-5.935	-0.001489
-5.930	-0.001489
-5.925	-0.001454
-5.920	-0.001454
-5.915	-0.001434
-5.910	-0.001441
-5.905	-0.001427
-5.900	-0.001413
-5.895	-0.001420
-5.890	-0.001413
-5.885	-0.001399
-5.880	-0.001379
-5.875	-0.001420
-5.870	-0.001379
-5.865	-0.001386
-5.860	-0.001358
-5.855	-0.001351
-5.850	-0.001372
-5.845	-0.001365
-5.840	-0.001331
-5.835	-0.001324
-5.830	-0.001351
-5.825	-0.001352
-5.820	-0.001331
-5.815	-0.001379
-5.810	-0.001379
-5.805	-0.001359
-5.800	-0.001386
-5.795	-0.001407
-5.790	-0.001427
-5.785	-0.001462
-5.780	-0.001489
-5.775	-0.001524
-5.770	-0.001593
-5.765	-0.001613
-5.760	-0.001744
-5.755	-0.001799
-5.750	-0.001903
-5.745	-0.002006
-5.740	-0.002095
-5.735	-0.002185
-5.730	-0.002302
-5.725	-0.002419
-5.720	-0.002467
-5.715	-0.002557
-5.710	-0.002612
-5.705	-0.002632
-5.700	-0.002708
-5.695	-0.002666
-5.690	-0.002611
-5.685	-0.002584
-5.680	-0.002515
-5.675	-0.002419
-5.670	-0.002295
-5.665	-0.002178
-5.660	-0.002040
-5.655	-0.001889
-5.650	-0.001731
-5.645	-0.001607
-5.640	-0.001531
-5.635	-0.001394
-5.630	-0.001304
-5.625	-0.001242
-5.620	-0.001222
-5.615	-0.001153
-5.610	-0.001146
-5.605	-0.001119
-5.600	-0.001132
-5.595	-0.001132
-5.590	-0.001119
-5.585	-0.001112
-5.580	-0.001105
-5.575	-0.001153
-5.570	-0.001167
-5.565	-0.001160
-5.560	-0.001153
-5.555	-0.001160
-5.550	-0.001195
-5.545	-0.001174
-5.540	-0.001188
-5.535	-0.001174
-5.530	-0.001195
-5.525	-0.001188
-5.520	-0.001195
-5.515	-0.001201
-5.510	-0.001167
-5.505	-0.001181
-5.500	-0.001174
-5.495	-0.001188
-5.490	-0.001195
-5.485	-0.001222
-5.480	-0.001202
-5.475	-0.001209
-5.470	-0.001195
-5.465	-0.001215
-5.460	-0.001195
-5.455	-0.001181
-5.450	-0.001126
-5.445	-0.000960
-5.440	-0.000575
-5.435	0.000052
-5.430	0.000997
-5.425	0.002192
-5.420	0.004112
-5.415	0.006547
-5.410	0.009571
-5.405	0.013059
-5.400	0.016666
-5.395	0.021030
-5.390	0.026012
-5.385	0.030945
-5.380	0.036419
-5.375	0.042743
-5.370	0.048766
-5.365	0.053856
-5.360	0.058918
-5.355	0.064626
-5.350	0.069579
-5.345	0.071965
-5.340	0.071362
-5.335	0.068481
-5.330	0.064625
-5.325	0.060600
-5.320	0.056856
-5.315	0.053492
-5.310	0.050616
-5.305	0.048273
-5.300	0.046202
-5.295	0.044392
-5.290	0.042754
-5.285	0.041353
-5.280	0.040095
-5.275	0.038845
-5.270	0.037711
-5.265	0.036697
-5.260	0.035786
-5.255	0.034992
-5.250	0.034287
-5.245	0.033596
-5.240	0.032921
-5.235	0.032309
-5.230	0.031687
-5.225	0.031123
-5.220	0.030607
-5.215	0.030070
-5.210	0.029464
-5.205	0.028917
-5.200	0.028406
-5.195	0.027953
-5.190	0.027533
-5.185	0.027092
-5.180	0.026654
-5.175	0.026215
-5.170	0.025753
-5.165	0.025410
-5.160	0.025026
-5.155	0.024743
-5.150	0.024505
-5.145	0.024164
-5.140	0.023786
-5.135	0.023458
-5.130	0.023194
-5.125	0.022901
-5.120	0.022669
-5.115	0.022497
-5.110	0.022299
-5.105	0.022036
-5.100	0.021889
-5.095	0.021738
-5.090	0.021552
-5.085	0.021398
-5.080	0.021164
-5.075	0.020966
-5.070	0.020725
-5.065	0.020555
-5.060	0.020402
-5.055	0.020258
-5.050	0.020092
-5.045	0.019928
-5.040	0.019682
-5.035	0.019476
-5.030	0.019277
-5.025	0.019099
-5.020	0.018936
-5.015	0.018777
-5.010	0.018597
-5.005	0.018467
-5.000	0.018319
-4.995	0.018154
-4.990	0.018063
-4.985	0.017904
-4.980	0.017750
-4.975	0.017600
-4.970	0.017454
-4.965	0.017299
-4.960	0.017160
-4.955	0.017018
-4.950	0.016902
-4.945	0.016752
-4.940	0.016559
-4.935	0.016419
-4.930	0.016307
-4.925	0.016176
-4.920	0.016076
-4.915	0.015961
-4.910	0.015860
-4.905	0.015752
-4.900	0.015681
-4.895	0.015629
-4.890	0.015572
-4.885	0.015554
-4.880	0.015532
-4.875	0.015491
-4.870	0.015463
-4.865	0.015366
-4.860	0.015281
-4.855	0.015221
-4.850	0.015129
-4.845	0.015095
-4.840	0.015061
-4.835	0.014966
-4.830	0.014954
-4.825	0.014839
-4.820	0.014725
-4.815	0.014627
-4.810	0.014592
-4.805	0.014470
-4.800	0.014373
-4.795	0.014229
-4.790	0.014138
-4.785	0.014074
-4.780	0.014060
-4.775	0.014016
-4.770	0.013949
-4.765	0.013833
-4.760	0.013677
-4.755	0.013611
-4.750	0.013483
-4.745	0.013378
-4.740	0.013333
-4.735	0.013293
-4.730	0.013226
-4.725	0.013212
-4.720	0.013203
-4.715	0.013157
-4.710	0.013165
-4.705	0.013128
-4.700	0.013053
-4.695	0.012900
-4.690	0.012824
-4.685	0.012671
-4.680	0.012597
-4.675	0.012501
-4.670	0.012443
-4.665	0.012363
-4.660	0.012190
-4.655	0.012166
-4.650	0.012089
-4.645	0.011983
-4.640	0.011896
-4.635	0.011785
-4.630	0.011709
-4.625	0.011596
-4.620	0.011488
-4.615	0.011402
-4.610	0.011314
-4.605	0.011232
-4.600	0.011225
-4.595	0.011280
-4.590	0.011368
-4.585	0.011430
-4.580	0.011412
-4.575	0.011438
-4.570	0.011388
-4.565	0.011382
-4.560	0.011443
-4.555	0.011410
-4.550	0.011348
-4.545	0.011293
-4.540	0.011205
-4.535	0.011182
-4.530	0.011165
-4.525	0.011083
-4.520	0.010992
-4.515	0.010906
-4.510	0.010870
-4.505	0.010804
-4.500	0.010748
-4.495	0.010699
-4.490	0.010658
-4.485	0.010659
-4.480	0.010636
-4.475	0.010622
-4.470	0.010541
-4.465	0.010466
-4.460	0.010419
-4.455	0.010407
-4.450	0.010332
-4.445	0.010323
-4.440	0.010264
-4.435	0.010239
-4.430	0.010185
-4.425	0.010152
-4.420	0.010125
-4.415	0.010098
-4.410	0.010124
-4.405	0.010075
-4.400	0.009998
-4.395	0.009931
-4.390	0.009911
-4.385	0.009828
-4.380	0.009808
-4.375	0.009759
-4.370	0.009777
-4.365	0.009751
-4.360	0.009776
-4.355	0.009716
-4.350	0.009624
-4.345	0.009571
-4.340	0.009593
-4.335	0.009606
-4.330	0.009577
-4.325	0.009536
-4.320	0.009477
-4.315	0.009465
-4.310	0.009461
-4.305	0.009430
-4.300	0.009389
-4.295	0.009336
-4.290	0.009226
-4.285	0.009144
-4.280	0.009109
-4.275	0.009039
-4.270	0.009005
-4.265	0.009038
-4.260	0.009023
-4.255	0.009005
-4.250	0.009049
-4.245	0.009034
-4.240	0.009044
-4.235	0.009078
-4.230	0.009057
-4.225	0.009031
-4.220	0.009011
-4.215	0.009024
-4.210	0.008976
-4.205	0.008922
-4.200	0.008849
-4.195	0.008766
-4.190	0.008642
-4.185	0.008605
-4.180	0.008584
-4.175	0.008493
-4.170	0.008444
-4.165	0.008315
-4.160	0.008089
-4.155	0.007884
-4.150	0.007553
-4.145	0.007060
-4.140	0.006299
-4.135	0.005165
-4.130	0.003653
-4.125	0.001646
-4.120	-0.000885
-4.115	-0.003824
-4.110	-0.007439
-4.105	-0.011478
-4.100	-0.016018
-4.095	-0.020982
-4.090	-0.026340
-4.085	-0.032074
-4.080	-0.038049
-4.075	-0.044076
-4.070	-0.050037
-4.065	-0.055801
-4.060	-0.061141
-4.055	-0.065553
-4.050	-0.068612
-4.045	-0.070075
-4.040	-0.069744
-4.035	-0.067614
-4.030	-0.064139
-4.025	-0.060041
-4.020	-0.055836
-4.015	-0.052024
-4.010	-0.048683
-4.005	-0.045919
-4.000	-0.043547
-3.995	-0.041538
-3.990	-0.039795
-3.985	-0.038181
-3.980	-0.036775
-3.975	-0.035480
-3.970	-0.034373
-3.965	-0.033373
-3.960	-0.032425
-3.955	-0.031512
-3.950	-0.030754
-3.945	-0.030005
-3.940	-0.029245
-3.935	-0.028590
-3.930	-0.027986
-3.925	-0.027394
-3.920	-0.026857
-3.915	-0.026372
-3.910	-0.025904
-3.905	-0.025442
-3.900	-0.024991
-3.895	-0.024535
-3.890	-0.024155
-3.885	-0.023763
-3.880	-0.023382
-3.875	-0.022998
-3.870	-0.022661
-3.865	-0.022310
-3.860	-0.021923
-3.855	-0.021541
-3.850	-0.021215
-3.845	-0.020887
-3.840	-0.020541
-3.835	-0.020230
-3.830	-0.019917
-3.825	-0.019596
-3.820	-0.019301
-3.815	-0.019015
-3.810	-0.018744
-3.805	-0.018478
-3.800	-0.018235
-3.795	-0.017936
-3.790	-0.017717
-3.785	-0.017512
-3.780	-0.017281
-3.775	-0.017101
-3.770	-0.016850
-3.765	-0.016663
-3.760	-0.016443
-3.755	-0.016281
-3.750	-0.016082
-3.745	-0.015843
-3.740	-0.015616
-3.735	-0.015429
-3.730	-0.015264
-3.725	-0.015073
-3.720	-0.014904
-3.715	-0.014747
-3.710	-0.014616
-3.705	-0.014490
-3.700	-0.014351
-3.695	-0.014221
-3.690	-0.014021
-3.685	-0.013897
-3.680	-0.013778
-3.675	-0.013653
-3.670	-0.013548
-3.665	-0.013466
-3.660	-0.013369
-3.655	-0.013297
-3.650	-0.013228
-3.645	-0.013054
-3.640	-0.012963
-3.635	-0.012827
-3.630	-0.012711
-3.625	-0.012587
-3.620	-0.012455
-3.615	-0.012324
-3.610	-0.012177
-3.605	-0.012050
-3.600	-0.011890
-3.595	-0.011661
-3.590	-0.011454
-3.585	-0.011190
-3.580	-0.010863
-3.575	-0.010506
-3.570	-0.010140
-3.565	-0.009743
-3.560	-0.009360
-3.555	-0.008913
-3.550	-0.008397
-3.545	-0.007868
-3.540	-0.007268
-3.535	-0.006659
-3.530	-0.005979
-3.525	-0.005333
-3.520	-0.004676
-3.515	-0.004016
-3.510	-0.003362
-3.505	-0.002764
-3.500	-0.002104
-3.495	-0.001534
-3.490	-0.000984
-3.485	-0.000524
-3.480	-0.000159
-3.475	0.000137
-3.470	0.000329
-3.465	0.000507
-3.460	0.000644
-3.455	0.000768
-3.450	0.000769
-3.445	0.000769
-3.440	0.000755
-3.435	0.000789
-3.430	0.000789
-3.425	0.000878
-3.420	0.001028
-3.415	0.001282
-3.410	0.001585
-3.405	0.001966
-3.400	0.002490
-3.395	0.003050
-3.390	0.003774
-3.385	0.004536
-3.380	0.005376
-3.375	0.006320
-3.370	0.007344
-3.365	0.008338
-3.360	0.009322
-3.355	0.010310
-3.350	0.011186
-3.345	0.011855
-3.340	0.012168
-3.335	0.012027
-3.330	0.011621
-3.325	0.011090
-3.320	0.010605
-3.315	0.010172
-3.310	0.009839
-3.305	0.009569
-3.300	0.009424
-3.295	0.009216
-3.290	0.009080
-3.285	0.009005
-3.280	0.008910
-3.275	0.008827
-3.270	0.008798
-3.265	0.008793
-3.260	0.008800
-3.255	0.008803
-3.250	0.008796
-3.245	0.008843
-3.240	0.008956
-3.235	0.009060
-3.230	0.009156
-3.225	0.009254
-3.220	0.009316
-3.215	0.009298
-3.210	0.009366
-3.205	0.009392
-3.200	0.009493
-3.195	0.009650
-3.190	0.009754
-3.185	0.009958
-3.180	0.010143
-3.175	0.010244
-3.170	0.010366
-3.165	0.010464
-3.160	0.010544
-3.155	0.010594
-3.150	0.010618
-3.145	0.010714
-3.140	0.010802
-3.135	0.010911
-3.130	0.010988
-3.125	0.011071
-3.120	0.011082
-3.115	0.011097
-3.110	0.011224
-3.105	0.011356
-3.100	0.011446
-3.095	0.011475
-3.090	0.011592
-3.085	0.011640
-3.080	0.011725
-3.075	0.011717
-3.070	0.011827
-3.065	0.011936
-3.060	0.012018
-3.055	0.012018
-3.050	0.012096
-3.045	0.012148
-3.040	0.012204
-3.035	0.012228
-3.030	0.012330
-3.025	0.012462
-3.020	0.012546
-3.015	0.012601
-3.010	0.012750
-3.005	0.012907
-3.000	0.012996
-2.995	0.013126
-2.990	0.013217
-2.985	0.013299
-2.980	0.013372
-2.975	0.013439
-2.970	0.013534
-2.965	0.013576
-2.960	0.013667
-2.955	0.013680
-2.950	0.013765
-2.945	0.013822
-2.940	0.013931
-2.935	0.014104
-2.930	0.014202
-2.925	0.014307
-2.920	0.014353
-2.915	0.014443
-2.910	0.014506
-2.905	0.014538
-2.900	0.014651
-2.895	0.014770
-2.890	0.014909
-2.885	0.014971
-2.880	0.015091
-2.875	0.015219
-2.870	0.015400
-2.865	0.015511
-2.860	0.015569
-2.855	0.015672
-2.850	0.015740
-2.845	0.015825
-2.840	0.015808
-2.835	0.015780
-2.830	0.015712
-2.825	0.015667
-2.820	0.015618
-2.815	0.015607
-2.810	0.015616
-2.805	0.015616
-2.800	0.015633
-2.795	0.015699
-2.790	0.015717
-2.785	0.015807
-2.780	0.015915
-2.775	0.016044
-2.770	0.016152
-2.765	0.016249
-2.760	0.016366
-2.755	0.016403
-2.750	0.016509
-2.745	0.016548
-2.740	0.016571
-2.735	0.016701
-2.730	0.016786
-2.725	0.016877
-2.720	0.016913
-2.715	0.016992
-2.710	0.017058
-2.705	0.017078
-2.700	0.017118
-2.695	0.017212
-2.690	0.017280
-2.685	0.017320
-2.680	0.017448
-2.675	0.017618
-2.670	0.017796
-2.665	0.017978
-2.660	0.018093
-2.655	0.018145
-2.650	0.018179
-2.645	0.018316
-2.640	0.018350
-2.635	0.018404
-2.630	0.018354
-2.625	0.018332
-2.620	0.018307
-2.615	0.018300
-2.610	0.018302
-2.605	0.018248
-2.600	0.018180
-2.595	0.018129
-2.590	0.018078
-2.585	0.018024
-2.580	0.018010
-2.575	0.018027
-2.570	0.018084
-2.565	0.018198
-2.560	0.018336
-2.555	0.018462
-2.550	0.018581
-2.545	0.018731
-2.540	0.018843
-2.535	0.018847
-2.530	0.018787
-2.525	0.018769
-2.520	0.018857
-2.515	0.018955
-2.510	0.018968
-2.505	0.018978
-2.500	0.018957
-2.495	0.018962
-2.490	0.018958
-2.485	0.018958
-2.480	0.018922
-2.475	0.018855
-2.470	0.018879
-2.465	0.018850
-2.460	0.018816
-2.455	0.018771
-2.450	0.018770
-2.445	0.018819
-2.440	0.018878
-2.435	0.018979
-2.430	0.019119
-2.425	0.019226
-2.420	0.019373
-2.415	0.019471
-2.410	0.019464
-2.405	0.019461
-2.400	0.019459
-2.395	0.019582
-2.390	0.019714
-2.385	0.019847
-2.380	0.019976
-2.375	0.020085
-2.370	0.020120
-2.365	0.020136
-2.360	0.020156
-2.355	0.020115
-2.350	0.020022
-2.345	0.019953
-2.340	0.019916
-2.335	0.019918
-2.330	0.019893
-2.325	0.019882
-2.320	0.019844
-2.315	0.019820
-2.310	0.019840
-2.305	0.019861
-2.300	0.019884
-2.295	0.019889
-2.290	0.019855
-2.285	0.019811
-2.280	0.019781
-2.275	0.019702
-2.270	0.019716
-2.265	0.019746
-2.260	0.019841
-2.255	0.019824
-2.250	0.019874
-2.245	0.019849
-2.240	0.019881
-2.235	0.019875
-2.230	0.019922
-2.225	0.019993
-2.220	0.019985
-2.215	0.019942
-2.210	0.019897
-2.205	0.019874
-2.200	0.019900
-2.195	0.019863
-2.190	0.019834
-2.185	0.019745
-2.180	0.019718
-2.175	0.019714
-2.170	0.019705
-2.165	0.019652
-2.160	0.019638
-2.155	0.019584
-2.150	0.019637
-2.145	0.019639
-2.140	0.019700
-2.135	0.019787
-2.130	0.019835
-2.125	0.019901
-2.120	0.020008
-2.115	0.020079
-2.110	0.020200
-2.105	0.020310
-2.100	0.020418
-2.095	0.020512
-2.090	0.020609
-2.085	0.020634
-2.080	0.020636
-2.075	0.020605
-2.070	0.020570
-2.065	0.020481
-2.060	0.020385
-2.055	0.020273
-2.050	0.020177
-2.045	0.020103
-2.040	0.020062
-2.035	0.020021
-2.030	0.020022
-2.025	0.019992
-2.020	0.019991
-2.015	0.019950
-2.010	0.019975
-2.005	0.019968
-2.000	0.019989
-1.995	0.019978
-1.990	0.019971
-1.985	0.019959
-1.980	0.019948
-1.975	0.019962
-1.970	0.019936
-1.965	0.019937
-1.960	0.019892
-1.955	0.019901
-1.950	0.019928
-1.945	0.019955
-1.940	0.019973
-1.935	0.019991
-1.930	0.020034
-1.925	0.020067
-1.920	0.020057
-1.915	0.020018
-1.910	0.019995
-1.905	0.019902
-1.900	0.019815
-1.895	0.019694
-1.890	0.019598
-1.885	0.019496
-1.880	0.019433
-1.875	0.019408
-1.870	0.019466
-1.865	0.019441
-1.860	0.019419
-1.855	0.019360
-1.850	0.019341
-1.845	0.019291
-1.840	0.019275
-1.835	0.019221
-1.830	0.019113
-1.825	0.019051
-1.820	0.019021
-1.815	0.019022
-1.810	0.019014
-1.805	0.019027
-1.800	0.019051
-1.795	0.019069
-1.790	0.019112
-1.785	0.019119
-1.780	0.019136
-1.775	0.019166
-1.770	0.019223
-1.765	0.019270
-1.760	0.019283
-1.755	0.019316
-1.750	0.019283
-1.745	0.019260
-1.740	0.019180
-1.735	0.019053
-1.730	0.018991
-1.725	0.018841
-1.720	0.018767
-1.715	0.018728
-1.710	0.018706
-1.705	0.018675
-1.700	0.018651
-1.695	0.018711
-1.690	0.018741
-1.685	0.018769
-1.680	0.018790
-1.675	0.018789
-1.670	0.018758
-1.665	0.018687
-1.660	0.018626
-1.655	0.018538
-1.650	0.018464
-1.645	0.018371
-1.640	0.018261
-1.635	0.018193
-1.630	0.018143
-1.625	0.018118
-1.620	0.018078
-1.615	0.018012
-1.610	0.017966
-1.605	0.017951
-1.600	0.017936
-1.595	0.017928
-1.590	0.018049
-1.585	0.018095
-1.580	0.018176
-1.575	0.018268
-1.570	0.018337
-1.565	0.018413
-1.560	0.018376
-1.555	0.018312
-1.550	0.018275
-1.545	0.018213
-1.540	0.018114
-1.535	0.017980
-1.530	0.017869
-1.525	0.017735
-1.520	0.017662
-1.515	0.017586
-1.510	0.017538
-1.505	0.017490
-1.500	0.017461
-1.495	0.017406
-1.490	0.017302
-1.485	0.017185
-1.480	0.017078
-1.475	0.016946
-1.470	0.016786
-1.465	0.016712
-1.460	0.016607
-1.455	0.016496
-1.450	0.016433
-1.445	0.016358
-1.440	0.016276
-1.435	0.016195
-1.430	0.016101
-1.425	0.016020
-1.420	0.015926
-1.415	0.015860
-1.410	0.015813
-1.405	0.015780
-1.400	0.015728
-1.395	0.015696
-1.390	0.015686
-1.385	0.015698
-1.380	0.015733
-1.375	0.015800
-1.370	0.015877
-1.365	0.015952
-1.360	0.016002
-1.355	0.016037
-1.350	0.016092
-1.345	0.016101
-1.340	0.016104
-1.335	0.016070
-1.330	0.016010
-1.325	0.015993
-1.320	0.015909
-1.315	0.015846
-1.310	0.015776
-1.305	0.015646
-1.300	0.015536
-1.295	0.015437
-1.290	0.015389
-1.285	0.015349
-1.280	0.015302
-1.275	0.015294
-1.270	0.015276
-1.265	0.015270
-1.260	0.015213
-1.255	0.015171
-1.250	0.015124
-1.245	0.015093
-1.240	0.015024
-1.235	0.014978
-1.230	0.014939
-1.225	0.014858
-1.220	0.014867
-1.215	0.014795
-1.210	0.014726
-1.205	0.014649
-1.200	0.014579
-1.195	0.014502
-1.190	0.014401
-1.185	0.014337
-1.180	0.014227
-1.175	0.014207
-1.170	0.014117
-1.165	0.014076
-1.160	0.014014
-1.155	0.013945
-1.150	0.013893
-1.145	0.013864
-1.140	0.013746
-1.135	0.013686
-1.130	0.013633
-1.125	0.013635
-1.120	0.013624
-1.115	0.013606
-1.110	0.013558
-1.105	0.013572
-1.100	0.013558
-1.095	0.013635
-1.090	0.013592
-1.085	0.013585
-1.080	0.013540
-1.075	0.013597
-1.070	0.013524
-1.065	0.013466
-1.060	0.013435
-1.055	0.013440
-1.050	0.013415
-1.045	0.013342
-1.040	0.013277
-1.035	0.013193
-1.030	0.013138
-1.025	0.013080
-1.020	0.012987
-1.015	0.012945
-1.010	0.012846
-1.005	0.012818
-1.000	0.012745
-0.995	0.012683
-0.990	0.012658
-0.985	0.012599
-0.980	0.012539
-0.975	0.012507
-0.970	0.012436
-0.965	0.012375
-0.960	0.012284
-0.955	0.012222
-0.950	0.012173
-0.945	0.012095
-0.940	0.012003
-0.935	0.011975
-0.930	0.011967
-0.925	0.011907
-0.920	0.011848
-0.915	0.011848
-0.910	0.011787
-0.905	0.011712
-0.900	0.011607
-0.895	0.011519
-0.890	0.011412
-0.885	0.011339
-0.880	0.011207
-0.875	0.011113
-0.870	0.011023
-0.865	0.010913
-0.860	0.010775
-0.855	0.010710
-0.850	0.010561
-0.845	0.010447
-0.840	0.010368
-0.835	0.010314
-0.830	0.010233
-0.825	0.010115
-0.820	0.010035
-0.815	0.009950
-0.810	0.009827
-0.805	0.009766
-0.800	0.009676
-0.795	0.009588
-0.790	0.009536
-0.785	0.009456
-0.780	0.009454
-0.775	0.009396
-0.770	0.009335
-0.765	0.009289
-0.760	0.009275
-0.755	0.009268
-0.750	0.009273
-0.745	0.009261
-0.740	0.009281
-0.735	0.009309
-0.730	0.009309
-0.725	0.009324
-0.720	0.009292
-0.715	0.009313
-0.710	0.009274
-0.705	0.009241
-0.700	0.009194
-0.695	0.009173
-0.690	0.009110
-0.685	0.009082
-0.680	0.009025
-0.675	0.008969
-0.670	0.008908
-0.665	0.008805
-0.660	0.008716
-0.655	0.008625
-0.650	0.008542
-0.645	0.008451
-0.640	0.008353
-0.635	0.008249
-0.630	0.008117
-0.625	0.007987
-0.620	0.007925
-0.615	0.007827
-0.610	0.007730
-0.605	0.007646
-0.600	0.007577
-0.595	0.007493
-0.590	0.007461
-0.585	0.007337
-0.580	0.007322
-0.575	0.007238
-0.570	0.007199
-0.565	0.007146
-0.560	0.007091
-0.555	0.007069
-0.550	0.006999
-0.545	0.006948
-0.540	0.006961
-0.535	0.006919
-0.530	0.006864
-0.525	0.006874
-0.520	0.006788
-0.515	0.006742
-0.510	0.006720
-0.505	0.006666
-0.500	0.006610
-0.495	0.006583
-0.490	0.006528
-0.485	0.006438
-0.480	0.006376
-0.475	0.006306
-0.470	0.006278
-0.465	0.006148
-0.460	0.006105
-0.455	0.006005
-0.450	0.006017
-0.445	0.005918
-0.440	0.005902
-0.435	0.005805
-0.430	0.005715
-0.425	0.005570
-0.420	0.005467
-0.415	0.005391
-0.410	0.005344
-0.405	0.005261
-0.400	0.005192
-0.395	0.005123
-0.390	0.005063
-0.385	0.004995
-0.380	0.004918
-0.375	0.004882
-0.370	0.004833
-0.365	0.004731
-0.360	0.004682
-0.355	0.004588
-0.350	0.004518
-0.345	0.004503
-0.340	0.004419
-0.335	0.004309
-0.330	0.004267
-0.325	0.004289
-0.320	0.004194
-0.315	0.004193
-0.310	0.004162
-0.305	0.004127
-0.300	0.004087
-0.295	0.004033
-0.290	0.003889
-0.285	0.003794
-0.280	0.003725
-0.275	0.003656
-0.270	0.003593
-0.265	0.003558
-0.260	0.003427
-0.255	0.003382
-0.250	0.003299
-0.245	0.003243
-0.240	0.003166
-0.235	0.003083
-0.230	0.003021
-0.225	0.002931
-0.220	0.002876
-0.215	0.002786
-0.210	0.002736
-0.205	0.002729
-0.200	0.002625
-0.195	0.002557
-0.190	0.002442
-0.185	0.002373
-0.180	0.002270
-0.175	0.002160
-0.170	0.002181
-0.165	0.002153
-0.160	0.002105
-0.155	0.002112
-0.150	0.002187
-0.145	0.002276
-0.140	0.002358
-0.135	0.002496
-0.130	0.002676
-0.125	0.002905
-0.120	0.003084
-0.115	0.003110
-0.110	0.003094
-0.105	0.002991
-0.100	0.002818
-0.095	0.002626
-0.090	0.002324
-0.085	0.001829
-0.080	0.001168
-0.075	0.000438
-0.070	-0.000346
-0.065	-0.001192
-0.060	-0.002136
-0.055	-0.002999
-0.050	-0.003642
-0.045	-0.004006
-0.040	-0.004072
-0.035	-0.003850
-0.030	-0.003168
-0.025	-0.002122
-0.020	-0.000766
-0.015	0.000665
-0.010	0.002195
-0.005	0.003885
0.000	0.005367
0.005	0.006187
0.010	0.006473
0.015	0.006321
0.020	0.005672
0.025	0.004494
0.030	0.002958
0.035	0.001351
0.040	-0.000207
0.045	-0.001599
0.050	-0.002845
0.055	-0.003773
0.060	-0.004392
0.065	-0.004606
0.070	-0.004537
0.075	-0.004257
0.080	-0.003872
0.085	-0.003390
0.090	-0.002914
0.095	-0.002487
0.100	-0.002219
0.105	-0.002130
0.110	-0.002150
0.115	-0.002157
0.120	-0.002095
0.125	-0.002019
0.130	-0.001923
0.135	-0.001882
0.140	-0.001951
0.145	-0.002006
0.150	-0.002164
0.155	-0.002205
0.160	-0.002191
0.165	-0.002143
0.170	-0.002089
0.175	-0.002013
0.180	-0.002034
0.185	-0.002165
0.190	-0.002316
0.195	-0.002440
0.200	-0.002501
0.205	-0.002536
0.210	-0.002605
0.215	-0.002640
0.220	-0.002681
0.225	-0.002736
0.230	-0.002785
0.235	-0.002799
0.240	-0.002868
0.245	-0.002896
0.250	-0.003013
0.255	-0.003102
0.260	-0.003239
0.265	-0.003315
0.270	-0.003370
0.275	-0.003466
0.280	-0.003535
0.285	-0.003693
0.290	-0.003788
0.295	-0.003911
0.300	-0.004008
0.305	-0.004003
0.310	-0.004059
0.315	-0.004129
0.320	-0.004253
0.325	-0.004376
0.330	-0.004526
0.335	-0.004636
0.340	-0.004753
0.345	-0.004837
0.350	-0.004891
0.355	-0.004993
0.360	-0.005055
0.365	-0.005139
0.370	-0.005189
0.375	-0.005286
0.380	-0.005348
0.385	-0.005487
0.390	-0.005514
0.395	-0.005624
0.400	-0.005699
0.405	-0.005794
0.410	-0.005883
0.415	-0.005986
0.420	-0.006059
0.425	-0.006120
0.430	-0.006134
0.435	-0.006210
0.440	-0.006259
0.445	-0.006321
0.450	-0.006322
0.455	-0.006322
0.460	-0.006349
0.465	-0.006384
0.470	-0.006378
0.475	-0.006420
0.480	-0.006455
0.485	-0.006475
0.490	-0.006522
0.495	-0.006570
0.500	-0.006570
0.505	-0.006638
0.510	-0.006659
0.515	-0.006695
0.520	-0.006750
0.525	-0.006798
0.530	-0.006874
0.535	-0.006929
0.540	-0.006990
0.545	-0.007110
0.550	-0.007184
0.555	-0.007280
0.560	-0.007334
0.565	-0.007439
0.570	-0.007495
0.575	-0.007613
0.580	-0.007660
0.585	-0.007721
0.590	-0.007796
0.595	-0.007865
0.600	-0.007955
0.605	-0.008016
0.610	-0.008115
0.615	-0.008143
0.620	-0.008209
0.625	-0.008278
0.630	-0.008293
0.635	-0.008340
0.640	-0.008334
0.645	-0.008342
0.650	-0.008431
0.655	-0.008453
0.660	-0.008480
0.665	-0.008521
0.670	-0.008514
0.675	-0.008544
0.680	-0.008580
0.685	-0.008605
0.690	-0.008643
0.695	-0.008671
0.700	-0.008697
0.705	-0.008768
0.710	-0.008774
0.715	-0.008767
0.720	-0.008843
0.725	-0.008843
0.730	-0.008892
0.735	-0.008969
0.740	-0.009018
0.745	-0.009096
0.750	-0.009170
0.755	-0.009285
0.760	-0.009395
0.765	-0.009527
0.770	-0.009664
0.775	-0.009741
0.780	-0.009858
0.785	-0.009974
0.790	-0.010112
0.795	-0.010216
0.800	-0.010408
0.805	-0.010499
0.810	-0.010653
0.815	-0.010779
0.820	-0.010928
0.825	-0.011022
0.830	-0.011145
0.835	-0.011236
0.840	-0.011325
0.845	-0.011457
0.850	-0.011558
0.855	-0.011648
0.860	-0.011743
0.865	-0.011770
0.870	-0.011786
0.875	-0.011829
0.880	-0.011851
0.885	-0.011907
0.890	-0.011925
0.895	-0.011913
0.900	-0.011906
0.905	-0.011916
0.910	-0.011861
0.915	-0.011855
0.920	-0.011875
0.925	-0.011908
0.930	-0.011929
0.935	-0.011921
0.940	-0.011931
0.945	-0.011949
0.950	-0.011984
0.955	-0.012003
0.960	-0.012037
0.965	-0.012072
0.970	-0.012099
0.975	-0.012162
0.980	-0.012226
0.985	-0.012294
0.990	-0.012376
0.995	-0.012445
1.000	-0.012478
1.005	-0.012561
1.010	-0.012614
1.015	-0.012696
1.020	-0.012760
1.025	-0.012821
1.030	-0.012911
1.035	-0.012947
1.040	-0.013044
1.045	-0.013095
1.050	-0.013211
1.055	-0.013275
1.060	-0.013391
1.065	-0.013475
1.070	-0.013564
1.075	-0.013658
1.080	-0.013741
1.085	-0.013831
1.090	-0.013908
1.095	-0.014019
1.100	-0.014109
1.105	-0.014136
1.110	-0.014240
1.115	-0.014297
1.120	-0.014302
1.125	-0.014398
1.130	-0.014474
1.135	-0.014556
1.140	-0.014545
1.145	-0.014574
1.150	-0.014600
1.155	-0.014632
1.160	-0.014678
1.165	-0.014709
1.170	-0.014794
1.175	-0.014823
1.180	-0.014839
1.185	-0.014878
1.190	-0.014917
1.195	-0.014887
1.200	-0.014898
1.205	-0.014822
1.210	-0.014757
1.215	-0.014675
1.220	-0.014609
1.225	-0.014495
1.230	-0.014413
1.235	-0.014391
1.240	-0.014285
1.245	-0.014291
1.250	-0.014352
1.255	-0.014351
1.260	-0.014430
1.265	-0.014526
1.270	-0.014636
1.275	-0.014747
1.280	-0.014901
1.285	-0.014976
1.290	-0.015153
1.295	-0.015283
1.300	-0.015351
1.305	-0.015451
1.310	-0.015548
1.315	-0.015624
1.320	-0.015714
1.325	-0.015782
1.330	-0.015884
1.335	-0.015923
1.340	-0.015965
1.345	-0.016001
1.350	-0.016075
1.355	-0.016146
1.360	-0.016200
1.365	-0.016208
1.370	-0.016255
1.375	-0.016288
1.380	-0.016313
1.385	-0.016333
1.390	-0.016351
1.395	-0.016368
1.400	-0.016384
1.405	-0.016385
1.410	-0.016375
1.415	-0.016416
1.420	-0.016441
1.425	-0.016474
1.430	-0.016547
1.435	-0.016577
1.440	-0.016626
1.445	-0.016614
1.450	-0.016634
1.455	-0.016653
1.460	-0.016671
1.465	-0.016607
1.470	-0.016594
1.475	-0.016620
1.480	-0.016639
1.485	-0.016719
1.490	-0.016774
1.495	-0.016837
1.500	-0.016929
1.505	-0.017032
1.510	-0.017123
1.515	-0.017269
1.520	-0.017392
1.525	-0.017574
1.530	-0.017722
1.535	-0.017825
1.540	-0.017905
1.545	-0.018040
1.550	-0.018145
1.555	-0.018142
1.560	-0.018238
1.565	-0.018351
1.570	-0.018412
1.575	-0.018461
1.580	-0.018478
1.585	-0.018535
1.590	-0.018581
1.595	-0.018590
1.600	-0.018603
1.605	-0.018664
1.610	-0.018655
1.615	-0.018687
1.620	-0.018686
1.625	-0.018684
1.630	-0.018663
1.635	-0.018677
1.640	-0.018640
1.645	-0.018617
1.650	-0.018578
1.655	-0.018553
1.660	-0.018533
1.665	-0.018463
1.670	-0.018352
1.675	-0.018222
1.680	-0.018087
1.685	-0.017960
1.690	-0.017903
1.695	-0.017868
1.700	-0.017924
1.705	-0.018007
1.710	-0.018152
1.715	-0.018257
1.720	-0.018459
1.725	-0.018632
1.730	-0.018784
1.735	-0.018927
1.740	-0.019004
1.745	-0.019105
1.750	-0.019106
1.755	-0.019206
1.760	-0.019229
1.765	-0.019310
1.770	-0.019368
1.775	-0.019378
1.780	-0.019336
1.785	-0.019352
1.790	-0.019349
1.795	-0.019365
1.800	-0.019358
1.805	-0.019366
1.810	-0.019282
1.815	-0.019203
1.820	-0.019135
1.825	-0.019122
1.830	-0.019158
1.835	-0.019205
1.840	-0.019260
1.845	-0.019313
1.850	-0.019282
1.855	-0.019243
1.860	-0.019190
1.865	-0.019146
1.870	-0.019159
1.875	-0.019157
1.880	-0.019188
1.885	-0.019191
1.890	-0.019222
1.895	-0.019339
1.900	-0.019432
1.905	-0.019540
1.910	-0.019602
1.915	-0.019673
1.920	-0.019724
1.925	-0.019745
1.930	-0.019815
1.935	-0.019832
1.940	-0.019833
1.945	-0.019852
1.950	-0.019921
1.955	-0.019930
1.960	-0.019934
1.965	-0.019970
1.970	-0.019989
1.975	-0.020068
1.980	-0.020088
1.985	-0.020111
1.990	-0.020174
1.995	-0.020195
2.000	-0.020230
2.005	-0.020223
2.010	-0.020151
2.015	-0.020052
2.020	-0.019985
2.025	-0.019942
2.030	-0.019867
2.035	-0.019853
2.040	-0.019863
2.045	-0.019950
2.050	-0.020015
2.055	-0.020077
2.060	-0.020140
2.065	-0.020157
2.070	-0.020180
2.075	-0.020187
2.080	-0.020203
2.085	-0.020122
2.090	-0.020056
2.095	-0.019964
2.100	-0.019855
2.105	-0.019781
2.110	-0.019733
2.115	-0.019638
2.120	-0.019603
2.125	-0.019572
2.130	-0.019588
2.135	-0.019577
2.140	-0.019596
2.145	-0.019663
2.150	-0.019688
2.155	-0.019775
2.160	-0.019819
2.165	-0.019850
2.170	-0.019863
2.175	-0.019884
2.180	-0.019854
2.185	-0.019811
2.190	-0.019773
2.195	-0.019783
2.200	-0.019710
2.205	-0.019627
2.210	-0.019557
2.215	-0.019473
2.220	-0.019454
2.225	-0.019456
2.230	-0.019421
2.235	-0.019411
2.240	-0.019421
2.245	-0.019371
2.250	-0.019379
2.255	-0.019365
2.260	-0.019462
2.265	-0.019567
2.270	-0.019653
2.275	-0.019772
2.280	-0.019863
2.285	-0.019940
2.290	-0.020043
2.295	-0.020108
2.300	-0.020162
2.305	-0.020162
2.310	-0.020185
2.315	-0.020205
2.320	-0.020223
2.325	-0.020221
2.330	-0.020102
2.335	-0.020032
2.340	-0.019939
2.345	-0.019863
2.350	-0.019781
2.355	-0.019674
2.360	-0.019556
2.365	-0.019497
2.370	-0.019460
2.375	-0.019451
2.380	-0.019379
2.385	-0.019243
2.390	-0.019173
2.395	-0.019100
2.400	-0.019075
2.405	-0.019057
2.410	-0.019038
2.415	-0.019036
2.420	-0.019069
2.425	-0.019108
2.430	-0.019181
2.435	-0.019162
2.440	-0.019167
2.445	-0.019151
2.450	-0.019187
2.455	-0.019086
2.460	-0.019008
2.465	-0.018912
2.470	-0.018892
2.475	-0.018892
2.480	-0.018831
2.485	-0.018711
2.490	-0.018669
2.495	-0.018652
2.500	-0.018591
2.505	-0.018569
2.510	-0.018472
2.515	-0.018448
2.520	-0.018386
2.525	-0.018374
2.530	-0.018347
2.535	-0.018339
2.540	-0.018343
2.545	-0.018382
2.550	-0.018371
2.555	-0.018412
2.560	-0.018450
2.565	-0.018469
2.570	-0.018496
2.575	-0.018470
2.580	-0.018408
2.585	-0.018323
2.590	-0.018200
2.595	-0.018113
2.600	-0.018112
2.605	-0.018142
2.610	-0.018184
2.615	-0.018158
2.620	-0.018128
2.625	-0.018141
2.630	-0.018065
2.635	-0.017989
2.640	-0.017871
2.645	-0.017805
2.650	-0.017718
2.655	-0.017585
2.660	-0.017505
2.665	-0.017513
2.670	-0.017500
2.675	-0.017492
2.680	-0.017459
2.685	-0.017372
2.690	-0.017203
2.695	-0.017084
2.700	-0.017052
2.705	-0.016974
2.710	-0.016870
2.715	-0.016816
2.720	-0.016787
2.725	-0.016710
2.730	-0.016576
2.735	-0.016449
2.740	-0.016306
2.745	-0.016177
2.750	-0.015987
2.755	-0.015843
2.760	-0.015791
2.765	-0.015717
2.770	-0.015660
2.775	-0.015607
2.780	-0.015658
2.785	-0.015672
2.790	-0.015754
2.795	-0.015734
2.800	-0.015662
2.805	-0.015667
2.810	-0.015640
2.815	-0.015675
2.820	-0.015672
2.825	-0.015720
2.830	-0.015715
2.835	-0.015668
2.840	-0.015643
2.845	-0.015540
2.850	-0.015462
2.855	-0.015340
2.860	-0.015262
2.865	-0.015134
2.870	-0.014997
2.875	-0.014786
2.880	-0.014649
2.885	-0.014546
2.890	-0.014509
2.895	-0.014441
2.900	-0.014397
2.905	-0.014315
2.910	-0.014196
2.915	-0.014116
2.920	-0.014062
2.925	-0.014003
2.930	-0.013984
2.935	-0.013889
2.940	-0.013726
2.945	-0.013582
2.950	-0.013515
2.955	-0.013365
2.960	-0.013217
2.965	-0.013134
2.970	-0.013072
2.975	-0.012920
2.980	-0.012809
2.985	-0.012740
2.990	-0.012701
2.995	-0.012669
3.000	-0.012626
3.005	-0.012571
3.010	-0.012531
3.015	-0.012453
3.020	-0.012325
3.025	-0.012222
3.030	-0.012113
3.035	-0.012038
3.040	-0.011949
3.045	-0.011878
3.050	-0.011765
3.055	-0.011703
3.060	-0.011607
3.065	-0.011506
3.070	-0.011460
3.075	-0.011439
3.080	-0.011377
3.085	-0.011278
3.090	-0.011123
3.095	-0.011012
3.100	-0.010913
3.105	-0.010845
3.110	-0.010843
3.115	-0.010850
3.120	-0.010843
3.125	-0.010720
3.130	-0.010609
3.135	-0.010519
3.140	-0.010480
3.145	-0.010371
3.150	-0.010300
3.155	-0.010239
3.160	-0.010135
3.165	-0.010047
3.170	-0.009997
3.175	-0.009905
3.180	-0.009778
3.185	-0.009653
3.190	-0.009480
3.195	-0.009342
3.200	-0.009225
3.205	-0.009074
3.210	-0.008953
3.215	-0.008904
3.220	-0.008842
3.225	-0.008772
3.230	-0.008703
3.235	-0.008662
3.240	-0.008675
3.245	-0.008646
3.250	-0.008688
3.255	-0.008690
3.260	-0.008725
3.265	-0.008746
3.270	-0.008773
3.275	-0.008798
3.280	-0.008820
3.285	-0.008928
3.290	-0.009078
3.295	-0.009291
3.300	-0.009538
3.305	-0.009875
3.310	-0.010165
3.315	-0.010445
3.320	-0.010655
3.325	-0.010722
3.330	-0.010752
3.335	-0.010691
3.340	-0.010516
3.345	-0.010257
3.350	-0.009954
3.355	-0.009463
3.360	-0.008813
3.365	-0.008008
3.370	-0.007176
3.375	-0.006174
3.380	-0.004980
3.385	-0.003585
3.390	-0.002248
3.395	-0.001229
3.400	-0.000597
3.405	-0.000253
3.410	-0.000142
3.415	-0.000128
3.420	-0.000115
3.425	-0.000266
3.430	-0.000301
3.435	-0.000390
3.440	-0.000417
3.445	-0.000411
3.450	-0.000362
3.455	-0.000266
3.460	-0.000060
3.465	0.000202
3.470	0.000525
3.475	0.000897
3.480	0.001352
3.485	0.001853
3.490	0.002402
3.495	0.002987
3.500	0.003577
3.505	0.004182
3.510	0.004794
3.515	0.005448
3.520	0.006074
3.525	0.006674
3.530	0.007280
3.535	0.007865
3.540	0.008393
3.545	0.008924
3.550	0.009375
3.555	0.009800
3.560	0.010181
3.565	0.010501
3.570	0.010854
3.575	0.011119
3.580	0.011315
3.585	0.011535
3.590	0.011726
3.595	0.011891
3.600	0.012107
3.605	0.012232
3.610	0.012396
3.615	0.012513
3.620	0.012645
3.625	0.012771
3.630	0.012898
3.635	0.013022
3.640	0.013117
3.645	0.013226
3.650	0.013293
3.655	0.013407
3.660	0.013528
3.665	0.013668
3.670	0.013792
3.675	0.013904
3.680	0.014074
3.685	0.014225
3.690	0.014388
3.695	0.014505
3.700	0.014642
3.705	0.014783
3.710	0.014960
3.715	0.015124
3.720	0.015307
3.725	0.015432
3.730	0.015598
3.735	0.015788
3.740	0.015950
3.745	0.016152
3.750	0.016340
3.755	0.016539
3.760	0.016716
3.765	0.016932
3.770	0.017171
3.775	0.017403
3.780	0.017597
3.785	0.017839
3.790	0.018067
3.795	0.018316
3.800	0.018566
3.805	0.018817
3.810	0.019083
3.815	0.019369
3.820	0.019689
3.825	0.019996
3.830	0.020325
3.835	0.020625
3.840	0.020933
3.845	0.021275
3.850	0.021596
3.855	0.021995
3.860	0.022330
3.865	0.022672
3.870	0.023105
3.875	0.023479
3.880	0.023909
3.885	0.024311
3.890	0.024713
3.895	0.025125
3.900	0.025571
3.905	0.026047
3.910	0.026510
3.915	0.027003
3.920	0.027535
3.925	0.028137
3.930	0.028744
3.935	0.029388
3.940	0.030065
3.945	0.030830
3.950	0.031633
3.955	0.032544
3.960	0.033457
3.965	0.034508
3.970	0.035677
3.975	0.037014
3.980	0.038499
3.985	0.040138
3.990	0.041989
3.995	0.044064
4.000	0.046318
4.005	0.048829
4.010	0.051460
4.015	0.054147
4.020	0.056734
4.025	0.059128
4.030	0.061176
4.035	0.062757
4.040	0.063796
4.045	0.064212
4.050	0.063967
4.055	0.062746
4.060	0.060644
4.065	0.057544
4.070	0.053366
4.075	0.048127
4.080	0.041576
4.085	0.034109
4.090	0.026085
4.095	0.018252
4.100	0.010998
4.105	0.005046
4.110	0.000500
4.115	-0.002597
4.120	-0.004597
4.125	-0.005893
4.130	-0.006672
4.135	-0.007154
4.140	-0.007488
4.145	-0.007695
4.150	-0.007845
4.155	-0.008049
4.160	-0.008215
4.165	-0.008408
4.170	-0.008525
4.175	-0.008642
4.180	-0.008712
4.185	-0.008759
4.190	-0.008806
4.195	-0.008876
4.200	-0.008863
4.205	-0.008929
4.210	-0.008978
4.215	-0.008963
4.220	-0.008935
4.225	-0.008949
4.230	-0.008896
4.235	-0.008862
4.240	-0.008833
4.245	-0.008847
4.250	-0.008845
4.255	-0.008859
4.260	-0.008860
4.265	-0.008909
4.270	-0.008966
4.275	-0.009051
4.280	-0.009188
4.285	-0.009233
4.290	-0.009279
4.295	-0.009308
4.300	-0.009335
4.305	-0.009405
4.310	-0.009432
4.315	-0.009412
4.320	-0.009467
4.325	-0.009474
4.330	-0.009528
4.335	-0.009541
4.340	-0.009563
4.345	-0.009611
4.350	-0.009595
4.355	-0.009690
4.360	-0.009692
4.365	-0.009749
4.370	-0.009784
4.375	-0.009812
4.380	-0.009817
4.385	-0.009872
4.390	-0.009931
4.395	-0.009957
4.400	-0.009969
4.405	-0.009978
4.410	-0.009926
4.415	-0.010003
4.420	-0.010014
4.425	-0.010015
4.430	-0.010089
4.435	-0.010144
4.440	-0.010227
4.445	-0.010296
4.450	-0.010378
4.455	-0.010412
4.460	-0.010468
4.465	-0.010494
4.470	-0.010481
4.475	-0.010537
4.480	-0.010522
4.485	-0.010575
4.490	-0.010622
4.495	-0.010678
4.500	-0.010670
4.505	-0.010713
4.510	-0.010835
4.515	-0.010893
4.520	-0.010953
4.525	-0.011036
4.530	-0.011071
4.535	-0.011134
4.540	-0.011217
4.545	-0.011266
4.550	-0.011326
4.555	-0.011393
4.560	-0.011428
4.565	-0.011496
4.570	-0.011455
4.575	-0.011400
4.580	-0.011338
4.585	-0.011393
4.590	-0.011413
4.595	-0.011497
4.600	-0.011592
4.605	-0.011588
4.610	-0.011583
4.615	-0.011591
4.620	-0.011671
4.625	-0.011745
4.630	-0.011772
4.635	-0.011833
4.640	-0.011841
4.645	-0.011910
4.650	-0.011957
4.655	-0.012109
4.660	-0.012232
4.665	-0.012328
4.670	-0.012495
4.675	-0.012664
4.680	-0.012791
4.685	-0.012885
4.690	-0.012884
4.695	-0.012934
4.700	-0.012946
4.705	-0.012983
4.710	-0.013003
4.715	-0.012991
4.720	-0.012989
4.725	-0.012982
4.730	-0.013003
4.735	-0.013072
4.740	-0.013147
4.745	-0.013229
4.750	-0.013282
4.755	-0.013336
4.760	-0.013440
4.765	-0.013538
4.770	-0.013629
4.775	-0.013756
4.780	-0.013803
4.785	-0.013896
4.790	-0.014013
4.795	-0.014104
4.800	-0.014100
4.805	-0.014135
4.810	-0.014206
4.815	-0.014276
4.820	-0.014317
4.825	-0.014380
4.830	-0.014531
4.835	-0.014699
4.840	-0.014866
4.845	-0.015014
4.850	-0.015089
4.855	-0.015227
4.860	-0.015268
4.865	-0.015297
4.870	-0.015301
4.875	-0.015310
4.880	-0.015328
4.885	-0.015398
4.890	-0.015481
4.895	-0.015534
4.900	-0.015633
4.905	-0.015775
4.910	-0.015829
4.915	-0.015965
4.920	-0.016065
4.925	-0.016141
4.930	-0.016181
4.935	-0.016252
4.940	-0.016314
4.945	-0.016430
4.950	-0.016548
4.955	-0.016681
4.960	-0.016888
4.965	-0.016982
4.970	-0.017153
4.975	-0.017362
4.980	-0.017566
4.985	-0.017764
4.990	-0.017892
4.995	-0.018050
5.000	-0.018205
5.005	-0.018398
5.010	-0.018484
5.015	-0.018615
5.020	-0.018823
5.025	-0.019007
5.030	-0.019149
5.035	-0.019281
5.040	-0.019402
5.045	-0.019561
5.050	-0.019766
5.055	-0.020014
5.060	-0.020197
5.065	-0.020380
5.070	-0.020610
5.075	-0.020807
5.080	-0.020996
5.085	-0.021129
5.090	-0.021306
5.095	-0.021516
5.100	-0.021627
5.105	-0.021757
5.110	-0.021906
5.115	-0.022162
5.120	-0.022481
5.125	-0.022754
5.130	-0.023057
5.135	-0.023364
5.140	-0.023614
5.145	-0.023882
5.150	-0.024171
5.155	-0.024460
5.160	-0.024806
5.165	-0.025166
5.170	-0.025486
5.175	-0.025896
5.180	-0.026326
5.185	-0.026738
5.190	-0.027177
5.195	-0.027603
5.200	-0.028074
5.205	-0.028553
5.210	-0.029040
5.215	-0.029571
5.220	-0.030126
5.225	-0.030740
5.230	-0.031356
5.235	-0.031953
5.240	-0.032510
5.245	-0.033059
5.250	-0.033784
5.255	-0.034538
5.260	-0.035372
5.265	-0.036306
5.270	-0.037231
5.275	-0.038245
5.280	-0.039379
5.285	-0.040624
5.290	-0.042024
5.295	-0.043629
5.300	-0.045436
5.305	-0.047579
5.310	-0.049866
5.315	-0.052392
5.320	-0.055048
5.325	-0.057768
5.330	-0.060065
5.335	-0.062273
5.340	-0.063652
5.345	-0.064596
5.350	-0.065322
5.355	-0.064981
5.360	-0.063837
5.365	-0.062352
5.370	-0.059439
5.375	-0.054889
5.380	-0.050009
5.385	-0.045100
5.390	-0.038830
5.395	-0.030541
5.400	-0.021303
5.405	-0.013102
5.410	-0.007009
5.415	-0.003078
5.420	-0.000772
5.425	0.000421
5.430	0.000982
5.435	0.001189
5.440	0.001217
5.445	0.001326
5.450	0.001381
5.455	0.001359
5.460	0.001351
5.465	0.001364
5.470	0.001344
5.475	0.001337
5.480	0.001322
5.485	0.001300
5.490	0.001326
5.495	0.001326
5.500	0.001276
5.505	0.001289
5.510	0.001295
5.515	0.001280
5.520	0.001266
5.525	0.001286
5.530	0.001279
5.535	0.001285
5.540	0.001265
5.545	0.001292
5.550	0.001297
5.555	0.001283
5.560	0.001303
5.565	0.001283
5.570	0.001261
5.575	0.001241
5.580	0.001268
5.585	0.001254
5.590	0.001260
5.595	0.001247
5.600	0.001246
5.605	0.001247
5.610	0.001268
5.615	0.001295
5.620	0.001321
5.625	0.001335
5.630	0.001397
5.635	0.001431
5.640	0.001493
5.645	0.001596
5.650	0.001699
5.655	0.001761
5.660	0.001905
5.665	0.001995
5.670	0.002154
5.675	0.002279
5.680	0.002415
5.685	0.002504
5.690	0.002641
5.695	0.002697
5.700	0.002773
5.705	0.002787
5.710	0.002780
5.715	0.002780
5.720	0.002698
5.725	0.002650
5.730	0.002575
5.735	0.002451
5.740	0.002357
5.745	0.002233
5.750	0.002122
5.755	0.002019
5.760	0.001909
5.765	0.001820
5.770	0.001703
5.775	0.001636
5.780	0.001602
5.785	0.001540
5.790	0.001527
5.795	0.001472
5.800	0.001452
5.805	0.001454
5.810	0.001427
5.815	0.001448
5.820	0.001441
5.825	0.001414
5.830	0.001408
5.835	0.001429
5.840	0.001456
5.845	0.001450
5.850	0.001463
5.855	0.001476
5.860	0.001455
5.865	0.001454
5.870	0.001454
5.875	0.001454
5.880	0.001487
5.885	0.001491
5.890	0.001484
5.895	0.001517
5.900	0.001537
5.905	0.001523
5.910	0.001543
5.915	0.001515
5.920	0.001535
5.925	0.001535
5.930	0.001534
5.935	0.001562
5.940	0.001549
5.945	0.001604
5.950	0.001576
5.955	0.001596
5.960	0.001589
5.965	0.001624
5.970	0.001630
5.975	0.001603
5.980	0.001623
5.985	0.001624
5.990	0.001596
5.995	0.001630
6.000	0.001651
6.005	0.001673
6.010	0.001659
6.015	0.001679
6.020	0.001699
6.025	0.001685
6.030	0.001713
6.035	0.001686
6.040	0.001706
6.045	0.001686
6.050	0.001699
6.055	0.001727
6.060	0.001714
6.065	0.001734
6.070	0.001721
6.075	0.001728
6.080	0.001749
6.085	0.001775
6.090	0.001748
6.095	0.001742
6.100	0.001749
6.105	0.001762
6.110	0.001728
6.115	0.001763
6.120	0.001782
6.125	0.001762
6.130	0.001748
6.135	0.001762
6.140	0.001763
6.145	0.001776
6.150	0.001755
6.155	0.001783
6.160	0.001783
6.165	0.001783
6.170	0.001776
6.175	0.001811
6.180	0.001769
6.185	0.001770
6.190	0.001811
6.195	0.001798
6.200	0.001819
6.205	0.001807
6.210	0.001786
6.215	0.001806
6.220	0.001806
6.225	0.001807
6.230	0.001821
6.235	0.001829
6.240	0.001801
6.245	0.001821
6.250	0.001835
6.255	0.001808
6.260	0.001835
6.265	0.001808
6.270	0.001830
6.275	0.001851
6.280	0.001829
6.285	0.001842
6.290	0.001877
6.295	0.001863
6.300	0.001855
6.305	0.001862
6.310	0.001882
6.315	0.001847
6.320	0.001854
6.325	0.001881
6.330	0.001874
6.335	0.001854
6.340	0.001875
6.345	0.001875
6.350	0.001881
6.355	0.001909
6.360	0.001874
6.365	0.001895
6.370	0.001895
6.375	0.001916
6.380	0.001874
6.385	0.001922
6.390	0.001865
6.395	0.001907
6.400	0.001886
6.405	0.001887
6.410	0.001880
6.415	0.001934
6.420	0.001926
6.425	0.001940
6.430	0.001912
6.435	0.001932
6.440	0.001904
6.445	0.001924
6.450	0.001917
6.455	0.001945
6.460	0.001917
6.465	0.001937
6.470	0.001924
6.475	0.001939
6.480	0.001959
6.485	0.001964
6.490	0.001964
6.495	0.001985
6.500	0.001985
6.505	0.001957
6.510	0.001999
6.515	0.001998
6.520	0.001943
6.525	0.001991
6.530	0.001998
6.535	0.002019
6.540	0.001993
6.545	0.001986
6.550	0.001998
6.555	0.001971
6.560	0.002025
6.565	0.002032
6.570	0.002005
6.575	0.002005
6.580	0.001984
6.585	0.002032
6.590	0.002025
6.595	0.001991
6.600	0.002004
6.605	0.002012
6.610	0.002047
6.615	0.002052
6.620	0.002024
6.625	0.002052
6.630	0.002066
6.635	0.002052
6.640	0.002073
6.645	0.002059
6.650	0.002059
6.655	0.002074
6.660	0.002067
6.665	0.002067
6.670	0.002082
6.675	0.002116
6.680	0.002102
6.685	0.002095
6.690	0.002116
6.695	0.002137
6.700	0.002130
6.705	0.002123
6.710	0.002144
6.715	0.002130
6.720	0.002156
6.725	0.002155
6.730	0.002148
6.735	0.002183
6.740	0.002176
6.745	0.002175
6.750	0.002181
6.755	0.002201
6.760	0.002222
6.765	0.002208
6.770	0.002221
6.775	0.002228
6.780	0.002214
6.785	0.002214
6.790	0.002193
6.795	0.002228
6.800	0.002214
6.805	0.002222
6.810	0.002222
6.815	0.002221
6.820	0.002227
6.825	0.002200
6.830	0.002193
6.835	0.002220
6.840	0.002192
6.845	0.002186
6.850	0.002199
6.855	0.002178
6.860	0.002171
6.865	0.002192
6.870	0.002186
6.875	0.002180
6.880	0.002178
6.885	0.002185
6.890	0.002177
6.895	0.002150
6.900	0.002205
6.905	0.002205
6.910	0.002171
6.915	0.002199
6.920	0.002212
6.925	0.002192
6.930	0.002226
6.935	0.002213
6.940	0.002242
6.945	0.002241
6.950	0.002253
6.955	0.002240
6.960	0.002212
6.965	0.002260
6.970	0.002253
6.975	0.002260
6.980	0.002245
6.985	0.002245
6.990	0.002252
6.995	0.002266
7.000	0.002273
7.005	0.002281
7.010	0.002281
7.015	0.002280
7.020	0.002272
7.025	0.002280
7.030	0.002301
7.035	0.002287
7.040	0.002307
7.045	0.002293
7.050	0.002280
7.055	0.002287
7.060	0.002321
7.065	0.002280
7.070	0.002302
7.075	0.002316
7.080	0.002315
7.085	0.002342
7.090	0.002328
7.095	0.002342
7.100	0.002342
7.105	0.002336
7.110	0.002349
7.115	0.002349
7.120	0.002321
7.125	0.002370
7.130	0.002377
7.135	0.002378
7.140	0.002331
7.145	0.002358
7.150	0.002405
7.155	0.002378
7.160	0.002378
7.165	0.002392
7.170	0.002419
7.175	0.002399
7.180	0.002385
7.185	0.002413
7.190	0.002433
7.195	0.002440
7.200	0.002447
7.205	0.002456
7.210	0.002455
7.215	0.002461
7.220	0.002494
7.225	0.002495
7.230	0.002536
7.235	0.002550
7.240	0.002536
7.245	0.002544
7.250	0.002571
7.255	0.002550
7.260	0.002578
7.265	0.002571
7.270	0.002573
7.275	0.002567
7.280	0.002579
7.285	0.002565
7.290	0.002544
7.295	0.002579
7.300	0.002566
7.305	0.002580
7.310	0.002573
7.315	0.002573
7.320	0.002593
7.325	0.002538
7.330	0.002587
7.335	0.002539
7.340	0.002589
7.345	0.002596
7.350	0.002580
7.355	0.002601
7.360	0.002615
7.365	0.002629
7.370	0.002601
7.375	0.002636
7.380	0.002622
7.385	0.002615
7.390	0.002642
7.395	0.002684
7.400	0.002636
7.405	0.002672
7.410	0.002685
7.415	0.002677
7.420	0.002698
7.425	0.002677
7.430	0.002692
7.435	0.002685
7.440	0.002671
7.445	0.002657
7.450	0.002671
7.455	0.002692
7.460	0.002691
7.465	0.002650
7.470	0.002685
7.475	0.002665
7.480	0.002685
7.485	0.002732
7.490	0.002711
7.495	0.002712
7.500	0.002726
7.505	0.002760
7.510	0.002767
7.515	0.002780
7.520	0.002800
7.525	0.002814
7.530	0.002800
7.535	0.002850
7.540	0.002844
7.545	0.002857
7.550	0.002910
7.555	0.002862
7.560	0.002924
7.565	0.002939
7.570	0.002938
7.575	0.002931
7.580	0.002938
7.585	0.002931
7.590	0.002986
7.595	0.002944
7.600	0.002986
7.605	0.002967
7.610	0.003015
7.615	0.002986
7.620	0.002992
7.625	0.002985
7.630	0.003027
7.635	0.003034
7.640	0.003033
7.645	0.003033
7.650	0.003047
7.655	0.003054
7.660	0.003075
7.665	0.003040
7.670	0.003076
7.675	0.003111
7.680	0.003068
7.685	0.003108
7.690	0.003137
7.695	0.003116
7.700	0.003144
7.705	0.003123
7.710	0.003143
7.715	0.003172
7.720	0.003143
7.725	0.003157
7.730	0.003149
7.735	0.003150
7.740	0.003213
7.745	0.003171
7.750	0.003183
7.755	0.003191
7.760	0.003204
7.765	0.003204
7.770	0.003224
7.775	0.003224
7.780	0.003238
7.785	0.003231
7.790	0.003251
7.795	0.003273
7.800	0.003273
7.805	0.003241
7.810	0.003247
7.815	0.003315
7.820	0.003323
7.825	0.003325
7.830	0.003340
7.835	0.003348
7.840	0.003328
7.845	0.003378
7.850	0.003359
7.855	0.003333
7.860	0.003347
7.865	0.003390
7.870	0.003364
7.875	0.003386
7.880	0.003369
7.885	0.003400
7.890	0.003425
7.895	0.003452
7.900	0.003470
7.905	0.003455
7.910	0.003454
7.915	0.003480
7.920	0.003494
7.925	0.003452
7.930	0.003494
7.935	0.003508
7.940	0.003530
7.945	0.003508
7.950	0.003547
7.955	0.003541
7.960	0.003562
7.965	0.003569
7.970	0.003583
7.975	0.003596
7.980	0.003596
7.985	0.003589
7.990	0.003636
7.995	0.003650
8.000	0.003650
8.005	0.003638
8.010	0.003665
8.015	0.003670
8.020	0.003677
8.025	0.003684
8.030	0.003711
8.035	0.003704
8.040	0.003751
8.045	0.003745
8.050	0.003759
8.055	0.003751
8.060	0.003737
8.065	0.003758
8.070	0.003787
8.075	0.003801
8.080	0.003814
8.085	0.003806
8.090	0.003848
8.095	0.003869
8.100	0.003882
8.105	0.003869
8.110	0.003876
8.115	0.003917
8.120	0.003937
8.125	0.003923
8.130	0.003958
8.135	0.003952
8.140	0.003947
8.145	0.003987
8.150	0.004026
8.155	0.004026
8.160	0.004060
8.165	0.004053
8.170	0.004059
8.175	0.004066
8.180	0.004072
8.185	0.004093
8.190	0.004148
8.195	0.004127
8.200	0.004128
8.205	0.004185
8.210	0.004190
8.215	0.004202
8.220	0.004216
8.225	0.004231
8.230	0.004251
8.235	0.004238
8.240	0.004258
8.245	0.004306
8.250	0.004285
8.255	0.004312
8.260	0.004319
8.265	0.004401
8.270	0.004355
8.275	0.004397
8.280	0.004416
8.285	0.004409
8.290	0.004450
8.295	0.004478
8.300	0.004478
8.305	0.004470
8.310	0.004505
8.315	0.004519
8.320	0.004533
8.325	0.004533
8.330	0.004581
8.335	0.004576
8.340	0.004612
8.345	0.004603
8.350	0.004636
8.355	0.004664
8.360	0.004691
8.365	0.004719
8.370	0.004747
8.375	0.004733
8.380	0.004720
8.385	0.004775
8.390	0.004795
8.395	0.004816
8.400	0.004830
8.405	0.004832
8.410	0.004866
8.415	0.004892
8.420	0.004899
8.425	0.004913
8.430	0.004968
8.435	0.004941
8.440	0.004969
8.445	0.004983
8.450	0.005017
8.455	0.005045
8.460	0.005031
8.465	0.005086
8.470	0.005081
8.475	0.005116
8.480	0.005121
8.485	0.005169
8.490	0.005176
8.495	0.005231
8.500	0.005183
8.505	0.005232
8.510	0.005266
8.515	0.005273
8.520	0.005281
8.525	0.005309
8.530	0.005364
8.535	0.005376
8.540	0.005406
8.545	0.005428
8.550	0.005448
8.555	0.005486
8.560	0.005495
8.565	0.005528
8.570	0.005544
8.575	0.005583
8.580	0.005632
8.585	0.005632
8.590	0.005683
8.595	0.005698
8.600	0.005728
8.605	0.005763
8.610	0.005787
8.615	0.005756
8.620	0.005796
8.625	0.005859
8.630	0.005895
8.635	0.005931
8.640	0.005971
8.645	0.005992
8.650	0.006019
8.655	0.006040
8.660	0.006060
8.665	0.006116
8.670	0.006147
8.675	0.006168
8.680	0.006214
8.685	0.006206
8.690	0.006269
8.695	0.006317
8.700	0.006359
8.705	0.006365
8.710	0.006373
8.715	0.006441
8.720	0.006476
8.725	0.006532
8.730	0.006525
8.735	0.006549
8.740	0.006582
8.745	0.006645
8.750	0.006684
8.755	0.006713
8.760	0.006740
8.765	0.006776
8.770	0.006796
8.775	0.006852
8.780	0.006865
8.785	0.006935
8.790	0.006989
8.795	0.006989
8.800	0.007039
8.805	0.007077
8.810	0.007151
8.815	0.007130
8.820	0.007176
8.825	0.007239
8.830	0.007254
8.835	0.007335
8.840	0.007389
8.845	0.007403
8.850	0.007431
8.855	0.007491
8.860	0.007560
8.865	0.007596
8.870	0.007641
8.875	0.007704
8.880	0.007708
8.885	0.007798
8.890	0.007843
8.895	0.007896
8.900	0.007938
8.905	0.007971
8.910	0.008074
8.915	0.008107
8.920	0.008139
8.925	0.008170
8.930	0.008255
8.935	0.008301
8.940	0.008360
8.945	0.008436
8.950	0.008461
8.955	0.008548
8.960	0.008637
8.965	0.008665
8.970	0.008729
8.975	0.008777
8.980	0.008824
8.985	0.008886
8.990	0.008942
8.995	0.009012
9.000	0.009062
9.005	0.009113
9.010	0.009202
9.015	0.009280
9.020	0.009366
9.025	0.009405
9.030	0.009468
9.035	0.009536
9.040	0.009595
9.045	0.009655
9.050	0.009777
9.055	0.009853
9.060	0.009898
9.065	0.009971
9.070	0.010088
9.075	0.010178
9.080	0.010276
9.085	0.010352
9.090	0.010409
9.095	0.010520
9.100	0.010554
9.105	0.010686
9.110	0.010810
9.115	0.010921
9.120	0.010992
9.125	0.011102
9.130	0.011229
9.135	0.011289
9.140	0.011394
9.145	0.011525
9.150	0.011611
9.155	0.011769
9.160	0.011858
9.165	0.012003
9.170	0.012085
9.175	0.012250
9.180	0.012381
9.185	0.012470
9.190	0.012661
9.195	0.012728
9.200	0.012845
9.205	0.013022
9.210	0.013128
9.215	0.013284
9.220	0.013455
9.225	0.013649
9.230	0.013802
9.235	0.013927
9.240	0.014119
9.245	0.014280
9.250	0.014455
9.255	0.014692
9.260	0.014896
9.265	0.015114
9.270	0.015314
9.275	0.015568
9.280	0.015763
9.285	0.016047
9.290	0.016330
9.295	0.016592
9.300	0.016847
9.305	0.017191
9.310	0.017447
9.315	0.017747
9.320	0.018135
9.325	0.018475
9.330	0.018829
9.335	0.019219
9.340	0.019615
9.345	0.020024
9.350	0.020504
9.355	0.020973
9.360	0.021492
9.365	0.022021
9.370	0.022632
9.375	0.023223
9.380	0.023957
9.385	0.024699
9.390	0.025558
9.395	0.026542
9.400	0.027762
9.405	0.029223
9.410	0.030866
9.415	0.032877
9.420	0.035088
9.425	0.037439
9.430	0.039917
9.435	0.042162
9.440	0.044113
9.445	0.045841
9.450	0.047026
9.455	0.047801
9.460	0.048185
9.465	0.047811
9.470	0.046531
9.475	0.044416
9.480	0.041698
9.485	0.038234
9.490	0.033607
9.495	0.027547
9.500	0.020584
9.505	0.013856
9.510	0.008189
9.515	0.004013
9.520	0.001317
9.525	-0.000236
9.530	-0.001071
9.535	-0.001436
9.540	-0.001616
9.545	-0.001767
9.550	-0.001816
9.555	-0.001878
9.560	-0.001905
9.565	-0.001926
9.570	-0.001919
9.575	-0.001919
9.580	-0.001933
9.585	-0.001960
9.590	-0.001933
9.595	-0.001933
9.600	-0.001954
9.605	-0.001968
9.610	-0.001961
9.615	-0.001954
9.620	-0.001947
9.625	-0.001947
9.630	-0.001954
9.635	-0.001968
9.640	-0.001961
9.645	-0.001947
9.650	-0.002009
9.655	-0.002002
9.660	-0.001975
9.665	-0.001995
9.670	-0.002016
9.675	-0.002002
9.680	-0.002009
9.685	-0.001961
9.690	-0.002016
9.695	-0.002002
9.700	-0.002009
9.705	-0.002002
9.710	-0.002030
9.715	-0.002030
9.720	-0.002024
9.725	-0.002024
9.730	-0.002031
9.735	-0.002017
9.740	-0.002031
9.745	-0.002010
9.750	-0.002066
9.755	-0.002052
9.760	-0.002024
9.765	-0.002072
9.770	-0.002045
9.775	-0.002052
9.780	-0.002031
9.785	-0.002059
9.790	-0.002017
9.795	-0.002052
9.800	-0.002038
9.805	-0.002038
9.810	-0.002032
9.815	-0.002059
9.820	-0.002066
9.825	-0.002073
9.830	-0.002052
9.835	-0.002046
9.840	-0.002080
9.845	-0.002060
9.850	-0.002046
9.855	-0.002039
9.860	-0.002046
9.865	-0.002067
9.870	-0.002046
9.875	-0.002080
9.880	-0.002087
9.885	-0.002039
9.890	-0.002074
9.895	-0.002081
9.900	-0.002025
9.905	-0.002122
9.910	-0.002088
9.915	-0.002081
9.920	-0.002088
9.925	-0.002067
9.930	-0.002081
9.935	-0.002081
9.940	-0.002060
9.945	-0.002040
9.950	-0.002074
9.955	-0.002081
9.960	-0.002081
9.965	-0.002095
9.970	-0.002074
9.975	-0.002116
9.980	-0.002095
9.985	-0.002081
9.990	-0.002088
9.995	-0.002123
10.000	-0.002061
10.005	-0.002054
10.010	-0.002082
10.015	-0.002082
10.020	-0.002096
10.025	-0.002116
10.030	-0.002130
10.035	-0.002103
10.040	-0.002117
10.045	-0.002110
10.050	-0.002068
10.055	-0.002117
10.060	-0.002103
10.065	-0.002110
10.070	-0.002068
10.075	-0.002103
10.080	-0.002117
10.085	-0.002096
10.090	-0.002110
10.095	-0.002138
10.100	-0.002117
10.105	-0.002097
10.110	-0.002124
10.115	-0.002097
10.120	-0.002110
10.125	-0.002103
10.130	-0.002097
10.135	-0.002069
10.140	-0.002124
10.145	-0.002131
10.150	-0.002124
10.155	-0.002117
10.160	-0.002145
10.165	-0.002138
10.170	-0.002138
10.175	-0.002146
10.180	-0.002153
10.185	-0.002111
10.190	-0.002145
10.195	-0.002132
10.200	-0.002132
10.205	-0.002138
10.210	-0.002173
10.215	-0.002173
10.220	-0.002125
10.225	-0.002152
10.230	-0.002132
10.235	-0.002159
10.240	-0.002146
10.245	-0.002139
10.250	-0.002173
10.255	-0.002166
10.260	-0.002132
10.265	-0.002152
10.270	-0.002173
10.275	-0.002180
10.280	-0.002173
10.285	-0.002194
10.290	-0.002194
10.295	-0.002159
10.300	-0.002166
10.305	-0.002180
10.310	-0.002187
10.315	-0.002166
10.320	-0.002187
10.325	-0.002207
10.330	-0.002173
10.335	-0.002173
10.340	-0.002173
10.345	-0.002207
10.350	-0.002221
10.355	-0.002194
10.360	-0.002207
10.365	-0.002207
10.370	-0.002208
10.375	-0.002187
10.380	-0.002215
10.385	-0.002228
10.390	-0.002221
10.395	-0.002207
10.400	-0.002187
10.405	-0.002228
10.410	-0.002228
10.415	-0.002235
10.420	-0.002249
10.425	-0.002221
10.430	-0.002256
10.435	-0.002214
10.440	-0.002215
10.445	-0.002236
10.450	-0.002242
10.455	-0.002235
10.460	-0.002228
10.465	-0.002242
10.470	-0.002228
10.475	-0.002235
10.480	-0.002242
10.485	-0.002256
10.490	-0.002270
10.495	-0.002249
10.500	-0.002242
10.505	-0.002270
10.510	-0.002263
10.515	-0.002235
10.520	-0.002256
10.525	-0.002270
10.530	-0.002277
10.535	-0.002270
10.540	-0.002284
10.545	-0.002270
10.550	-0.002277
10.555	-0.002277
10.560	-0.002304
10.565	-0.002297
10.570	-0.002256
10.575	-0.002270
10.580	-0.002277
10.585	-0.002256
10.590	-0.002291
10.595	-0.002256
10.600	-0.002284
10.605	-0.002235
10.610	-0.002291
10.615	-0.002291
10.620	-0.002263
10.625	-0.002304
10.630	-0.002305
10.635	-0.002277
10.640	-0.002298
10.645	-0.002305
10.650	-0.002291
10.655	-0.002298
10.660	-0.002284
10.665	-0.002305
10.670	-0.002250
10.675	-0.002284
10.680	-0.002339
10.685	-0.002339
10.690	-0.002319
10.695	-0.002305
10.700	-0.002353
10.705	-0.002333
10.710	-0.002305
10.715	-0.002326
10.720	-0.002346
10.725	-0.002305
10.730	-0.002346
10.735	-0.002353
10.740	-0.002340
10.745	-0.002319
10.750	-0.002353
10.755	-0.002333
10.760	-0.002346
10.765	-0.002326
10.770	-0.002354
10.775	-0.002333
10.780	-0.002360
10.785	-0.002326
10.790	-0.002367
10.795	-0.002353
10.800	-0.002354
10.805	-0.002347
10.810	-0.002354
10.815	-0.002381
10.820	-0.002360
10.825	-0.002360
10.830	-0.002381
10.835	-0.002388
10.840	-0.002368
10.845	-0.002368
10.850	-0.002367
10.855	-0.002374
10.860	-0.002361
10.865	-0.002381
10.870	-0.002375
10.875	-0.002361
10.880	-0.002347
10.885	-0.002382
10.890	-0.002402
10.895	-0.002437
10.900	-0.002382
10.905	-0.002389
10.910	-0.002382
10.915	-0.002403
10.920	-0.002375
10.925	-0.002403
10.930	-0.002361
10.935	-0.002396
10.940	-0.002389
10.945	-0.002430
10.950	-0.002396
10.955	-0.002410
10.960	-0.002424
10.965	-0.002424
10.970	-0.002410
10.975	-0.002445
10.980	-0.002417
10.985	-0.002410
10.990	-0.002410
10.995	-0.002410
11.000	-0.002410
11.005	-0.002410
11.010	-0.002424
11.015	-0.002417
11.020	-0.002431
11.025	-0.002445
11.030	-0.002458
11.035	-0.002417
11.040	-0.002431
11.045	-0.002473
11.050	-0.002438
11.055	-0.002445
11.060	-0.002452
11.065	-0.002411
11.070	-0.002404
11.075	-0.002445
11.080	-0.002452
11.085	-0.002452
11.090	-0.002459
11.095	-0.002466
11.100	-0.002466
11.105	-0.002446
11.110	-0.002480
11.115	-0.002467
11.120	-0.002460
11.125	-0.002453
11.130	-0.002467
11.135	-0.002494
11.140	-0.002467
11.145	-0.002446
11.150	-0.002474
11.155	-0.002474
11.160	-0.002488
11.165	-0.002467
11.170	-0.002460
11.175	-0.002467
11.180	-0.002460
11.185	-0.002495
11.190	-0.002467
11.195	-0.002460
11.200	-0.002509
11.205	-0.002453
11.210	-0.002481
11.215	-0.002488
11.220	-0.002495
11.225	-0.002474
11.230	-0.002474
11.235	-0.002468
11.240	-0.002496
11.245	-0.002503
11.250	-0.002488
11.255	-0.002495
11.260	-0.002502
11.265	-0.002523
11.270	-0.002488
11.275	-0.002495
11.280	-0.002502
11.285	-0.002530
11.290	-0.002516
11.295	-0.002488
11.300	-0.002502
11.305	-0.002510
11.310	-0.002503
11.315	-0.002516
11.320	-0.002516
11.325	-0.002509
11.330	-0.002503
11.335	-0.002517
11.340	-0.002530
11.345	-0.002503
11.350	-0.002523
11.355	-0.002537
11.360	-0.002510
11.365	-0.002537
11.370	-0.002524
11.375	-0.002517
11.380	-0.002517
11.385	-0.002516
11.390	-0.002537
11.395	-0.002517
11.400	-0.002503
11.405	-0.002544
11.410	-0.002544
11.415	-0.002558
11.420	-0.002516
11.425	-0.002523
11.430	-0.002551
11.435	-0.002558
11.440	-0.002524
11.445	-0.002531
11.450	-0.002558
11.455	-0.002558
11.460	-0.002565
11.465	-0.002537
11.470	-0.002544
11.475	-0.002558
11.480	-0.002551
11.485	-0.002551
11.490	-0.002572
11.495	-0.002565
11.500	-0.002558
11.505	-0.002552
11.510	-0.002607
11.515	-0.002593
11.520	-0.002572
11.525	-0.002572
11.530	-0.002558
11.535	-0.002600
11.540	-0.002524
11.545	-0.002565
11.550	-0.002593
11.555	-0.002586
11.560	-0.002600
11.565	-0.002607
11.570	-0.002559
11.575	-0.002566
11.580	-0.002579
11.585	-0.002600
11.590	-0.002600
11.595	-0.002614
11.600	-0.002607
11.605	-0.002607
11.610	-0.002614
11.615	-0.002600
11.620	-0.002607
11.625	-0.002607
11.630	-0.002607
11.635	-0.002614
11.640	-0.002601
11.645	-0.002573
11.650	-0.002607
11.655	-0.002579
11.660	-0.002600
11.665	-0.002600
11.670	-0.002628
11.675	-0.002628
11.680	-0.002600
11.685	-0.002614
11.690	-0.002621
11.695	-0.002635
11.700	-0.002656
11.705	-0.002601
11.710	-0.002636
11.715	-0.002621
11.720	-0.002635
11.725	-0.002628
11.730	-0.002628
11.735	-0.002621
11.740	-0.002642
11.745	-0.002656
11.750	-0.002643
11.755	-0.002656
11.760	-0.002670
11.765	-0.002650
11.770	-0.002629
11.775	-0.002623
11.780	-0.002664
11.785	-0.002663
11.790	-0.002636
11.795	-0.002643
11.800	-0.002670
11.805	-0.002643
11.810	-0.002650
11.815	-0.002677
11.820	-0.002691
11.825	-0.002691
11.830	-0.002657
11.835	-0.002671
11.840	-0.002671
11.845	-0.002650
11.850	-0.002678
11.855	-0.002691
11.860	-0.002671
11.865	-0.002657
11.870	-0.002685
11.875	-0.002678
11.880	-0.002657
11.885	-0.002692
11.890	-0.002671
11.895	-0.002678
11.900	-0.002699
11.905	-0.002678
11.910	-0.002699
11.915	-0.002706
11.920	-0.002685
11.925	-0.002692
11.930	-0.002706
11.935	-0.002685
11.940	-0.002692
11.945	-0.002733
11.950	-0.002685
11.955	-0.002692
11.960	-0.002726
11.965	-0.002740
11.970	-0.002706
11.975	-0.002720
11.980	-0.002699
11.985	-0.002692
11.990	-0.002734
11.995	-0.002699
12.000	-0.002699
12.005	-0.002748
12.010	-0.002706
12.015	-0.002720
12.020	-0.002734
12.025	-0.002713
12.030	-0.002734
12.035	-0.002720
12.040	-0.002714
12.045	-0.002748
12.050	-0.002762
12.055	-0.002720
12.060	-0.002727
12.065	-0.002748
12.070	-0.002727
12.075	-0.002741
12.080	-0.002769
12.085	-0.002755
12.090	-0.002734
12.095	-0.002748
12.100	-0.002776
12.105	-0.002748
12.110	-0.002748
12.115	-0.002734
12.120	-0.002748
12.125	-0.002734
12.130	-0.002755
12.135	-0.002741
12.140	-0.002727
12.145	-0.002824
12.150	-0.002720
12.155	-0.002755
12.160	-0.002803
12.165	-0.002776
12.170	-0.002783
12.175	-0.002776
12.180	-0.002776
12.185	-0.002782
12.190	-0.002790
12.195	-0.002803
12.200	-0.002755
12.205	-0.002803
12.210	-0.002810
12.215	-0.002803
12.220	-0.002803
12.225	-0.002789
12.230	-0.002810
12.235	-0.002811
12.240	-0.002811
12.245	-0.002817
12.250	-0.002775
12.255	-0.002810
12.260	-0.002796
12.265	-0.002796
12.270	-0.002803
12.275	-0.002796
12.280	-0.002831
12.285	-0.002810
12.290	-0.002838
12.295	-0.002831
12.300	-0.002831
12.305	-0.002859
12.310	-0.002811
12.315	-0.002824
12.320	-0.002831
12.325	-0.002824
12.330	-0.002824
12.335	-0.002858
12.340	-0.002844
12.345	-0.002837
12.350	-0.002851
12.355	-0.002858
12.360	-0.002886
12.365	-0.002865
12.370	-0.002845
12.375	-0.002845
12.380	-0.002851
12.385	-0.002865
12.390	-0.002858
12.395	-0.002837
12.400	-0.002879
12.405	-0.002837
12.410	-0.002851
12.415	-0.002858
12.420	-0.002851
12.425	-0.002906
12.430	-0.002885
12.435	-0.002879
12.440	-0.002886
12.445	-0.002879
12.450	-0.002885
12.455	-0.002864
12.460	-0.002878
12.465	-0.002906
12.470	-0.002857
12.475	-0.002892
12.480	-0.002899
12.485	-0.002878
12.490	-0.002912
12.495	-0.002892
12.500	-0.002913
12.505	-0.002899
12.510	-0.002913
12.515	-0.002885
12.520	-0.002905
12.525	-0.002926
12.530	-0.002926
12.535	-0.002906
12.540	-0.002905
12.545	-0.002905
12.550	-0.002912
12.555	-0.002933
12.560	-0.002947
12.565	-0.002946
12.570	-0.002947
12.575	-0.002919
12.580	-0.002933
12.585	-0.002953
12.590	-0.002960
12.595	-0.002946
12.600	-0.002947
12.605	-0.002946
12.610	-0.002926
12.615	-0.002933
12.620	-0.002947
12.625	-0.002939
12.630	-0.002960
12.635	-0.002967
12.640	-0.002954
12.645	-0.002967
12.650	-0.002933
12.655	-0.002967
12.660	-0.002912
12.665	-0.002953
12.670	-0.002974
12.675	-0.002981
12.680	-0.002988
12.685	-0.002974
12.690	-0.002960
12.695	-0.002974
12.700	-0.002994
12.705	-0.002975
12.710	-0.003002
12.715	-0.002967
12.720	-0.003015
12.725	-0.003008
12.730	-0.002946
12.735	-0.002974
12.740	-0.002988
12.745	-0.002981
12.750	-0.002987
12.755	-0.002994
12.760	-0.003015
12.765	-0.002987
12.770	-0.003022
12.775	-0.002995
12.780	-0.003015
12.785	-0.003015
12.790	-0.003015
12.795	-0.003029
12.800	-0.003063
12.805	-0.003001
12.810	-0.003036
12.815	-0.003063
12.820	-0.003056
12.825	-0.003049
12.830	-0.003070
12.835	-0.003036
12.840	-0.003030
12.845	-0.003077
12.850	-0.003043
12.855	-0.003070
12.860	-0.003056
12.865	-0.003098
12.870	-0.003042
12.875	-0.003049
12.880	-0.003056
12.885	-0.003077
12.890	-0.003077
12.895	-0.003049
12.900	-0.003050
12.905	-0.003085
12.910	-0.003064
12.915	-0.003084
12.920	-0.003070
12.925	-0.003077
12.930	-0.003070
12.935	-0.003070
12.940	-0.003077
12.945	-0.003105
12.950	-0.003063
12.955	-0.003070
12.960	-0.003118
12.965	-0.003091
12.970	-0.003092
12.975	-0.003098
12.980	-0.003119
12.985	-0.003118
12.990	-0.003105
12.995	-0.003118
13.000	-0.003098
13.005	-0.003111
13.010	-0.003118
13.015	-0.003091
13.020	-0.003139
13.025	-0.003139
13.030	-0.003132
13.035	-0.003091
13.040	-0.003146
13.045	-0.003112
13.050	-0.003139
13.055	-0.003132
13.060	-0.003125
13.065	-0.003132
13.070	-0.003132
13.075	-0.003146
13.080	-0.003139
13.085	-0.003146
13.090	-0.003146
13.095	-0.003153
13.100	-0.003167
13.105	-0.003140
13.110	-0.003154
13.115	-0.003133
13.120	-0.003119
13.125	-0.003153
13.130	-0.003160
13.135	-0.003146
13.140	-0.003146
13.145	-0.003160
13.150	-0.003188
13.155	-0.003167
13.160	-0.003174
13.165	-0.003160
13.170	-0.003209
13.175	-0.003141
13.180	-0.003188
13.185	-0.003167
13.190	-0.003147
13.195	-0.003182
13.200	-0.003147
13.205	-0.003161
13.210	-0.003154
13.215	-0.003196
13.220	-0.003196
13.225	-0.003154
13.230	-0.003223
13.235	-0.003196
13.240	-0.003190
13.245	-0.003183
13.250	-0.003189
13.255	-0.003175
13.260	-0.003183
13.265	-0.003183
13.270	-0.003190
13.275	-0.003196
13.280	-0.003197
13.285	-0.003196
13.290	-0.003210
13.295	-0.003231
13.300	-0.003218
13.305	-0.003218
13.310	-0.003239
13.315	-0.003238
13.320	-0.003245
13.325	-0.003239
13.330	-0.003225
13.335	-0.003239
13.340	-0.003232
13.345	-0.003246
13.350	-0.003232
13.355	-0.003253
13.360	-0.003218
13.365	-0.003260
13.370	-0.003247
13.375	-0.003219
13.380	-0.003247
13.385	-0.003233
13.390	-0.003246
13.395	-0.003239
13.400	-0.003267
13.405	-0.003246
13.410	-0.003267
13.415	-0.003267
13.420	-0.003274
13.425	-0.003267
13.430	-0.003254
13.435	-0.003261
13.440	-0.003282
13.445	-0.003309
13.450	-0.003247
13.455	-0.003254
13.460	-0.003288
13.465	-0.003275
13.470	-0.003268
13.475	-0.003268
13.480	-0.003309
13.485	-0.003295
13.490	-0.003309
13.495	-0.003295
13.500	-0.003316
13.505	-0.003303
13.510	-0.003276
13.515	-0.003289
13.520	-0.003296
13.525	-0.003275
13.530	-0.003303
13.535	-0.003282
13.540	-0.003310
13.545	-0.003310
13.550	-0.003310
13.555	-0.003309
13.560	-0.003358
13.565	-0.003344
13.570	-0.003310
13.575	-0.003345
13.580	-0.003289
13.585	-0.003330
13.590	-0.003324
13.595	-0.003351
13.600	-0.003351
13.605	-0.003330
13.610	-0.003386
13.615	-0.003358
13.620	-0.003351
13.625	-0.003344
13.630	-0.003365
13.635	-0.003338
13.640	-0.003352
13.645	-0.003372
13.650	-0.003372
13.655	-0.003386
13.660	-0.003379
13.665	-0.003358
13.670	-0.003372
13.675	-0.003330
13.680	-0.003406
13.685	-0.003372
13.690	-0.003399
13.695	-0.003392
13.700	-0.003386
13.705	-0.003407
13.710	-0.003393
13.715	-0.003392
13.720	-0.003413
13.725	-0.003378
13.730	-0.003399
13.735	-0.003392
13.740	-0.003399
13.745	-0.003406
13.750	-0.003413
13.755	-0.003434
13.760	-0.003427
13.765	-0.003413
13.770	-0.003400
13.775	-0.003420
13.780	-0.003406
13.785	-0.003426
13.790	-0.003419
13.795	-0.003426
13.800	-0.003413
13.805	-0.003440
13.810	-0.003426
13.815	-0.003453
13.820	-0.003433
13.825	-0.003447
13.830	-0.003426
13.835	-0.003461
13.840	-0.003441
13.845	-0.003440
13.850	-0.003454
13.855	-0.003419
13.860	-0.003461
13.865	-0.003454
13.870	-0.003454
13.875	-0.003488
13.880	-0.003447
13.885	-0.003481
13.890	-0.003488
13.895	-0.003474
13.900	-0.003461
13.905	-0.003475
13.910	-0.003496
13.915	-0.003481
13.920	-0.003481
13.925	-0.003481
13.930	-0.003481
13.935	-0.003481
13.940	-0.003488
13.945	-0.003495
13.950	-0.003488
13.955	-0.003495
13.960	-0.003502
13.965	-0.003516
13.970	-0.003523
13.975	-0.003503
13.980	-0.003509
13.985	-0.003488
13.990	-0.003516
13.995	-0.003495
14.000	-0.003509
14.005	-0.003495
14.010	-0.003509
14.015	-0.003537
14.020	-0.003523
14.025	-0.003516
14.030	-0.003537
14.035	-0.003544
14.040	-0.003524
14.045	-0.003537
14.050	-0.003558
14.055	-0.003537
14.060	-0.003516
14.065	-0.003557
14.070	-0.003564
14.075	-0.003543
14.080	-0.003564
14.085	-0.003550
14.090	-0.003564
14.095	-0.003564
14.100	-0.003565
14.105	-0.003545
14.110	-0.003544
14.115	-0.003557
14.120	-0.003550
14.125	-0.003551
14.130	-0.003558
14.135	-0.003564
14.140	-0.003585
14.145	-0.003585
14.150	-0.003578
14.155	-0.003564
14.160	-0.003585
14.165	-0.003599
14.170	-0.003607
14.175	-0.003592
14.180	-0.003565
14.185	-0.003592
14.190	-0.003592
14.195	-0.003592
14.200	-0.003613
14.205	-0.003571
14.210	-0.003606
14.215	-0.003606
14.220	-0.003592
14.225	-0.003647
14.230	-0.003620
14.235	-0.003627
14.240	-0.003648
14.245	-0.003606
14.250	-0.003620
14.255	-0.003627
14.260	-0.003613
14.265	-0.003613
14.270	-0.003654
14.275	-0.003634
14.280	-0.003675
14.285	-0.003654
14.290	-0.003661
14.295	-0.003648
14.300	-0.003641
14.305	-0.003669
14.310	-0.003641
14.315	-0.003661
14.320	-0.003661
14.325	-0.003655
14.330	-0.003634
14.335	-0.003668
14.340	-0.003675
14.345	-0.003661
14.350	-0.003668
14.355	-0.003662
14.360	-0.003689
14.365	-0.003676
14.370	-0.003656
14.375	-0.003690
14.380	-0.003724
14.385	-0.003689
14.390	-0.003683
14.395	-0.003689
14.400	-0.003690
14.405	-0.003703
14.410	-0.003704
14.415	-0.003724
14.420	-0.003717
14.425	-0.003717
14.430	-0.003724
14.435	-0.003697
14.440	-0.003725
14.445	-0.003711
14.450	-0.003738
14.455	-0.003717
14.460	-0.003717
14.465	-0.003766
14.470	-0.003752
14.475	-0.003717
14.480	-0.003759
14.485	-0.003752
14.490	-0.003766
14.495	-0.003780
14.500	-0.003718
14.505	-0.003767
14.510	-0.003746
14.515	-0.003800
14.520	-0.003752
14.525	-0.003745
14.530	-0.003780
14.535	-0.003746
14.540	-0.003759
14.545	-0.003766
14.550	-0.003828
14.555	-0.003794
14.560	-0.003780
14.565	-0.003781
14.570	-0.003816
14.575	-0.003802
14.580	-0.003774
14.585	-0.003794
14.590	-0.003794
14.595	-0.003801
14.600	-0.003787
14.605	-0.003808
14.610	-0.003787
14.615	-0.003801
14.620	-0.003835
14.625	-0.003829
14.630	-0.003815
14.635	-0.003802
14.640	-0.003864
14.645	-0.003808
14.650	-0.003808
14.655	-0.003829
14.660	-0.003836
14.665	-0.003836
14.670	-0.003830
14.675	-0.003809
14.680	-0.003837
14.685	-0.003843
14.690	-0.003864
14.695	-0.003830
14.700	-0.003845
14.705	-0.003845
14.710	-0.003872
14.715	-0.003871
14.720	-0.003865
14.725	-0.003885
14.730	-0.003851
14.735	-0.003886
14.740	-0.003844
14.745	-0.003858
14.750	-0.003893
14.755	-0.003893
14.760	-0.003893
14.765	-0.003866
14.770	-0.003901
14.775	-0.003887
14.780	-0.003880
14.785	-0.003928
14.790	-0.003887
14.795	-0.003907
14.800	-0.003908
14.805	-0.003894
14.810	-0.003908
14.815	-0.003935
14.820	-0.003915
14.825	-0.003929
14.830	-0.003950
14.835	-0.003923
14.840	-0.003930
14.845	-0.003923
14.850	-0.003937
14.855	-0.003950
14.860	-0.003923
14.865	-0.003944
14.870	-0.003923
14.875	-0.003943
14.880	-0.003957
14.885	-0.003957
14.890	-0.003958
14.895	-0.003978
14.900	-0.003959
14.905	-0.003966
14.910	-0.003972
14.915	-0.003957
14.920	-0.003951
14.925	-0.003972
14.930	-0.003951
14.935	-0.003972
14.940	-0.003965
14.945	-0.003999
14.950	-0.003944
14.955	-0.003992
14.960	-0.003965
14.965	-0.003992
14.970	-0.003979
14.975	-0.003972
14.980	-0.004006
14.985	-0.004012
14.990	-0.004006
14.995	-0.003978
15.000	-0.003985
15.005	-0.003985
15.010	-0.004005
15.015	-0.003998
15.020	-0.003991
15.025	-0.004026
15.030	-0.003992
15.035	-0.004048
15.040	-0.004027
15.045	-0.004026
15.050	-0.004005
15.055	-0.004033
15.060	-0.004033
15.065	-0.004033
15.070	-0.004061
15.075	-0.004040
15.080	-0.004040
15.085	-0.004026
15.090	-0.004040
15.095	-0.004040
15.100	-0.004061
15.105	-0.004068
15.110	-0.004061
15.115	-0.004047
15.120	-0.004047
15.125	-0.004067
15.130	-0.004054
15.135	-0.004075
15.140	-0.004074
15.145	-0.004088
15.150	-0.004081
15.155	-0.004068
15.160	-0.004123
15.165	-0.004096
15.170	-0.004096
15.175	-0.004082
15.180	-0.004130
15.185	-0.004109
15.190	-0.004069
15.195	-0.004089
15.200	-0.004110
15.205	-0.004131
15.210	-0.004151
15.215	-0.004138
15.220	-0.004131
15.225	-0.004104
15.230	-0.004138
15.235	-0.004146
15.240	-0.004112
15.245	-0.004160
15.250	-0.004172
15.255	-0.004125
15.260	-0.004138
15.265	-0.004145
15.270	-0.004173
15.275	-0.004173
15.280	-0.004166
15.285	-0.004160
15.290	-0.004153
15.295	-0.004208
15.300	-0.004195
15.305	-0.004182
15.310	-0.004202
15.315	-0.004174
15.320	-0.004194
15.325	-0.004174
15.330	-0.004202
15.335	-0.004202
15.340	-0.004202
15.345	-0.004209
15.350	-0.004195
15.355	-0.004202
15.360	-0.004203
15.365	-0.004238
15.370	-0.004197
15.375	-0.004211
15.380	-0.004224
15.385	-0.004245
15.390	-0.004231
15.395	-0.004258
15.400	-0.004238
15.405	-0.004210
15.410	-0.004210
15.415	-0.004272
15.420	-0.004252
15.425	-0.004266
15.430	-0.004238
15.435	-0.004232
15.440	-0.004281
15.445	-0.004266
15.450	-0.004287
15.455	-0.004294
15.460	-0.004267
15.465	-0.004287
15.470	-0.004239
15.475	-0.004260
15.480	-0.004287
15.485	-0.004294
15.490	-0.004294
15.495	-0.004294
15.500	-0.004309
15.505	-0.004302
15.510	-0.004330
15.515	-0.004322
15.520	-0.004294
15.525	-0.004301
15.530	-0.004335
15.535	-0.004308
15.540	-0.004315
15.545	-0.004308
15.550	-0.004356
15.555	-0.004314
15.560	-0.004342
15.565	-0.004336
15.570	-0.004337
15.575	-0.004323
15.580	-0.004370
15.585	-0.004369
15.590	-0.004336
15.595	-0.004356
15.600	-0.004335
15.605	-0.004363
15.610	-0.004363
15.615	-0.004363
15.620	-0.004356
15.625	-0.004377
15.630	-0.004370
15.635	-0.004378
15.640	-0.004392
15.645	-0.004391
15.650	-0.004369
15.655	-0.004404
15.660	-0.004363
15.665	-0.004376
15.670	-0.004390
15.675	-0.004424
15.680	-0.004403
15.685	-0.004410
15.690	-0.004404
15.695	-0.004410
15.700	-0.004425
15.705	-0.004439
15.710	-0.004438
15.715	-0.004382
15.720	-0.004410
15.725	-0.004390
15.730	-0.004459
15.735	-0.004438
15.740	-0.004417
15.745	-0.004438
15.750	-0.004452
15.755	-0.004452
15.760	-0.004431
15.765	-0.004452
15.770	-0.004467
15.775	-0.004460
15.780	-0.004438
15.785	-0.004445
15.790	-0.004486
15.795	-0.004458
15.800	-0.004465
15.805	-0.004485
15.810	-0.004493
15.815	-0.004479
15.820	-0.004486
15.825	-0.004493
15.830	-0.004493
15.835	-0.004480
15.840	-0.004501
15.845	-0.004521
15.850	-0.004541
15.855	-0.004513
15.860	-0.004555
15.865	-0.004506
15.870	-0.004513
15.875	-0.004513
15.880	-0.004520
15.885	-0.004506
15.890	-0.004534
15.895	-0.004533
15.900	-0.004549
15.905	-0.004536
15.910	-0.004570
15.915	-0.004541
15.920	-0.004528
15.925	-0.004562
15.930	-0.004541
15.935	-0.004555
15.940	-0.004562
15.945	-0.004562
15.950	-0.004568
15.955	-0.004589
15.960	-0.004568
15.965	-0.004604
15.970	-0.004598
15.975	-0.004569
15.980	-0.004590
15.985	-0.004569
15.990	-0.004590
15.995	-0.004631
16.000	-0.004589
16.005	-0.004611
16.010	-0.004590
16.015	-0.004617
16.020	-0.004631
16.025	-0.004611
16.030	-0.004645
16.035	-0.004619
16.040	-0.004619
16.045	-0.004618
16.050	-0.004618
16.055	-0.004652
16.060	-0.004639
16.065	-0.004632
16.070	-0.004646
16.075	-0.004659
16.080	-0.004666
16.085	-0.004653
16.090	-0.004660
16.095	-0.004660
16.100	-0.004668
16.105	-0.004682
16.110	-0.004653
16.115	-0.004681
16.120	-0.004681
16.125	-0.004681
16.130	-0.004675
16.135	-0.004702
16.140	-0.004688
16.145	-0.004702
16.150	-0.004702
16.155	-0.004708
16.160	-0.004708
16.165	-0.004723
16.170	-0.004690
16.175	-0.004710
16.180	-0.004729
16.185	-0.004750
16.190	-0.004743
16.195	-0.004729
16.200	-0.004749
16.205	-0.004742
16.210	-0.004722
16.215	-0.004750
16.220	-0.004750
16.225	-0.004778
16.230	-0.004785
16.235	-0.004758
16.240	-0.004772
16.245	-0.004798
16.250	-0.004798
16.255	-0.004785
16.260	-0.004786
16.265	-0.004779
16.270	-0.004806
16.275	-0.004813
16.280	-0.004834
16.285	-0.004813
16.290	-0.004813
16.295	-0.004827
16.300	-0.004801
16.305	-0.004794
16.310	-0.004807
16.315	-0.004807
16.320	-0.004814
16.325	-0.004835
16.330	-0.004842
16.335	-0.004835
16.340	-0.004841
16.345	-0.004834
16.350	-0.004828
16.355	-0.004842
16.360	-0.004863
16.365	-0.004871
16.370	-0.004851
16.375	-0.004863
16.380	-0.004890
16.385	-0.004863
16.390	-0.004885
16.395	-0.004870
16.400	-0.004843
16.405	-0.004912
16.410	-0.004871
16.415	-0.004912
16.420	-0.004885
16.425	-0.004898
16.430	-0.004912
16.435	-0.004900
16.440	-0.004913
16.445	-0.004926
16.450	-0.004884
16.455	-0.004933
16.460	-0.004898
16.465	-0.004919
16.470	-0.004926
16.475	-0.004940
16.480	-0.004967
16.485	-0.004932
16.490	-0.004933
16.495	-0.004926
16.500	-0.004927
16.505	-0.004947
16.510	-0.004933
16.515	-0.004952
16.520	-0.004980
16.525	-0.004967
16.530	-0.004961
16.535	-0.005001
16.540	-0.004974
16.545	-0.004967
16.550	-0.004994
16.555	-0.004980
16.560	-0.005015
16.565	-0.004995
16.570	-0.005003
16.575	-0.005016
16.580	-0.005001
16.585	-0.004973
16.590	-0.005015
16.595	-0.005015
16.600	-0.005015
16.605	-0.005029
16.610	-0.005021
16.615	-0.005049
16.620	-0.005035
16.625	-0.005043
16.630	-0.005057
16.635	-0.005031
16.640	-0.005030
16.645	-0.005056
16.650	-0.005070
16.655	-0.005016
16.660	-0.005099
16.665	-0.005071
16.670	-0.005072
16.675	-0.005086
16.680	-0.005107
16.685	-0.005127
16.690	-0.005100
16.695	-0.005107
16.700	-0.005115
16.705	-0.005102
16.710	-0.005108
16.715	-0.005120
16.720	-0.005135
16.725	-0.005135
16.730	-0.005136
16.735	-0.005136
16.740	-0.005115
16.745	-0.005156
16.750	-0.005177
16.755	-0.005149
16.760	-0.005178
16.765	-0.005187
16.770	-0.005180
16.775	-0.005173
16.780	-0.005180
16.785	-0.005180
16.790	-0.005188
16.795	-0.005187
16.800	-0.005215
16.805	-0.005201
16.810	-0.005202
16.815	-0.005230
16.820	-0.005210
16.825	-0.005202
16.830	-0.005231
16.835	-0.005239
16.840	-0.005239
16.845	-0.005204
16.850	-0.005211
16.855	-0.005231
16.860	-0.005253
16.865	-0.005240
16.870	-0.005254
16.875	-0.005233
16.880	-0.005234
16.885	-0.005262
16.890	-0.005311
16.895	-0.005297
16.900	-0.005278
16.905	-0.005320
16.910	-0.005278
16.915	-0.005311
16.920	-0.005291
16.925	-0.005319
16.930	-0.005298
16.935	-0.005326
16.940	-0.005318
16.945	-0.005312
16.950	-0.005327
16.955	-0.005340
16.960	-0.005326
16.965	-0.005354
16.970	-0.005355
16.975	-0.005340
16.980	-0.005387
16.985	-0.005366
16.990	-0.005373
16.995	-0.005380
17.000	-0.005367
17.005	-0.005346
17.010	-0.005394
17.015	-0.005373
17.020	-0.005400
17.025	-0.005387
17.030	-0.005415
17.035	-0.005415
17.040	-0.005381
17.045	-0.005427
17.050	-0.005379
17.055	-0.005406
17.060	-0.005434
17.065	-0.005405
17.070	-0.005453
17.075	-0.005447
17.080	-0.005454
17.085	-0.005434
17.090	-0.005482
17.095	-0.005461
17.100	-0.005483
17.105	-0.005483
17.110	-0.005448
17.115	-0.005489
17.120	-0.005461
17.125	-0.005495
17.130	-0.005481
17.135	-0.005494
17.140	-0.005473
17.145	-0.005480
17.150	-0.005522
17.155	-0.005502
17.160	-0.005509
17.165	-0.005510
17.170	-0.005517
17.175	-0.005488
17.180	-0.005522
17.185	-0.005522
17.190	-0.005536
17.195	-0.005535
17.200	-0.005536
17.205	-0.005550
17.210	-0.005564
17.215	-0.005529
17.220	-0.005563
17.225	-0.005563
17.230	-0.005564
17.235	-0.005566
17.240	-0.005593
17.245	-0.005577
17.250	-0.005591
17.255	-0.005592
17.260	-0.005578
17.265	-0.005599
17.270	-0.005612
17.275	-0.005599
17.280	-0.005613
17.285	-0.005654
17.290	-0.005640
17.295	-0.005620
17.300	-0.005601
17.305	-0.005614
17.310	-0.005647
17.315	-0.005640
17.320	-0.005633
17.325	-0.005634
17.330	-0.005669
17.335	-0.005675
17.340	-0.005662
17.345	-0.005690
17.350	-0.005670
17.355	-0.005662
17.360	-0.005690
17.365	-0.005712
17.370	-0.005706
17.375	-0.005733
17.380	-0.005697
17.385	-0.005731
17.390	-0.005697
17.395	-0.005711
17.400	-0.005725
17.405	-0.005725
17.410	-0.005738
17.415	-0.005731
17.420	-0.005745
17.425	-0.005772
17.430	-0.005752
17.435	-0.005767
17.440	-0.005759
17.445	-0.005772
17.450	-0.005745
17.455	-0.005746
17.460	-0.005759
17.465	-0.005773
17.470	-0.005786
17.475	-0.005779
17.480	-0.005772
17.485	-0.005792
17.490	-0.005813
17.495	-0.005779
17.500	-0.005823
17.505	-0.005836
17.510	-0.005807
17.515	-0.005855
17.520	-0.005848
17.525	-0.005834
17.530	-0.005827
17.535	-0.005862
17.540	-0.005869
17.545	-0.005841
17.550	-0.005875
17.555	-0.005903
17.560	-0.005876
17.565	-0.005885
17.570	-0.005934
17.575	-0.005897
17.580	-0.005869
17.585	-0.005918
17.590	-0.005870
17.595	-0.005905
17.600	-0.005926
17.605	-0.005946
17.610	-0.005952
17.615	-0.005945
17.620	-0.005967
17.625	-0.005931
17.630	-0.005974
17.635	-0.005954
17.640	-0.005982
17.645	-0.006021
17.650	-0.005979
17.655	-0.006014
17.660	-0.006000
17.665	-0.006001
17.670	-0.006001
17.675	-0.006028
17.680	-0.006007
17.685	-0.006027
17.690	-0.006055
17.695	-0.006034
17.700	-0.006036
17.705	-0.006063
17.710	-0.006075
17.715	-0.006047
17.720	-0.006082
17.725	-0.006061
17.730	-0.006082
17.735	-0.006096
17.740	-0.006075
17.745	-0.006116
17.750	-0.006067
17.755	-0.006121
17.760	-0.006109
17.765	-0.006137
17.770	-0.006076
17.775	-0.006102
17.780	-0.006155
17.785	-0.006169
17.790	-0.006141
17.795	-0.006155
17.800	-0.006168
17.805	-0.006154
17.810	-0.006174
17.815	-0.006174
17.820	-0.006188
17.825	-0.006194
17.830	-0.006195
17.835	-0.006182
17.840	-0.006208
17.845	-0.006214
17.850	-0.006228
17.855	-0.006221
17.860	-0.006221
17.865	-0.006227
17.870	-0.006262
17.875	-0.006248
17.880	-0.006233
17.885	-0.006275
17.890	-0.006280
17.895	-0.006261
17.900	-0.006276
17.905	-0.006255
17.910	-0.006273
17.915	-0.006286
17.920	-0.006314
17.925	-0.006287
17.930	-0.006294
17.935	-0.006335
17.940	-0.006327
17.945	-0.006341
17.950	-0.006341
17.955	-0.006342
17.960	-0.006336
17.965	-0.006358
17.970	-0.006385
17.975	-0.006350
17.980	-0.006371
17.985	-0.006378
17.990	-0.006378
17.995	-0.006392
18.000	-0.006358
18.005	-0.006413
18.010	-0.006433
18.015	-0.006433
18.020	-0.006378
18.025	-0.006414
18.030	-0.006407
18.035	-0.006449
18.040	-0.006450
18.045	-0.006421
18.050	-0.006435
18.055	-0.006469
18.060	-0.006442
18.065	-0.006470
18.070	-0.006470
18.075	-0.006477
18.080	-0.006505
18.085	-0.006477
18.090	-0.006518
18.095	-0.006525
18.100	-0.006486
18.105	-0.006513
18.110	-0.006512
18.115	-0.006546
18.120	-0.006546
18.125	-0.006567
18.130	-0.006533
18.135	-0.006519
18.140	-0.006561
18.145	-0.006608
18.150	-0.006573
18.155	-0.006580
18.160	-0.006567
18.165	-0.006562
18.170	-0.006605
18.175	-0.006617
18.180	-0.006602
18.185	-0.006617
18.190	-0.006643
18.195	-0.006630
18.200	-0.006616
18.205	-0.006644
18.210	-0.006659
18.215	-0.006686
18.220	-0.006686
18.225	-0.006699
18.230	-0.006694
18.235	-0.006688
18.240	-0.006709
18.245	-0.006701
18.250	-0.006708
18.255	-0.006701
18.260	-0.006715
18.265	-0.006708
18.270	-0.006730
18.275	-0.006709
18.280	-0.006751
18.285	-0.006750
18.290	-0.006772
18.295	-0.006764
18.300	-0.006780
18.305	-0.006779
18.310	-0.006778
18.315	-0.006818
18.320	-0.006805
18.325	-0.006812
18.330	-0.006812
18.335	-0.006771
18.340	-0.006854
18.345	-0.006867
18.350	-0.006826
18.355	-0.006853
18.360	-0.006867
18.365	-0.006855
18.370	-0.006855
18.375	-0.006875
18.380	-0.006868
18.385	-0.006882
18.390	-0.006909
18.395	-0.006924
18.400	-0.006896
18.405	-0.006938
18.410	-0.006925
18.415	-0.006939
18.420	-0.006952
18.425	-0.006958
18.430	-0.006989
18.435	-0.006962
18.440	-0.006990
18.445	-0.006988
18.450	-0.006995
18.455	-0.007002
18.460	-0.007024
18.465	-0.007017
18.470	-0.007017
18.475	-0.007010
18.480	-0.007009
18.485	-0.007037
18.490	-0.007025
18.495	-0.007047
18.500	-0.007064
18.505	-0.007084
18.510	-0.007081
18.515	-0.007103
18.520	-0.007131
18.525	-0.007103
18.530	-0.007111
18.535	-0.007098
18.540	-0.007099
18.545	-0.007147
18.550	-0.007182
18.555	-0.007161
18.560	-0.007175
18.565	-0.007192
18.570	-0.007178
18.575	-0.007169
18.580	-0.007189
18.585	-0.007217
18.590	-0.007190
18.595	-0.007204
18.600	-0.007219
18.605	-0.007245
18.610	-0.007259
18.615	-0.007204
18.620	-0.007252
18.625	-0.007265
18.630	-0.007253
18.635	-0.007288
18.640	-0.007274
18.645	-0.007301
18.650	-0.007281
18.655	-0.007303
18.660	-0.007282
18.665	-0.007345
18.670	-0.007317
18.675	-0.007337
18.680	-0.007331
18.685	-0.007324
18.690	-0.007360
18.695	-0.007402
18.700	-0.007375
18.705	-0.007430
18.710	-0.007416
18.715	-0.007402
18.720	-0.007416
18.725	-0.007436
18.730	-0.007435
18.735	-0.007448
18.740	-0.007450
18.745	-0.007471
18.750	-0.007457
18.755	-0.007505
18.760	-0.007442
18.765	-0.007507
18.770	-0.007522
18.775	-0.007520
18.780	-0.007499
18.785	-0.007525
18.790	-0.007548
18.795	-0.007569
18.800	-0.007569
18.805	-0.007520
18.810	-0.007576
18.815	-0.007625
18.820	-0.007577
18.825	-0.007592
18.830	-0.007614
18.835	-0.007656
18.840	-0.007628
18.845	-0.007625
18.850	-0.007633
18.855	-0.007654
18.860	-0.007661
18.865	-0.007695
18.870	-0.007725
18.875	-0.007705
18.880	-0.007720
18.885	-0.007721
18.890	-0.007715
18.895	-0.007729
18.900	-0.007726
18.905	-0.007733
18.910	-0.007788
18.915	-0.007768
18.920	-0.007782
18.925	-0.007775
18.930	-0.007783
18.935	-0.007791
18.940	-0.007783
18.945	-0.007823
18.950	-0.007808
18.955	-0.007822
18.960	-0.007844
18.965	-0.007847
18.970	-0.007861
18.975	-0.007853
18.980	-0.007879
18.985	-0.007864
18.990	-0.007897
18.995	-0.007902
19.000	-0.007928
19.005	-0.007920
19.010	-0.007925
19.015	-0.007951
19.020	-0.007972
19.025	-0.007973
19.030	-0.007989
19.035	-0.007996
19.040	-0.008014
19.045	-0.008006
19.050	-0.008034
19.055	-0.008047
19.060	-0.008020
19.065	-0.008048
19.070	-0.008090
19.075	-0.008081
19.080	-0.008103
19.085	-0.008095
19.090	-0.008151
19.095	-0.008123
19.100	-0.008153
19.105	-0.008145
19.110	-0.008156
19.115	-0.008169
19.120	-0.008171
19.125	-0.008213
19.130	-0.008206
19.135	-0.008214
19.140	-0.008226
19.145	-0.008233
19.150	-0.008233
19.155	-0.008249
19.160	-0.008270
19.165	-0.008265
19.170	-0.008305
19.175	-0.008316
19.180	-0.008294
19.185	-0.008351
19.190	-0.008333
19.195	-0.008340
19.200	-0.008397
19.205	-0.008377
19.210	-0.008386
19.215	-0.008420
19.220	-0.008428
19.225	-0.008457
19.230	-0.008474
19.235	-0.008469
19.240	-0.008483
19.245	-0.008496
19.250	-0.008504
19.255	-0.008548
19.260	-0.008549
19.265	-0.008535
19.270	-0.008562
19.275	-0.008569
19.280	-0.008548
19.285	-0.008568
19.290	-0.008582
19.295	-0.008611
19.300	-0.008599
19.305	-0.008598
19.310	-0.008611
19.315	-0.008625
19.320	-0.008658
19.325	-0.008673
19.330	-0.008667
19.335	-0.008672
19.340	-0.008678
19.345	-0.008725
19.350	-0.008703
19.355	-0.008722
19.360	-0.008722
19.365	-0.008743
19.370	-0.008756
19.375	-0.008773
19.380	-0.008793
19.385	-0.008791
19.390	-0.008792
19.395	-0.008826
19.400	-0.008867
19.405	-0.008859
19.410	-0.008811
19.415	-0.008866
19.420	-0.008903
19.425	-0.008915
19.430	-0.008926
19.435	-0.008932
19.440	-0.008971
19.445	-0.008956
19.450	-0.008971
19.455	-0.008992
19.460	-0.009012
19.465	-0.008998
19.470	-0.009019
19.475	-0.009061
19.480	-0.009061
19.485	-0.009081
19.490	-0.009095
19.495	-0.009076
19.500	-0.009115
19.505	-0.009161
19.510	-0.009124
19.515	-0.009091
19.520	-0.009147
19.525	-0.009203
19.530	-0.009212
19.535	-0.009218
19.540	-0.009213
19.545	-0.009255
19.550	-0.009207
19.555	-0.009269
19.560	-0.009318
19.565	-0.009273
19.570	-0.009307
19.575	-0.009318
19.580	-0.009346
19.585	-0.009333
19.590	-0.009370
19.595	-0.009384
19.600	-0.009406
19.605	-0.009416
19.610	-0.009388
19.615	-0.009442
19.620	-0.009457
19.625	-0.009478
19.630	-0.009502
19.635	-0.009476
19.640	-0.009502
19.645	-0.009526
19.650	-0.009546
19.655	-0.009552
19.660	-0.009579
19.665	-0.009558
19.670	-0.009575
19.675	-0.009597
19.680	-0.009640
19.685	-0.009614
19.690	-0.009659
19.695	-0.009667
19.700	-0.009697
19.705	-0.009710
19.710	-0.009697
19.715	-0.009754
19.720	-0.009746
19.725	-0.009739
19.730	-0.009769
19.735	-0.009789
19.740	-0.009855
19.745	-0.009854
19.750	-0.009860
19.755	-0.009885
19.760	-0.009907
19.765	-0.009906
19.770	-0.009949
19.775	-0.009960
19.780	-0.009978
19.785	-0.009984
19.790	-0.009991
19.795	-0.010016
19.800	-0.010061
19.805	-0.010049
19.810	-0.010139
19.815	-0.010131
19.820	-0.010145
19.825	-0.010146
19.830	-0.010177
19.835	-0.010165
19.840	-0.010235
19.845	-0.010218
19.850	-0.010240
19.855	-0.010275
19.860	-0.010283
19.865	-0.010305
19.870	-0.010333
19.875	-0.010345
19.880	-0.010366
19.885	-0.010385
19.890	-0.010382
19.895	-0.010389
19.900	-0.010459
19.905	-0.010491
19.910	-0.010492
19.915	-0.010504
19.920	-0.010496
19.925	-0.010529
19.930	-0.010569
19.935	-0.010601
19.940	-0.010640
19.945	-0.010667
19.950	-0.010639
19.955	-0.010652
19.960	-0.010681
19.965	-0.010731
19.970	-0.010682
19.975	-0.010756
19.980	-0.010762
19.985	-0.010810
19.990	-0.010816
19.995	-0.010850
20.000	-0.010878
20.005	-0.010842
20.010	-0.010938
20.015	-0.010937
20.020	-0.010945
20.025	-0.010974
20.030	-0.010998
20.035	-0.011013
20.040	-0.011052
20.045	-0.011065
20.050	-0.011087
20.055	-0.011135
20.060	-0.011116
20.065	-0.011165
20.070	-0.011186
20.075	-0.011200
20.080	-0.011256
20.085	-0.011265
20.090	-0.011335
20.095	-0.011346
20.100	-0.011348
20.105	-0.011367
20.110	-0.011414
20.115	-0.011406
20.120	-0.011434
20.125	-0.011483
20.130	-0.011504
20.135	-0.011540
20.140	-0.011528
20.145	-0.011564
20.150	-0.011619
20.155	-0.011638
20.160	-0.011647
20.165	-0.011681
20.170	-0.011696
20.175	-0.011727
20.180	-0.011763
20.185	-0.011771
20.190	-0.011773
20.195	-0.011822
20.200	-0.011860
20.205	-0.011882
20.210	-0.011906
20.215	-0.011955
20.220	-0.011977
20.225	-0.011985
20.230	-0.012007
20.235	-0.012046
20.240	-0.012095
20.245	-0.012123
20.250	-0.012138
20.255	-0.012184
20.260	-0.012174
20.265	-0.012231
20.270	-0.012213
20.275	-0.012253
20.280	-0.012301
20.285	-0.012347
20.290	-0.012375
20.295	-0.012384
20.300	-0.012436
20.305	-0.012442
20.310	-0.012493
20.315	-0.012528
20.320	-0.012550
20.325	-0.012615
20.330	-0.012595
20.335	-0.012673
20.340	-0.012697
20.345	-0.012741
20.350	-0.012762
20.355	-0.012783
20.360	-0.012843
20.365	-0.012850
20.370	-0.012904
20.375	-0.012894
20.380	-0.012963
20.385	-0.013002
20.390	-0.013048
20.395	-0.013092
20.400	-0.013118
20.405	-0.013184
20.410	-0.013188
20.415	-0.013230
20.420	-0.013274
20.425	-0.013309
20.430	-0.013342
20.435	-0.013388
20.440	-0.013434
20.445	-0.013499
20.450	-0.013476
20.455	-0.013551
20.460	-0.013584
20.465	-0.013607
20.470	-0.013688
20.475	-0.013763
20.480	-0.013802
20.485	-0.013853
20.490	-0.013939
20.495	-0.013972
20.500	-0.014010
20.505	-0.014032
20.510	-0.014097
20.515	-0.014145
20.520	-0.014144
20.525	-0.014152
20.530	-0.014214
20.535	-0.014274
20.540	-0.014285
20.545	-0.014362
20.550	-0.014389
20.555	-0.014445
20.560	-0.014469
20.565	-0.014543
20.570	-0.014565
20.575	-0.014644
20.580	-0.014655
20.585	-0.014707
20.590	-0.014728
20.595	-0.014752
20.600	-0.014793
20.605	-0.014874
20.610	-0.014914
20.615	-0.014970
20.620	-0.015038
20.625	-0.015089
20.630	-0.015128
20.635	-0.015229
20.640	-0.015292
20.645	-0.015343
20.650	-0.015425
20.655	-0.015480
20.660	-0.015489
20.665	-0.015591
20.670	-0.015650
20.675	-0.015705
20.680	-0.015790
20.685	-0.015824
20.690	-0.015897
20.695	-0.015952
20.700	-0.015979
20.705	-0.016099
20.710	-0.016141
20.715	-0.016177
20.720	-0.016258
20.725	-0.016343
20.730	-0.016417
20.735	-0.016466
20.740	-0.016513
20.745	-0.016592
20.750	-0.016620
20.755	-0.016687
20.760	-0.016789
20.765	-0.016840
20.770	-0.016935
20.775	-0.017077
20.780	-0.017178
20.785	-0.017268
20.790	-0.017380
20.795	-0.017458
20.800	-0.017538
20.805	-0.017589
20.810	-0.017723
20.815	-0.017803
20.820	-0.017883
20.825	-0.018003
20.830	-0.018097
20.835	-0.018179
20.840	-0.018248
20.845	-0.018368
20.850	-0.018459
20.855	-0.018525
20.860	-0.018625
20.865	-0.018726
20.870	-0.018837
20.875	-0.018941
20.880	-0.019070
20.885	-0.019201
20.890	-0.019313
20.895	-0.019418
20.900	-0.019553
20.905	-0.019615
20.910	-0.019699
20.915	-0.019768
20.920	-0.019866
20.925	-0.019962
20.930	-0.020046
20.935	-0.020128
20.940	-0.020278
20.945	-0.020424
20.950	-0.020572
20.955	-0.020695
20.960	-0.020837
20.965	-0.020905
20.970	-0.021071
20.975	-0.021218
20.980	-0.021305
20.985	-0.021390
20.990	-0.021544
20.995	-0.021633
21.000	-0.021827
21.005	-0.022018
21.010	-0.022164
21.015	-0.022315
21.020	-0.022488
21.025	-0.022668
21.030	-0.022844
21.035	-0.023025
21.040	-0.023255
21.045	-0.023465
21.050	-0.023684
21.055	-0.023922
21.060	-0.024080
21.065	-0.024222
21.070	-0.024424
21.075	-0.024703
21.080	-0.024938
21.085	-0.025213
21.090	-0.025427
21.095	-0.025631
21.100	-0.025859
21.105	-0.026181
21.110	-0.026458
21.115	-0.026751
21.120	-0.027021
21.125	-0.027322
21.130	-0.027700
21.135	-0.028070
21.140	-0.028506
21.145	-0.028827
21.150	-0.029044
21.155	-0.029210
21.160	-0.029664
21.165	-0.029834
21.170	-0.030104
21.175	-0.030774
21.180	-0.031273
21.185	-0.031758
21.190	-0.032351
21.195	-0.032883
21.200	-0.033399
21.205	-0.034105
21.210	-0.034620
21.215	-0.035051
21.220	-0.035732
21.225	-0.036755
21.230	-0.037601
21.235	-0.038669
21.240	-0.039588
21.245	-0.039705
21.250	-0.040816
21.255	-0.042456
21.260	-0.042891
21.265	-0.043927
21.270	-0.045023
21.275	-0.046234
21.280	-0.047317
21.285	-0.047913
21.290	-0.047894
21.295	-0.047919
21.300	-0.047530
21.305	-0.046663
21.310	-0.045144
21.315	-0.043024
21.320	-0.040324
21.325	-0.036911
21.330	-0.033090
21.335	-0.029148
21.340	-0.025305
21.345	-0.021259
21.350	-0.016793
21.355	-0.012247
21.360	-0.008231
21.365	-0.005062
21.370	-0.002947
21.375	-0.001636
21.380	-0.000879
21.385	-0.000451
21.390	-0.000282
21.395	-0.000194
21.400	-0.000119
21.405	-0.000099
21.410	-0.000038
21.415	-0.000052
21.420	-0.000032
21.425	0.000002
21.430	-0.000011
21.435	0.000016
21.440	0.000002
21.445	0.000022
21.450	0.000002
21.455	-0.000018
21.460	-0.000011
21.465	0.000016
21.470	0.000002
21.475	0.000016
21.480	0.000002
21.485	0.000009
21.490	0.000002
21.495	0.000009
21.500	-0.000004
21.505	0.000036
21.510	0.000008
21.515	0.000042
21.520	0.000015
21.525	0.000036
21.530	0.000049
21.535	0.000001
21.540	0.000029
21.545	-0.000005
21.550	0.000015
21.555	0.000028
21.560	0.000029
21.565	0.000022
21.570	0.000029
21.575	0.000035
21.580	0.000035
21.585	0.000035
21.590	0.000042
21.595	0.000042
21.600	0.000056
21.605	0.000042
21.610	0.000035
21.615	0.000035
21.620	0.000028
21.625	0.000035
21.630	0.000042
21.635	0.000035
21.640	0.000021
21.645	0.000042
21.650	0.000035
21.655	0.000062
21.660	0.000055
21.665	0.000035
21.670	0.000035
21.675	0.000041
21.680	0.000048
21.685	0.000021
21.690	0.000021
21.695	0.000076
21.700	0.000042
21.705	0.000055
21.710	0.000021
21.715	0.000041
21.720	0.000048
21.725	0.000048
21.730	0.000041
21.735	0.000034
21.740	0.000062
21.745	0.000028
21.750	0.000048
21.755	0.000075
21.760	0.000042
21.765	0.000042
21.770	0.000062
21.775	0.000034
21.780	0.000041
21.785	0.000041
21.790	0.000061
21.795	0.000021
21.800	0.000061
21.805	0.000007
21.810	0.000041
21.815	0.000055
21.820	0.000061
21.825	0.000014
21.830	0.000021
21.835	0.000028
21.840	0.000048
21.845	0.000041
21.850	0.000054
21.855	0.000034
21.860	0.000041
21.865	0.000054
21.870	0.000027
21.875	0.000054
21.880	0.000020
21.885	0.000020
21.890	0.000013
21.895	0.000048
21.900	0.000055
21.905	0.000027
21.910	0.000061
21.915	0.000047
21.920	0.000040
21.925	0.000033
21.930	0.000033
21.935	0.000047
21.940	0.000061
21.945	0.000061
21.950	0.000060
21.955	0.000047
21.960	0.000061
21.965	0.000054
21.970	0.000027
21.975	0.000047
21.980	0.000060
21.985	0.000026
21.990	0.000074
21.995	0.000047
22.000	0.000033
22.005	0.000026
22.010	0.000040
22.015	0.000033
22.020	0.000053
22.025	0.000047
22.030	0.000034
22.035	0.000047
22.040	0.000040
22.045	0.000012
22.050	0.000047
22.055	0.000053
22.060	0.000067
22.065	0.000033
22.070	0.000053
22.075	0.000053
22.080	0.000019
22.085	0.000033
22.090	0.000019
22.095	0.000054
22.100	0.000033
22.105	0.000046
22.110	0.000046
22.115	0.000060
22.120	0.000067
22.125	0.000066
22.130	0.000039
22.135	0.000053
22.140	0.000060
22.145	0.000019
22.150	0.000026
22.155	0.000066
22.160	0.000067
22.165	0.000047
22.170	0.000053
22.175	0.000046
22.180	0.000059
22.185	0.000039
22.190	0.000053
22.195	0.000026
22.200	0.000039
22.205	0.000059
22.210	0.000025
22.215	0.000066
22.220	0.000039
22.225	0.000012
22.230	0.000033
22.235	0.000026
22.240	0.000025
22.245	0.000079
22.250	0.000039
22.255	0.000018
22.260	0.000039
22.265	0.000052
22.270	0.000039
22.275	0.000059
22.280	0.000039
22.285	0.000045
22.290	0.000039
22.295	0.000032
22.300	0.000060
22.305	0.000018
22.310	0.000032
22.315	0.000059
22.320	0.000093
22.325	0.000038
22.330	0.000052
22.335	0.000025
22.340	0.000045
22.345	0.000072
22.350	0.000031
22.355	0.000059
22.360	0.000059
22.365	0.000025
22.370	0.000032
22.375	0.000052
22.380	0.000052
22.385	0.000058
22.390	0.000059
22.395	0.000031
22.400	0.000052
22.405	0.000018
22.410	0.000038
22.415	0.000038
22.420	0.000038
22.425	0.000052
22.430	0.000032
22.435	0.000059
22.440	0.000011
22.445	0.000045
22.450	0.000072
22.455	0.000044
22.460	0.000051
22.465	0.000017
22.470	0.000031
22.475	0.000044
22.480	0.000024
22.485	0.000010
22.490	0.000024
22.495	-0.000003
22.500	0.000031
22.505	0.000017
22.510	0.000031
22.515	0.000044
22.520	0.000044
22.525	0.000010
22.530	0.000051
22.535	0.000031
22.540	0.000044
22.545	0.000024
22.550	0.000017
22.555	0.000051
22.560	0.000038
22.565	0.000051
22.570	0.000038
22.575	0.000037
22.580	0.000030
22.585	0.000044
22.590	0.000037
22.595	0.000044
22.600	0.000051
22.605	0.000057
22.610	0.000051
22.615	0.000023
22.620	0.000023
22.625	0.000024
22.630	0.000017
22.635	0.000044
22.640	0.000044
22.645	0.000023
22.650	0.000044
22.655	0.000023
22.660	0.000023
22.665	0.000044
22.670	0.000016
22.675	0.000030
22.680	0.000057
22.685	0.000036
22.690	0.000057
22.695	0.000037
22.700	0.000051
22.705	0.000037
22.710	0.000050
22.715	0.000016
22.720	0.000009
22.725	0.000043
22.730	0.000023
22.735	0.000029
22.740	0.000016
22.745	0.000023
22.750	0.000043
22.755	0.000023
22.760	0.000064
22.765	0.000023
22.770	0.000023
22.775	0.000043
22.780	0.000050
22.785	0.000050
22.790	0.000003
22.795	0.000043
22.800	0.000023
22.805	0.000023
22.810	0.000030
22.815	0.000002
22.820	0.000050
22.825	0.000043
22.830	0.000037
22.835	0.000057
22.840	0.000057
22.845	0.000022
22.850	0.000036
22.855	0.000036
22.860	0.000036
22.865	0.000036
22.870	0.000036
22.875	0.000036
22.880	0.000029
22.885	0.000022
22.890	0.000009
22.895	0.000043
22.900	0.000050
22.905	0.000083
22.910	0.000029
22.915	0.000029
22.920	0.000049
22.925	0.000049
22.930	0.000042
22.935	0.000042
22.940	0.000042
22.945	0.000049
22.950	0.000036
22.955	0.000008
22.960	0.000002
22.965	0.000036
22.970	0.000029
22.975	0.000035
22.980	0.000029
22.985	0.000028
22.990	0.000035
22.995	0.000042
23.000	0.000063
23.005	0.000022
23.010	0.000035
23.015	0.000028
23.020	0.000015
23.025	0.000008
23.030	0.000043
23.035	0.000042
23.040	0.000008
23.045	0.000028
23.050	0.000022
23.055	0.000062
23.060	0.000022
23.065	0.000049
23.070	0.000049
23.075	0.000028
23.080	0.000062
23.085	0.000015
23.090	0.000042
23.095	0.000042
23.100	0.000022
23.105	0.000035
23.110	0.000014
23.115	0.000014
23.120	0.000042
23.125	0.000035
23.130	0.000021
23.135	0.000041
23.140	0.000001
23.145	0.000055
23.150	0.000007
23.155	0.000021
23.160	0.000028
23.165	0.000042
23.170	0.000014
23.175	0.000014
23.180	0.000041
23.185	0.000021
23.190	0.000055
23.195	0.000021
23.200	0.000028
23.205	0.000041
23.210	0.000014
23.215	0.000000
23.220	0.000034
23.225	0.000041
23.230	-0.000006
23.235	0.000021
23.240	0.000021
23.245	0.000041
23.250	0.000014
23.255	0.000041
23.260	0.000027
23.265	0.000020
23.270	0.000048
23.275	0.000054
23.280	0.000048
23.285	0.000034
23.290	0.000048
23.295	0.000007
23.300	0.000028
23.305	0.000027
23.310	0.000047
23.315	0.000013
23.320	0.000034
23.325	0.000041
23.330	0.000027
23.335	0.000034
23.340	0.000027
23.345	0.000027
23.350	0.000027
23.355	0.000027
23.360	0.000061
23.365	0.000027
23.370	0.000068
23.375	0.000040
23.380	0.000047
23.385	0.000054
23.390	0.000013
23.395	0.000054
23.400	0.000020
23.405	0.000026
23.410	0.000034
23.415	0.000027
23.420	0.000033
23.425	0.000020
23.430	0.000027
23.435	0.000034
23.440	0.000033
23.445	0.000026
23.450	0.000067
23.455	0.000026
23.460	0.000040
23.465	0.000026
23.470	0.000013
23.475	0.000054
23.480	0.000033
23.485	0.000026
23.490	0.000006
23.495	0.000020
23.500	0.000034
23.505	0.000033
23.510	-0.000001
23.515	0.000053
23.520	0.000033
23.525	0.000040
23.530	0.000026
23.535	0.000012
23.540	0.000026
23.545	-0.000008
23.550	0.000019
23.555	0.000026
23.560	0.000006
23.565	0.000006
23.570	0.000006
23.575	0.000005
23.580	0.000019
23.585	0.000053
23.590	0.000005
23.595	0.000039
23.600	0.000033
23.605	0.000032
23.610	0.000026
23.615	0.000005
23.620	0.000005
23.625	0.000033
23.630	0.000033
23.635	0.000012
23.640	0.000039
23.645	-0.000008
23.650	0.000060
23.655	-0.000008
23.660	0.000012
23.665	0.000039
23.670	0.000032
23.675	-0.000009
23.680	0.000018
23.685	0.000019
23.690	0.000012
23.695	0.000026
23.700	0.000026
23.705	0.000012
23.710	0.000039
23.715	-0.000009
23.720	0.000046
23.725	0.000005
23.730	0.000018
23.735	0.000025
23.740	0.000032
23.745	0.000012
23.750	0.000025
23.755	0.000018
23.760	0.000005
23.765	0.000026
23.770	0.000026
23.775	0.000011
23.780	0.000032
23.785	0.000032
23.790	0.000018
23.795	0.000011
23.800	0.000011
23.805	0.000011
23.810	0.000025
23.815	0.000025
23.820	0.000025
23.825	0.000032
23.830	0.000032
23.835	0.000011
23.840	0.000031
23.845	0.000011
23.850	0.000032
23.855	0.000031
23.860	0.000031
23.865	-0.000002
23.870	0.000025
23.875	0.000024
23.880	0.000031
23.885	0.000024
23.890	0.000018
23.895	0.000032
23.900	0.000032
23.905	0.000038
23.910	0.000045
23.915	0.000031
23.920	0.000011
23.925	-0.000003
23.930	0.000018
23.935	0.000017
23.940	0.000031
23.945	0.000024
23.950	0.000004
23.955	0.000004
23.960	0.000011
23.965	0.000011
23.970	-0.000010
23.975	0.000038
23.980	0.000017
23.985	0.000017
23.990	0.000024
23.995	0.000004
24.000	0.000004
24.005	0.000024
24.010	0.000017
24.015	0.000038
24.020	0.000038
24.025	0.000024
24.030	-0.000030
24.035	0.000011
24.040	0.000031
24.045	0.000044
24.050	0.000037
24.055	0.000017
24.060	0.000017
24.065	0.000017
24.070	0.000017
24.075	-0.000004
24.080	0.000017
24.085	0.000024
24.090	0.000017
24.095	0.000018
24.100	0.000037
24.105	0.000030
24.110	0.000010
24.115	0.000017
24.120	0.000024
24.125	0.000030
24.130	0.000010
24.135	0.000064
24.140	-0.000010
24.145	0.000010
24.150	0.000071
24.155	0.000017
24.160	0.000044
24.165	0.000017
24.170	0.000010
24.175	0.000003
24.180	0.000023
24.185	0.000043
24.190	0.000023
24.195	0.000010
24.200	0.000016
24.205	0.000030
24.210	0.000023
24.215	0.000016
24.220	0.000016
24.225	-0.000004
24.230	0.000031
24.235	0.000003
24.240	0.000050
24.245	0.000057
24.250	0.000030
24.255	0.000023
24.260	0.000009
24.265	0.000016
24.270	0.000030
24.275	0.000023
24.280	0.000057
24.285	0.000043
24.290	0.000009
24.295	0.000010
24.300	0.000023
24.305	0.000023
24.310	0.000023
24.315	0.000016
24.320	0.000036
24.325	0.000029
24.330	0.000009
24.335	0.000043
24.340	0.000022
24.345	0.000036
24.350	0.000016
24.355	0.000022
24.360	0.000009
24.365	0.000036
24.370	0.000009
24.375	0.000036
24.380	0.000050
24.385	0.000016
24.390	0.000016
24.395	0.000009
24.400	0.000015
24.405	0.000029
24.410	0.000022
24.415	0.000043
24.420	0.000029
24.425	0.000016
24.430	0.000009
24.435	0.000029
24.440	0.000036
24.445	0.000015
24.450	0.000008
24.455	0.000008
24.460	0.000029
24.465	0.000015
24.470	0.000001
24.475	-0.000012
24.480	0.000022
24.485	0.000028
24.490	0.000036
24.495	0.000002
24.500	0.000043
24.505	0.000028
24.510	0.000015
24.515	0.000029
24.520	0.000008
24.525	0.000015
24.530	0.000008
24.535	0.000022
24.540	0.000035
24.545	0.000015
24.550	0.000022
24.555	0.000042
24.560	-0.000005
24.565	0.000002
24.570	0.000015
24.575	0.000028
24.580	-0.000019
24.585	0.000035
24.590	0.000035
24.595	0.000021
24.600	0.000035
24.605	0.000008
24.610	0.000035
24.615	0.000021
24.620	0.000042
24.625	0.000035
24.630	0.000029
24.635	0.000042
24.640	0.000021
24.645	0.000035
24.650	0.000035
24.655	0.000048
24.660	0.000001
24.665	0.000021
24.670	0.000014
24.675	0.000001
24.680	0.000041
24.685	0.000014
24.690	0.000008
24.695	0.000001
24.700	0.000035
24.705	0.000021
24.710	0.000021
24.715	0.000041
24.720	0.000014
24.725	0.000014
24.730	0.000021
24.735	-0.000007
24.740	0.000027
24.745	0.000021
24.750	0.000007
24.755	0.000034
24.760	0.000021
24.765	0.000001
24.770	0.000027
24.775	0.000014
24.780	0.000034
24.785	0.000054
24.790	0.000054
24.795	0.000027
24.800	0.000000
24.805	0.000034
24.810	0.000014
24.815	0.000013
24.820	0.000007
24.825	0.000014
24.830	0.000001
24.835	0.000000
24.840	0.000020
24.845	0.000020
24.850	0.000013
24.855	0.000020
24.860	0.000040
24.865	0.000040
24.870	-0.000000
24.875	0.000020
24.880	0.000013
24.885	0.000027
24.890	0.000007
24.895	0.000034
24.900	0.000007
24.905	0.000006
24.910	0.000040
24.915	0.000047
24.920	-0.000007
24.925	0.000034
24.930	0.000020
24.935	-0.000001
24.940	-0.000021
24.945	0.000020
24.950	0.000033
24.955	0.000027
24.960	0.000020
24.965	0.000013
24.970	-0.000021
24.975	0.000040
24.980	0.000013
24.985	0.000006
24.990	0.000040
24.995	0.000013
25.000	0.000026
25.005	0.000033
25.010	0.000006
25.015	0.000019
25.020	-0.000015
25.025	0.000013
25.030	0.000013
25.035	0.000033
25.040	0.000012
25.045	0.000006
25.050	0.000019
25.055	0.000047
25.060	0.000053
25.065	0.000006
25.070	0.000033
25.075	0.000012
25.080	0.000026
25.085	0.000019
25.090	0.000012
25.095	0.000006
25.100	-0.000001
25.105	0.000032
25.110	-0.000002
25.115	0.000005
25.120	0.000026
25.125	0.000005
25.130	0.000005
25.135	0.000005
25.140	-0.000002
25.145	0.000025
25.150	0.000039
25.155	0.000019
25.160	-0.000001
25.165	0.000005
25.170	-0.000002
25.175	-0.000002
25.180	0.000032
25.185	-0.000002
25.190	0.000046
25.195	0.000018
25.200	0.000039
25.205	-0.000009
25.210	0.000005
25.215	0.000005
25.220	-0.000009
25.225	0.000005
25.230	-0.000008
25.235	0.000005
25.240	0.000005
25.245	0.000052
25.250	0.000011
25.255	0.000011
25.260	-0.000002
25.265	0.000032
25.270	-0.000009
25.275	-0.000002
25.280	0.000004
25.285	0.000025
25.290	0.000012
25.295	-0.000009
25.300	0.000032
25.305	0.000031
25.310	0.000025
25.315	-0.000009
25.320	-0.000002
25.325	0.000018
25.330	0.000038
25.335	-0.000009
25.340	-0.000003
25.345	-0.000009
25.350	0.000024
25.355	0.000004
25.360	0.000011
25.365	-0.000016
25.370	0.000011
25.375	0.000018
25.380	0.000004
25.385	0.000011
25.390	0.000024
25.395	0.000024
25.400	0.000011
25.405	0.000004
25.410	0.000024
25.415	0.000010
25.420	0.000004
25.425	0.000018
25.430	0.000031
25.435	0.000011
25.440	-0.000017
25.445	0.000004
25.450	0.000017
25.455	-0.000003
25.460	0.000017
25.465	0.000011
25.470	0.000011
25.475	0.000031
25.480	0.000010
25.485	0.000037
25.490	0.000024
25.495	-0.000023
25.500	0.000031
25.505	0.000017
25.510	0.000024
25.515	0.000003
25.520	0.000017
25.525	0.000024
25.530	0.000003
25.535	0.000010
25.540	-0.000004
25.545	0.000003
25.550	-0.000004
25.555	-0.000017
25.560	0.000004
25.565	0.000024
25.570	0.000030
25.575	0.000016
25.580	0.000003
25.585	-0.000004
25.590	0.000003
25.595	-0.000004
25.600	0.000010
25.605	0.000023
25.610	-0.000004
25.615	0.000016
25.620	-0.000038
25.625	0.000003
25.630	-0.000031
25.635	0.000003
25.640	0.000009
25.645	-0.000011
25.650	-0.000011
25.655	0.000036
25.660	0.000030
25.665	0.000002
25.670	0.000009
25.675	0.000009
25.680	0.000009
25.685	-0.000005
25.690	-0.000004
25.695	0.000023
25.700	-0.000011
25.705	0.000002
25.710	0.000029
25.715	0.000029
25.720	-0.000011
25.725	-0.000004
25.730	-0.000018
25.735	-0.000025
25.740	0.000009
25.745	0.000002
25.750	-0.000011
25.755	-0.000005
25.760	0.000003
25.765	0.000016
25.770	-0.000011
25.775	-0.000005
25.780	0.000009
25.785	0.000008
25.790	-0.000012
25.795	0.000029
25.800	-0.000012
25.805	0.000002
25.810	0.000022
25.815	-0.000005
25.820	0.000022
25.825	0.000016
25.830	0.000023
25.835	0.000002
25.840	0.000008
25.845	0.000022
25.850	0.000015
25.855	0.000008
25.860	0.000009
25.865	-0.000019
25.870	0.000008
25.875	0.000001
25.880	0.000015
25.885	-0.000026
25.890	0.000016
25.895	-0.000012
25.900	0.000029
25.905	0.000008
25.910	0.000008
25.915	0.000015
25.920	0.000015
25.925	-0.000026
25.930	0.000015
25.935	0.000014
25.940	0.000015
25.945	-0.000013
25.950	-0.000019
25.955	-0.000012
25.960	0.000009
25.965	-0.000026
25.970	0.000028
25.975	-0.000020
25.980	-0.000006
25.985	-0.000006
25.990	0.000021
25.995	-0.000006
26.000	0.000008
26.005	0.000014
26.010	0.000001
26.015	0.000014
26.020	0.000014
26.025	-0.000012
26.030	0.000008
26.035	-0.000013
26.040	0.000021
26.045	-0.000013
26.050	0.000007
26.055	-0.000013
26.060	-0.000020
26.065	-0.000007
26.070	0.000007
26.075	-0.000020
26.080	-0.000006
26.085	0.000014
26.090	-0.000026
26.095	0.000035
26.100	-0.000027
26.105	0.000007
26.110	0.000000
26.115	0.000007
26.120	-0.000027
26.125	0.000014
26.130	0.000028
26.135	0.000007
26.140	-0.000013
26.145	0.000007
26.150	0.000034
26.155	0.000007
26.160	0.000008
26.165	-0.000006
26.170	0.000034
26.175	-0.000000
26.180	0.000014
26.185	0.000007
26.190	-0.000007
26.195	0.000007
26.200	-0.000000
26.205	-0.000014
26.210	-0.000007
26.215	-0.000027
26.220	-0.000007
26.225	-0.000006
26.230	-0.000007
26.235	-0.000007
26.240	0.000020
26.245	-0.000027
26.250	0.000007
26.255	0.000013
26.260	-0.000021
26.265	-0.000007
26.270	-0.000014
26.275	0.000034
26.280	0.000006
26.285	0.000020
26.290	0.000014
26.295	0.000007
26.300	-0.000007
26.305	-0.000021
26.310	0.000020
26.315	0.000006
26.320	-0.000001
26.325	-0.000014
26.330	-0.000001
26.335	0.000026
26.340	0.000019
26.345	-0.000001
26.350	0.000013
26.355	-0.000021
26.360	-0.000007
26.365	-0.000014
26.370	0.000034
26.375	0.000006
26.380	0.000020
26.385	0.000014
26.390	0.000007
26.395	-0.000007
26.400	-0.000021
26.405	0.000020
26.410	0.000006
26.415	-0.000001
26.420	-0.000014
26.425	-0.000001
26.430	0.000026
26.435	0.000019
26.440	-0.000001
