PK2650 Deflection Data
Z Position (mm)	105.000	W Position (deg)	0.00
Preform ID	Diameter (mm)	Time Stamp	Start Time	Operator	Serial Number
Test 1	25	03-Nov-22 18:05:01	03-Nov-22 18:06:39	[no user]	266007708
Radius (mm)	Deflection
-26.355	-0.000029
-26.350	-0.000042
-26.345	-0.000008
-26.340	-0.000042
-26.335	-0.000008
-26.330	-0.000022
-26.325	-0.000029
-26.320	-0.000009
-26.315	-0.000002
-26.310	-0.000002
-26.305	0.000011
-26.300	-0.000009
-26.295	0.000011
-26.290	-0.000002
-26.285	-0.000030
-26.280	0.000004
-26.275	-0.000057
-26.270	-0.000029
-26.265	-0.000030
-26.260	0.000004
-26.255	0.000018
-26.250	-0.000009
-26.245	-0.000010
-26.240	-0.000003
-26.235	-0.000030
-26.230	-0.000010
-26.225	-0.000030
-26.220	-0.000023
-26.215	-0.000023
-26.210	-0.000017
-26.205	0.000011
-26.200	-0.000037
-26.195	-0.000017
-26.190	0.000004
-26.185	-0.000044
-26.180	-0.000031
-26.175	-0.000004
-26.170	-0.000031
-26.165	-0.000031
-26.160	-0.000017
-26.155	-0.000004
-26.150	-0.000038
-26.145	-0.000017
-26.140	-0.000031
-26.135	-0.000024
-26.130	-0.000024
-26.125	-0.000031
-26.120	-0.000017
-26.115	-0.000004
-26.110	-0.000011
-26.105	0.000003
-26.100	-0.000031
-26.095	-0.000011
-26.090	-0.000031
-26.085	-0.000025
-26.080	-0.000018
-26.075	-0.000045
-26.070	-0.000038
-26.065	-0.000011
-26.060	0.000016
-26.055	0.000009
-26.050	-0.000011
-26.045	0.000002
-26.040	-0.000018
-26.035	-0.000025
-26.030	0.000023
-26.025	-0.000012
-26.020	-0.000032
-26.015	-0.000025
-26.010	-0.000025
-26.005	-0.000025
-26.000	-0.000011
-25.995	-0.000025
-25.990	-0.000012
-25.985	-0.000018
-25.980	0.000016
-25.975	-0.000005
-25.970	-0.000011
-25.965	-0.000025
-25.960	-0.000025
-25.955	-0.000025
-25.950	-0.000019
-25.945	-0.000032
-25.940	-0.000032
-25.935	-0.000018
-25.930	0.000002
-25.925	-0.000012
-25.920	-0.000005
-25.915	-0.000005
-25.910	0.000001
-25.905	0.000008
-25.900	-0.000005
-25.895	-0.000026
-25.890	0.000001
-25.885	-0.000026
-25.880	-0.000026
-25.875	-0.000026
-25.870	-0.000026
-25.865	-0.000006
-25.860	-0.000013
-25.855	0.000008
-25.850	0.000008
-25.845	0.000001
-25.840	-0.000026
-25.835	-0.000013
-25.830	-0.000019
-25.825	-0.000054
-25.820	-0.000033
-25.815	-0.000033
-25.810	-0.000033
-25.805	0.000001
-25.800	-0.000012
-25.795	-0.000020
-25.790	-0.000020
-25.785	-0.000006
-25.780	-0.000006
-25.775	0.000001
-25.770	0.000000
-25.765	0.000000
-25.760	-0.000027
-25.755	-0.000041
-25.750	-0.000006
-25.745	-0.000020
-25.740	-0.000026
-25.735	-0.000020
-25.730	-0.000020
-25.725	-0.000007
-25.720	0.000000
-25.715	-0.000013
-25.710	-0.000013
-25.705	-0.000034
-25.700	0.000000
-25.695	-0.000027
-25.690	-0.000013
-25.685	-0.000014
-25.680	-0.000014
-25.675	-0.000034
-25.670	-0.000040
-25.665	-0.000013
-25.660	-0.000014
-25.655	-0.000000
-25.650	0.000007
-25.645	-0.000007
-25.640	-0.000021
-25.635	0.000006
-25.630	-0.000000
-25.625	-0.000021
-25.620	-0.000034
-25.615	-0.000021
-25.610	-0.000041
-25.605	-0.000020
-25.600	-0.000027
-25.595	-0.000007
-25.590	-0.000014
-25.585	-0.000007
-25.580	-0.000014
-25.575	-0.000007
-25.570	-0.000021
-25.565	-0.000041
-25.560	-0.000028
-25.555	-0.000001
-25.550	-0.000001
-25.545	-0.000008
-25.540	-0.000000
-25.535	-0.000021
-25.530	-0.000014
-25.525	-0.000014
-25.520	0.000013
-25.515	-0.000021
-25.510	-0.000001
-25.505	-0.000028
-25.500	-0.000015
-25.495	0.000006
-25.490	0.000012
-25.485	-0.000049
-25.480	0.000006
-25.475	-0.000001
-25.470	-0.000035
-25.465	0.000013
-25.460	-0.000022
-25.455	-0.000001
-25.450	0.000013
-25.445	-0.000015
-25.440	-0.000008
-25.435	-0.000008
-25.430	-0.000008
-25.425	-0.000015
-25.420	-0.000029
-25.415	-0.000022
-25.410	-0.000022
-25.405	-0.000028
-25.400	0.000019
-25.395	-0.000015
-25.390	-0.000042
-25.385	-0.000008
-25.380	-0.000015
-25.375	-0.000022
-25.370	0.000012
-25.365	-0.000015
-25.360	-0.000009
-25.355	-0.000022
-25.350	0.000005
-25.345	-0.000002
-25.340	-0.000015
-25.335	-0.000002
-25.330	-0.000002
-25.325	0.000005
-25.320	0.000025
-25.315	-0.000029
-25.310	0.000012
-25.305	-0.000009
-25.300	-0.000015
-25.295	-0.000002
-25.290	-0.000022
-25.285	-0.000043
-25.280	-0.000009
-25.275	-0.000016
-25.270	-0.000049
-25.265	-0.000029
-25.260	-0.000036
-25.255	-0.000029
-25.250	0.000018
-25.245	-0.000003
-25.240	0.000011
-25.235	-0.000009
-25.230	-0.000002
-25.225	-0.000016
-25.220	-0.000009
-25.215	-0.000023
-25.210	-0.000023
-25.205	-0.000022
-25.200	-0.000002
-25.195	-0.000016
-25.190	0.000004
-25.185	0.000025
-25.180	-0.000009
-25.175	-0.000016
-25.170	0.000004
-25.165	-0.000009
-25.160	-0.000016
-25.155	-0.000030
-25.150	0.000004
-25.145	-0.000010
-25.140	-0.000023
-25.135	0.000004
-25.130	-0.000016
-25.125	0.000017
-25.120	-0.000003
-25.115	0.000024
-25.110	0.000024
-25.105	-0.000010
-25.100	0.000017
-25.095	-0.000017
-25.090	-0.000010
-25.085	-0.000017
-25.080	-0.000017
-25.075	-0.000030
-25.070	-0.000017
-25.065	0.000010
-25.060	0.000003
-25.055	0.000017
-25.050	-0.000024
-25.045	-0.000003
-25.040	0.000024
-25.035	-0.000003
-25.030	0.000010
-25.025	-0.000030
-25.020	-0.000017
-25.015	-0.000044
-25.010	-0.000037
-25.005	-0.000010
-25.000	-0.000017
-24.995	0.000003
-24.990	-0.000024
-24.985	0.000017
-24.980	0.000010
-24.975	0.000003
-24.970	-0.000031
-24.965	-0.000004
-24.960	-0.000004
-24.955	-0.000031
-24.950	-0.000045
-24.945	-0.000024
-24.940	0.000003
-24.935	-0.000017
-24.930	0.000023
-24.925	-0.000004
-24.920	0.000023
-24.915	0.000010
-24.910	-0.000011
-24.905	-0.000004
-24.900	-0.000031
-24.895	0.000003
-24.890	-0.000038
-24.885	-0.000031
-24.880	-0.000058
-24.875	-0.000004
-24.870	-0.000017
-24.865	-0.000010
-24.860	0.000003
-24.855	0.000016
-24.850	-0.000004
-24.845	0.000010
-24.840	0.000003
-24.835	-0.000011
-24.830	0.000009
-24.825	0.000030
-24.820	-0.000018
-24.815	-0.000011
-24.810	-0.000011
-24.805	-0.000024
-24.800	-0.000045
-24.795	-0.000011
-24.790	0.000003
-24.785	0.000016
-24.780	0.000003
-24.775	0.000016
-24.770	0.000016
-24.765	-0.000038
-24.760	0.000003
-24.755	-0.000025
-24.750	-0.000011
-24.745	0.000002
-24.740	-0.000011
-24.735	-0.000011
-24.730	0.000030
-24.725	0.000002
-24.720	-0.000011
-24.715	-0.000011
-24.710	0.000029
-24.705	0.000009
-24.700	0.000002
-24.695	-0.000005
-24.690	0.000009
-24.685	-0.000018
-24.680	0.000009
-24.675	-0.000025
-24.670	-0.000018
-24.665	0.000002
-24.660	0.000002
-24.655	0.000022
-24.650	0.000016
-24.645	0.000029
-24.640	0.000002
-24.635	-0.000032
-24.630	0.000002
-24.625	-0.000005
-24.620	0.000002
-24.615	0.000002
-24.610	-0.000012
-24.605	0.000016
-24.600	0.000002
-24.595	-0.000005
-24.590	-0.000012
-24.585	0.000029
-24.580	-0.000005
-24.575	-0.000005
-24.570	0.000029
-24.565	-0.000005
-24.560	0.000002
-24.555	-0.000005
-24.550	-0.000019
-24.545	-0.000005
-24.540	-0.000005
-24.535	0.000002
-24.530	0.000029
-24.525	0.000015
-24.520	0.000036
-24.515	0.000015
-24.510	0.000002
-24.505	0.000008
-24.500	0.000015
-24.495	0.000015
-24.490	-0.000012
-24.485	-0.000005
-24.480	0.000015
-24.475	0.000009
-24.470	0.000022
-24.465	0.000022
-24.460	0.000029
-24.455	0.000001
-24.450	0.000015
-24.445	0.000001
-24.440	0.000049
-24.435	0.000001
-24.430	0.000008
-24.425	-0.000013
-24.420	0.000001
-24.415	-0.000026
-24.410	0.000022
-24.405	-0.000026
-24.400	-0.000012
-24.395	-0.000033
-24.390	0.000028
-24.385	0.000021
-24.380	0.000008
-24.375	0.000035
-24.370	0.000035
-24.365	-0.000013
-24.360	0.000021
-24.355	0.000021
-24.350	-0.000006
-24.345	0.000014
-24.340	0.000008
-24.335	0.000022
-24.330	0.000001
-24.325	0.000014
-24.320	0.000007
-24.315	0.000001
-24.310	0.000021
-24.305	0.000000
-24.300	0.000007
-24.295	0.000034
-24.290	-0.000013
-24.285	0.000000
-24.280	0.000014
-24.275	0.000021
-24.270	0.000028
-24.265	-0.000006
-24.260	0.000007
-24.255	0.000041
-24.250	0.000027
-24.245	0.000007
-24.240	0.000014
-24.235	0.000021
-24.230	-0.000027
-24.225	-0.000007
-24.220	0.000014
-24.215	0.000014
-24.210	0.000014
-24.205	0.000000
-24.200	0.000007
-24.195	0.000020
-24.190	0.000027
-24.185	0.000041
-24.180	0.000034
-24.175	0.000014
-24.170	0.000020
-24.165	0.000040
-24.160	-0.000007
-24.155	-0.000014
-24.150	0.000020
-24.145	0.000027
-24.140	0.000007
-24.135	0.000013
-24.130	0.000027
-24.125	0.000033
-24.120	0.000006
-24.115	-0.000000
-24.110	0.000013
-24.105	-0.000000
-24.100	0.000027
-24.095	-0.000007
-24.090	-0.000001
-24.085	-0.000007
-24.080	-0.000001
-24.075	0.000007
-24.070	-0.000014
-24.065	0.000027
-24.060	0.000026
-24.055	0.000026
-24.050	0.000026
-24.045	0.000019
-24.040	0.000020
-24.035	-0.000001
-24.030	0.000026
-24.025	0.000012
-24.020	-0.000008
-24.015	-0.000008
-24.010	-0.000021
-24.005	-0.000014
-24.000	0.000006
-23.995	0.000019
-23.990	0.000033
-23.985	0.000040
-23.980	0.000019
-23.975	-0.000008
-23.970	-0.000008
-23.965	0.000012
-23.960	0.000012
-23.955	0.000019
-23.950	-0.000015
-23.945	-0.000002
-23.940	-0.000015
-23.935	0.000019
-23.930	0.000019
-23.925	0.000032
-23.920	0.000019
-23.915	-0.000002
-23.910	0.000018
-23.905	-0.000009
-23.900	0.000005
-23.895	-0.000002
-23.890	-0.000036
-23.885	-0.000009
-23.880	0.000004
-23.875	-0.000002
-23.870	-0.000009
-23.865	0.000025
-23.860	0.000011
-23.855	0.000011
-23.850	0.000032
-23.845	0.000004
-23.840	0.000018
-23.835	0.000004
-23.830	-0.000023
-23.825	0.000018
-23.820	-0.000023
-23.815	-0.000002
-23.810	-0.000016
-23.805	-0.000002
-23.800	0.000011
-23.795	0.000011
-23.790	0.000004
-23.785	0.000011
-23.780	0.000038
-23.775	0.000031
-23.770	0.000011
-23.765	-0.000037
-23.760	0.000004
-23.755	0.000004
-23.750	-0.000003
-23.745	-0.000037
-23.740	-0.000009
-23.735	-0.000010
-23.730	-0.000003
-23.725	0.000017
-23.720	0.000004
-23.715	-0.000003
-23.710	-0.000017
-23.705	-0.000003
-23.700	0.000017
-23.695	-0.000024
-23.690	-0.000024
-23.685	-0.000004
-23.680	0.000017
-23.675	0.000004
-23.670	0.000017
-23.665	-0.000017
-23.660	0.000024
-23.655	-0.000010
-23.650	-0.000003
-23.645	0.000003
-23.640	0.000003
-23.635	-0.000004
-23.630	0.000003
-23.625	0.000010
-23.620	-0.000038
-23.615	-0.000024
-23.610	-0.000017
-23.605	-0.000038
-23.600	-0.000010
-23.595	-0.000031
-23.590	0.000003
-23.585	-0.000004
-23.580	-0.000018
-23.575	-0.000018
-23.570	-0.000018
-23.565	-0.000045
-23.560	0.000003
-23.555	-0.000025
-23.550	-0.000011
-23.545	-0.000045
-23.540	-0.000024
-23.535	-0.000031
-23.530	-0.000032
-23.525	-0.000025
-23.520	-0.000038
-23.515	-0.000011
-23.510	-0.000025
-23.505	-0.000039
-23.500	-0.000039
-23.495	-0.000046
-23.490	-0.000059
-23.485	-0.000080
-23.480	-0.000059
-23.475	-0.000066
-23.470	-0.000059
-23.465	-0.000046
-23.460	-0.000046
-23.455	-0.000046
-23.450	-0.000059
-23.445	-0.000025
-23.440	-0.000025
-23.435	-0.000046
-23.430	-0.000025
-23.425	-0.000019
-23.420	-0.000019
-23.415	-0.000066
-23.410	-0.000046
-23.405	-0.000066
-23.400	-0.000012
-23.395	-0.000033
-23.390	-0.000039
-23.385	-0.000026
-23.380	-0.000005
-23.375	-0.000019
-23.370	-0.000060
-23.365	-0.000033
-23.360	-0.000033
-23.355	-0.000033
-23.350	-0.000047
-23.345	-0.000053
-23.340	-0.000067
-23.335	-0.000053
-23.330	-0.000054
-23.325	0.000001
-23.320	-0.000047
-23.315	-0.000026
-23.310	-0.000033
-23.305	-0.000060
-23.300	-0.000033
-23.295	0.000001
-23.290	-0.000054
-23.285	-0.000054
-23.280	-0.000060
-23.275	-0.000047
-23.270	-0.000026
-23.265	-0.000047
-23.260	-0.000034
-23.255	-0.000047
-23.250	-0.000040
-23.245	-0.000020
-23.240	-0.000007
-23.235	-0.000034
-23.230	-0.000041
-23.225	-0.000054
-23.220	-0.000054
-23.215	-0.000075
-23.210	-0.000047
-23.205	-0.000034
-23.200	-0.000034
-23.195	-0.000054
-23.190	-0.000034
-23.185	-0.000014
-23.180	-0.000034
-23.175	-0.000027
-23.170	-0.000048
-23.165	-0.000041
-23.160	-0.000048
-23.155	-0.000055
-23.150	-0.000048
-23.145	-0.000041
-23.140	-0.000054
-23.135	-0.000041
-23.130	-0.000062
-23.125	-0.000041
-23.120	-0.000034
-23.115	-0.000048
-23.110	-0.000034
-23.105	-0.000048
-23.100	-0.000062
-23.095	-0.000089
-23.090	-0.000028
-23.085	-0.000055
-23.080	-0.000075
-23.075	-0.000062
-23.070	-0.000048
-23.065	-0.000069
-23.060	-0.000055
-23.055	-0.000035
-23.050	-0.000048
-23.045	-0.000035
-23.040	-0.000035
-23.035	-0.000035
-23.030	-0.000055
-23.025	-0.000035
-23.020	-0.000015
-23.015	-0.000069
-23.010	-0.000028
-23.005	-0.000048
-23.000	-0.000021
-22.995	-0.000015
-22.990	-0.000042
-22.985	-0.000042
-22.980	-0.000028
-22.975	-0.000028
-22.970	-0.000035
-22.965	-0.000049
-22.960	-0.000056
-22.955	-0.000042
-22.950	-0.000069
-22.945	-0.000076
-22.940	-0.000089
-22.935	-0.000035
-22.930	-0.000036
-22.925	-0.000049
-22.920	-0.000069
-22.915	-0.000042
-22.910	-0.000015
-22.905	-0.000036
-22.900	-0.000049
-22.895	-0.000049
-22.890	-0.000056
-22.885	-0.000036
-22.880	-0.000043
-22.875	-0.000090
-22.870	-0.000042
-22.865	-0.000063
-22.860	-0.000016
-22.855	-0.000043
-22.850	-0.000043
-22.845	-0.000022
-22.840	-0.000029
-22.835	-0.000036
-22.830	-0.000063
-22.825	-0.000050
-22.820	-0.000063
-22.815	-0.000070
-22.810	-0.000063
-22.805	-0.000084
-22.800	-0.000050
-22.795	-0.000050
-22.790	-0.000064
-22.785	-0.000050
-22.780	-0.000064
-22.775	-0.000064
-22.770	-0.000070
-22.765	-0.000043
-22.760	-0.000070
-22.755	-0.000050
-22.750	-0.000105
-22.745	-0.000030
-22.740	-0.000050
-22.735	-0.000030
-22.730	-0.000044
-22.725	-0.000030
-22.720	-0.000057
-22.715	-0.000044
-22.710	-0.000044
-22.705	-0.000037
-22.700	-0.000057
-22.695	-0.000098
-22.690	-0.000078
-22.685	-0.000044
-22.680	-0.000091
-22.675	-0.000037
-22.670	-0.000050
-22.665	-0.000051
-22.660	-0.000030
-22.655	-0.000037
-22.650	-0.000017
-22.645	-0.000058
-22.640	-0.000044
-22.635	-0.000078
-22.630	-0.000071
-22.625	-0.000051
-22.620	-0.000058
-22.615	-0.000078
-22.610	-0.000085
-22.605	-0.000057
-22.600	-0.000044
-22.595	-0.000051
-22.590	-0.000044
-22.585	-0.000078
-22.580	-0.000058
-22.575	-0.000065
-22.570	-0.000099
-22.565	-0.000051
-22.560	-0.000038
-22.555	-0.000085
-22.550	-0.000085
-22.545	-0.000078
-22.540	-0.000065
-22.535	-0.000085
-22.530	-0.000058
-22.525	-0.000052
-22.520	-0.000079
-22.515	-0.000052
-22.510	-0.000065
-22.505	-0.000065
-22.500	-0.000058
-22.495	-0.000065
-22.490	-0.000093
-22.485	-0.000072
-22.480	-0.000052
-22.475	-0.000052
-22.470	-0.000078
-22.465	-0.000072
-22.460	-0.000059
-22.455	-0.000072
-22.450	-0.000052
-22.445	-0.000079
-22.440	-0.000059
-22.435	-0.000086
-22.430	-0.000079
-22.425	-0.000066
-22.420	-0.000066
-22.415	-0.000066
-22.410	-0.000093
-22.405	-0.000065
-22.400	-0.000052
-22.395	-0.000086
-22.390	-0.000039
-22.385	-0.000032
-22.380	-0.000073
-22.375	-0.000073
-22.370	-0.000045
-22.365	-0.000052
-22.360	-0.000066
-22.355	-0.000114
-22.350	-0.000066
-22.345	-0.000086
-22.340	-0.000100
-22.335	-0.000045
-22.330	-0.000073
-22.325	-0.000073
-22.320	-0.000046
-22.315	-0.000039
-22.310	-0.000046
-22.305	-0.000073
-22.300	-0.000066
-22.295	-0.000073
-22.290	-0.000100
-22.285	-0.000080
-22.280	-0.000039
-22.275	-0.000080
-22.270	-0.000039
-22.265	-0.000087
-22.260	-0.000033
-22.255	-0.000066
-22.250	-0.000073
-22.245	-0.000067
-22.240	-0.000080
-22.235	-0.000080
-22.230	-0.000067
-22.225	-0.000094
-22.220	-0.000080
-22.215	-0.000101
-22.210	-0.000080
-22.205	-0.000073
-22.200	-0.000073
-22.195	-0.000087
-22.190	-0.000080
-22.185	-0.000053
-22.180	-0.000074
-22.175	-0.000074
-22.170	-0.000060
-22.165	-0.000101
-22.160	-0.000087
-22.155	-0.000094
-22.150	-0.000094
-22.145	-0.000067
-22.140	-0.000073
-22.135	-0.000053
-22.130	-0.000047
-22.125	-0.000067
-22.120	-0.000067
-22.115	-0.000067
-22.110	-0.000081
-22.105	-0.000115
-22.100	-0.000074
-22.095	-0.000094
-22.090	-0.000081
-22.085	-0.000074
-22.080	-0.000054
-22.075	-0.000080
-22.070	-0.000074
-22.065	-0.000047
-22.060	-0.000047
-22.055	-0.000047
-22.050	-0.000081
-22.045	-0.000081
-22.040	-0.000074
-22.035	-0.000034
-22.030	-0.000068
-22.025	-0.000088
-22.020	-0.000095
-22.015	-0.000054
-22.010	-0.000074
-22.005	-0.000054
-22.000	-0.000040
-21.995	-0.000068
-21.990	-0.000088
-21.985	-0.000088
-21.980	-0.000047
-21.975	-0.000075
-21.970	-0.000068
-21.965	-0.000075
-21.960	-0.000075
-21.955	-0.000068
-21.950	-0.000095
-21.945	-0.000040
-21.940	-0.000088
-21.935	-0.000061
-21.930	-0.000095
-21.925	-0.000054
-21.920	-0.000075
-21.915	-0.000027
-21.910	-0.000061
-21.905	-0.000041
-21.900	-0.000075
-21.895	-0.000082
-21.890	-0.000075
-21.885	-0.000068
-21.880	-0.000068
-21.875	-0.000102
-21.870	-0.000061
-21.865	-0.000075
-21.860	-0.000102
-21.855	-0.000068
-21.850	-0.000055
-21.845	-0.000061
-21.840	-0.000082
-21.835	-0.000089
-21.830	-0.000062
-21.825	-0.000089
-21.820	-0.000062
-21.815	-0.000055
-21.810	-0.000054
-21.805	-0.000082
-21.800	-0.000055
-21.795	-0.000068
-21.790	-0.000068
-21.785	-0.000062
-21.780	-0.000062
-21.775	-0.000082
-21.770	-0.000055
-21.765	-0.000048
-21.760	-0.000069
-21.755	-0.000069
-21.750	-0.000048
-21.745	-0.000041
-21.740	-0.000068
-21.735	-0.000041
-21.730	-0.000028
-21.725	-0.000069
-21.720	-0.000021
-21.715	-0.000041
-21.710	-0.000028
-21.705	-0.000042
-21.700	-0.000055
-21.695	-0.000055
-21.690	-0.000083
-21.685	-0.000055
-21.680	-0.000082
-21.675	-0.000055
-21.670	-0.000069
-21.665	-0.000076
-21.660	-0.000049
-21.655	-0.000001
-21.650	-0.000042
-21.645	-0.000049
-21.640	-0.000069
-21.635	-0.000056
-21.630	-0.000029
-21.625	-0.000076
-21.620	-0.000042
-21.615	-0.000097
-21.610	-0.000028
-21.605	-0.000069
-21.600	-0.000062
-21.595	-0.000035
-21.590	-0.000049
-21.585	-0.000022
-21.580	-0.000028
-21.575	-0.000022
-21.570	-0.000069
-21.565	-0.000056
-21.560	-0.000069
-21.555	-0.000022
-21.550	-0.000042
-21.545	-0.000076
-21.540	-0.000035
-21.535	-0.000028
-21.530	-0.000056
-21.525	-0.000022
-21.520	-0.000022
-21.515	-0.000036
-21.510	-0.000043
-21.505	-0.000043
-21.500	-0.000036
-21.495	-0.000009
-21.490	-0.000002
-21.485	-0.000050
-21.480	-0.000015
-21.475	0.000005
-21.470	0.000005
-21.465	0.000005
-21.460	0.000032
-21.455	0.000046
-21.450	0.000067
-21.445	0.000115
-21.440	0.000190
-21.435	0.000340
-21.430	0.000553
-21.425	0.000896
-21.420	0.001295
-21.415	0.001889
-21.410	0.002716
-21.405	0.003737
-21.400	0.005013
-21.395	0.006503
-21.390	0.008261
-21.385	0.010330
-21.380	0.012781
-21.375	0.015604
-21.370	0.018592
-21.365	0.021843
-21.360	0.025308
-21.355	0.028910
-21.350	0.032615
-21.345	0.036231
-21.340	0.039900
-21.335	0.043647
-21.330	0.047096
-21.325	0.050187
-21.320	0.050656
-21.315	0.049616
-21.310	0.048788
-21.305	0.047165
-21.300	0.045355
-21.295	0.044455
-21.290	0.043557
-21.285	0.042703
-21.280	0.042044
-21.275	0.041641
-21.270	0.040339
-21.265	0.039007
-21.260	0.038066
-21.255	0.037171
-21.250	0.036394
-21.245	0.035924
-21.240	0.035122
-21.235	0.034332
-21.230	0.034149
-21.225	0.033466
-21.220	0.032912
-21.215	0.032408
-21.210	0.031929
-21.205	0.031506
-21.200	0.031200
-21.195	0.030929
-21.190	0.030690
-21.185	0.030530
-21.180	0.030030
-21.175	0.029141
-21.170	0.028658
-21.165	0.028405
-21.160	0.028168
-21.155	0.027693
-21.150	0.027294
-21.145	0.027172
-21.140	0.027191
-21.135	0.027430
-21.130	0.027277
-21.125	0.026375
-21.120	0.025805
-21.115	0.025672
-21.110	0.025532
-21.105	0.025260
-21.100	0.025045
-21.095	0.024947
-21.090	0.024704
-21.085	0.024340
-21.080	0.024077
-21.075	0.023923
-21.070	0.023707
-21.065	0.023469
-21.060	0.023232
-21.055	0.023015
-21.050	0.022857
-21.045	0.022731
-21.040	0.022605
-21.035	0.022452
-21.030	0.022273
-21.025	0.022126
-21.020	0.021991
-21.015	0.021863
-21.010	0.021749
-21.005	0.021703
-21.000	0.021627
-20.995	0.021543
-20.990	0.021350
-20.985	0.021140
-20.980	0.020929
-20.975	0.020816
-20.970	0.020671
-20.965	0.020573
-20.960	0.020430
-20.955	0.020234
-20.950	0.020176
-20.945	0.020053
-20.940	0.019907
-20.935	0.019841
-20.930	0.019686
-20.925	0.019616
-20.920	0.019486
-20.915	0.019354
-20.910	0.019257
-20.905	0.019158
-20.900	0.019039
-20.895	0.018957
-20.890	0.018813
-20.885	0.018710
-20.880	0.018641
-20.875	0.018551
-20.870	0.018480
-20.865	0.018421
-20.860	0.018349
-20.855	0.018243
-20.850	0.018147
-20.845	0.018016
-20.840	0.017931
-20.835	0.017789
-20.830	0.017692
-20.825	0.017599
-20.820	0.017495
-20.815	0.017394
-20.810	0.017339
-20.805	0.017255
-20.800	0.017179
-20.795	0.017149
-20.790	0.017110
-20.785	0.017020
-20.780	0.016946
-20.775	0.016881
-20.770	0.016828
-20.765	0.016745
-20.760	0.016640
-20.755	0.016569
-20.750	0.016488
-20.745	0.016374
-20.740	0.016338
-20.735	0.016279
-20.730	0.016222
-20.725	0.016132
-20.720	0.016065
-20.715	0.016040
-20.710	0.015967
-20.705	0.015872
-20.700	0.015803
-20.695	0.015731
-20.690	0.015681
-20.685	0.015585
-20.680	0.015584
-20.675	0.015515
-20.670	0.015469
-20.665	0.015433
-20.660	0.015392
-20.655	0.015309
-20.650	0.015243
-20.645	0.015238
-20.640	0.015122
-20.635	0.015110
-20.630	0.015028
-20.625	0.014990
-20.620	0.014928
-20.615	0.014854
-20.610	0.014835
-20.605	0.014772
-20.600	0.014786
-20.595	0.014719
-20.590	0.014677
-20.585	0.014646
-20.580	0.014595
-20.575	0.014542
-20.570	0.014448
-20.565	0.014398
-20.560	0.014343
-20.555	0.014292
-20.550	0.014247
-20.545	0.014183
-20.540	0.014168
-20.535	0.014104
-20.530	0.014079
-20.525	0.014039
-20.520	0.014013
-20.515	0.013919
-20.510	0.013913
-20.505	0.013859
-20.500	0.013809
-20.495	0.013758
-20.490	0.013729
-20.485	0.013707
-20.480	0.013712
-20.475	0.013671
-20.470	0.013638
-20.465	0.013621
-20.460	0.013565
-20.455	0.013540
-20.450	0.013478
-20.445	0.013428
-20.440	0.013413
-20.435	0.013298
-20.430	0.013289
-20.425	0.013227
-20.420	0.013198
-20.415	0.013153
-20.410	0.013133
-20.405	0.013106
-20.400	0.013076
-20.395	0.013034
-20.390	0.013011
-20.385	0.012927
-20.380	0.012915
-20.375	0.012865
-20.370	0.012855
-20.365	0.012818
-20.360	0.012799
-20.355	0.012749
-20.350	0.012738
-20.345	0.012675
-20.340	0.012651
-20.335	0.012632
-20.330	0.012581
-20.325	0.012535
-20.320	0.012522
-20.315	0.012483
-20.310	0.012458
-20.305	0.012385
-20.300	0.012374
-20.295	0.012349
-20.290	0.012269
-20.285	0.012266
-20.280	0.012228
-20.275	0.012209
-20.270	0.012179
-20.265	0.012147
-20.260	0.012118
-20.255	0.012115
-20.250	0.012077
-20.245	0.012068
-20.240	0.012035
-20.235	0.012001
-20.230	0.011982
-20.225	0.011941
-20.220	0.011910
-20.215	0.011874
-20.210	0.011857
-20.205	0.011835
-20.200	0.011833
-20.195	0.011807
-20.190	0.011791
-20.185	0.011739
-20.180	0.011772
-20.175	0.011692
-20.170	0.011644
-20.165	0.011657
-20.160	0.011629
-20.155	0.011544
-20.150	0.011579
-20.145	0.011532
-20.140	0.011503
-20.135	0.011471
-20.130	0.011460
-20.125	0.011422
-20.120	0.011418
-20.115	0.011394
-20.110	0.011343
-20.105	0.011325
-20.100	0.011293
-20.095	0.011263
-20.090	0.011233
-20.085	0.011168
-20.080	0.011175
-20.075	0.011162
-20.070	0.011160
-20.065	0.011087
-20.060	0.011116
-20.055	0.011060
-20.050	0.011068
-20.045	0.011018
-20.040	0.010968
-20.035	0.011017
-20.030	0.010947
-20.025	0.010940
-20.020	0.010886
-20.015	0.010872
-20.010	0.010835
-20.005	0.010846
-20.000	0.010815
-19.995	0.010793
-19.990	0.010766
-19.985	0.010777
-19.980	0.010749
-19.975	0.010713
-19.970	0.010698
-19.965	0.010656
-19.960	0.010659
-19.955	0.010624
-19.950	0.010599
-19.945	0.010583
-19.940	0.010556
-19.935	0.010567
-19.930	0.010516
-19.925	0.010544
-19.920	0.010512
-19.915	0.010485
-19.910	0.010440
-19.905	0.010456
-19.900	0.010396
-19.895	0.010369
-19.890	0.010393
-19.885	0.010372
-19.880	0.010364
-19.875	0.010303
-19.870	0.010282
-19.865	0.010317
-19.860	0.010291
-19.855	0.010257
-19.850	0.010233
-19.845	0.010214
-19.840	0.010233
-19.835	0.010164
-19.830	0.010141
-19.825	0.010139
-19.820	0.010103
-19.815	0.010085
-19.810	0.010070
-19.805	0.010046
-19.800	0.010028
-19.795	0.010026
-19.790	0.010003
-19.785	0.009966
-19.780	0.009932
-19.775	0.009903
-19.770	0.009896
-19.765	0.009895
-19.760	0.009849
-19.755	0.009799
-19.750	0.009814
-19.745	0.009817
-19.740	0.009783
-19.735	0.009766
-19.730	0.009730
-19.725	0.009750
-19.720	0.009683
-19.715	0.009697
-19.710	0.009640
-19.705	0.009653
-19.700	0.009556
-19.695	0.009584
-19.690	0.009571
-19.685	0.009550
-19.680	0.009548
-19.675	0.009487
-19.670	0.009492
-19.665	0.009494
-19.660	0.009463
-19.655	0.009485
-19.650	0.009444
-19.645	0.009432
-19.640	0.009412
-19.635	0.009390
-19.630	0.009347
-19.625	0.009348
-19.620	0.009316
-19.615	0.009303
-19.610	0.009297
-19.605	0.009288
-19.600	0.009303
-19.595	0.009301
-19.590	0.009258
-19.585	0.009257
-19.580	0.009219
-19.575	0.009243
-19.570	0.009203
-19.565	0.009206
-19.560	0.009198
-19.555	0.009184
-19.550	0.009171
-19.545	0.009160
-19.540	0.009129
-19.535	0.009116
-19.530	0.009094
-19.525	0.009112
-19.520	0.009077
-19.515	0.009110
-19.510	0.009081
-19.505	0.009076
-19.500	0.009052
-19.495	0.009051
-19.490	0.009042
-19.485	0.008971
-19.480	0.009009
-19.475	0.008997
-19.470	0.008996
-19.465	0.008972
-19.460	0.008940
-19.455	0.008956
-19.450	0.008913
-19.445	0.008949
-19.440	0.008908
-19.435	0.008854
-19.430	0.008869
-19.425	0.008835
-19.420	0.008844
-19.415	0.008799
-19.410	0.008790
-19.405	0.008763
-19.400	0.008808
-19.395	0.008751
-19.390	0.008773
-19.385	0.008767
-19.380	0.008767
-19.375	0.008726
-19.370	0.008700
-19.365	0.008687
-19.360	0.008716
-19.355	0.008667
-19.350	0.008646
-19.345	0.008667
-19.340	0.008651
-19.335	0.008615
-19.330	0.008616
-19.325	0.008594
-19.320	0.008605
-19.315	0.008614
-19.310	0.008585
-19.305	0.008563
-19.300	0.008541
-19.295	0.008553
-19.290	0.008530
-19.285	0.008496
-19.280	0.008523
-19.275	0.008527
-19.270	0.008509
-19.265	0.008504
-19.260	0.008482
-19.255	0.008452
-19.250	0.008458
-19.245	0.008463
-19.240	0.008412
-19.235	0.008403
-19.230	0.008387
-19.225	0.008378
-19.220	0.008379
-19.215	0.008353
-19.210	0.008340
-19.205	0.008331
-19.200	0.008372
-19.195	0.008343
-19.190	0.008298
-19.185	0.008307
-19.180	0.008293
-19.175	0.008266
-19.170	0.008273
-19.165	0.008239
-19.160	0.008260
-19.155	0.008233
-19.150	0.008223
-19.145	0.008227
-19.140	0.008222
-19.135	0.008228
-19.130	0.008198
-19.125	0.008205
-19.120	0.008202
-19.115	0.008168
-19.110	0.008140
-19.105	0.008176
-19.100	0.008156
-19.095	0.008107
-19.090	0.008112
-19.085	0.008117
-19.080	0.008092
-19.075	0.008119
-19.070	0.008090
-19.065	0.008088
-19.060	0.008083
-19.055	0.008042
-19.050	0.008028
-19.045	0.008041
-19.040	0.008042
-19.035	0.008000
-19.030	0.008006
-19.025	0.007964
-19.020	0.007957
-19.015	0.007951
-19.010	0.007960
-19.005	0.007951
-19.000	0.007923
-18.995	0.007918
-18.990	0.007926
-18.985	0.007898
-18.980	0.007878
-18.975	0.007850
-18.970	0.007862
-18.965	0.007847
-18.960	0.007784
-18.955	0.007771
-18.950	0.007779
-18.945	0.007752
-18.940	0.007764
-18.935	0.007734
-18.930	0.007757
-18.925	0.007736
-18.920	0.007725
-18.915	0.007717
-18.910	0.007691
-18.905	0.007655
-18.900	0.007641
-18.895	0.007627
-18.890	0.007619
-18.885	0.007614
-18.880	0.007592
-18.875	0.007579
-18.870	0.007577
-18.865	0.007587
-18.860	0.007567
-18.855	0.007572
-18.850	0.007564
-18.845	0.007549
-18.840	0.007557
-18.835	0.007515
-18.830	0.007514
-18.825	0.007473
-18.820	0.007480
-18.815	0.007475
-18.810	0.007456
-18.805	0.007461
-18.800	0.007471
-18.795	0.007454
-18.790	0.007454
-18.785	0.007433
-18.780	0.007431
-18.775	0.007441
-18.770	0.007431
-18.765	0.007416
-18.760	0.007421
-18.755	0.007392
-18.750	0.007392
-18.745	0.007380
-18.740	0.007371
-18.735	0.007388
-18.730	0.007360
-18.725	0.007368
-18.720	0.007360
-18.715	0.007359
-18.710	0.007318
-18.705	0.007337
-18.700	0.007343
-18.695	0.007307
-18.690	0.007300
-18.685	0.007320
-18.680	0.007296
-18.675	0.007268
-18.670	0.007287
-18.665	0.007285
-18.660	0.007285
-18.655	0.007243
-18.650	0.007257
-18.645	0.007269
-18.640	0.007235
-18.635	0.007255
-18.630	0.007248
-18.625	0.007225
-18.620	0.007218
-18.615	0.007199
-18.610	0.007201
-18.605	0.007220
-18.600	0.007197
-18.595	0.007189
-18.590	0.007168
-18.585	0.007181
-18.580	0.007162
-18.575	0.007183
-18.570	0.007141
-18.565	0.007132
-18.560	0.007120
-18.555	0.007140
-18.550	0.007113
-18.545	0.007094
-18.540	0.007136
-18.535	0.007063
-18.530	0.007126
-18.525	0.007105
-18.520	0.007086
-18.515	0.007099
-18.510	0.007073
-18.505	0.007078
-18.500	0.007051
-18.495	0.007050
-18.490	0.007009
-18.485	0.007030
-18.480	0.007026
-18.475	0.007026
-18.470	0.007031
-18.465	0.007003
-18.460	0.007017
-18.455	0.007017
-18.450	0.006989
-18.445	0.006994
-18.440	0.006973
-18.435	0.006952
-18.430	0.006966
-18.425	0.006951
-18.420	0.006930
-18.415	0.006919
-18.410	0.006926
-18.405	0.006919
-18.400	0.006889
-18.395	0.006924
-18.390	0.006883
-18.385	0.006896
-18.380	0.006890
-18.375	0.006883
-18.370	0.006891
-18.365	0.006834
-18.360	0.006854
-18.355	0.006839
-18.350	0.006827
-18.345	0.006822
-18.340	0.006794
-18.335	0.006812
-18.330	0.006811
-18.325	0.006817
-18.320	0.006796
-18.315	0.006762
-18.310	0.006780
-18.305	0.006760
-18.300	0.006787
-18.295	0.006725
-18.290	0.006711
-18.285	0.006697
-18.280	0.006701
-18.275	0.006721
-18.270	0.006726
-18.265	0.006696
-18.260	0.006697
-18.255	0.006710
-18.250	0.006705
-18.245	0.006670
-18.240	0.006664
-18.235	0.006650
-18.230	0.006615
-18.225	0.006631
-18.220	0.006659
-18.215	0.006626
-18.210	0.006608
-18.205	0.006595
-18.200	0.006607
-18.195	0.006608
-18.190	0.006629
-18.185	0.006595
-18.180	0.006597
-18.175	0.006569
-18.170	0.006549
-18.165	0.006557
-18.160	0.006571
-18.155	0.006544
-18.150	0.006574
-18.145	0.006541
-18.140	0.006548
-18.135	0.006525
-18.130	0.006531
-18.125	0.006553
-18.120	0.006521
-18.115	0.006529
-18.110	0.006530
-18.105	0.006497
-18.100	0.006526
-18.095	0.006518
-18.090	0.006491
-18.085	0.006498
-18.080	0.006453
-18.075	0.006515
-18.070	0.006487
-18.065	0.006478
-18.060	0.006479
-18.055	0.006491
-18.050	0.006478
-18.045	0.006455
-18.040	0.006468
-18.035	0.006425
-18.030	0.006451
-18.025	0.006410
-18.020	0.006424
-18.015	0.006426
-18.010	0.006398
-18.005	0.006381
-18.000	0.006386
-17.995	0.006385
-17.990	0.006385
-17.985	0.006384
-17.980	0.006363
-17.975	0.006368
-17.970	0.006348
-17.965	0.006334
-17.960	0.006347
-17.955	0.006319
-17.950	0.006313
-17.945	0.006306
-17.940	0.006312
-17.935	0.006323
-17.930	0.006336
-17.925	0.006323
-17.920	0.006331
-17.915	0.006295
-17.910	0.006267
-17.905	0.006280
-17.900	0.006287
-17.895	0.006258
-17.890	0.006232
-17.885	0.006266
-17.880	0.006275
-17.875	0.006255
-17.870	0.006240
-17.865	0.006252
-17.860	0.006233
-17.855	0.006239
-17.850	0.006217
-17.845	0.006252
-17.840	0.006204
-17.835	0.006223
-17.830	0.006181
-17.825	0.006195
-17.820	0.006174
-17.815	0.006190
-17.810	0.006184
-17.805	0.006204
-17.800	0.006174
-17.795	0.006187
-17.790	0.006214
-17.785	0.006185
-17.780	0.006213
-17.775	0.006156
-17.770	0.006191
-17.765	0.006115
-17.760	0.006170
-17.755	0.006113
-17.750	0.006128
-17.745	0.006123
-17.740	0.006093
-17.735	0.006105
-17.730	0.006125
-17.725	0.006091
-17.720	0.006064
-17.715	0.006091
-17.710	0.006036
-17.705	0.006097
-17.700	0.006048
-17.695	0.006000
-17.690	0.006014
-17.685	0.006027
-17.680	0.005988
-17.675	0.006001
-17.670	0.006000
-17.665	0.005991
-17.660	0.005992
-17.655	0.006033
-17.650	0.005972
-17.645	0.005964
-17.640	0.005937
-17.635	0.005985
-17.630	0.005938
-17.625	0.005952
-17.620	0.005939
-17.615	0.005901
-17.610	0.005942
-17.605	0.005940
-17.600	0.005905
-17.595	0.005927
-17.590	0.005914
-17.585	0.005901
-17.580	0.005900
-17.575	0.005898
-17.570	0.005912
-17.565	0.005878
-17.560	0.005912
-17.555	0.005869
-17.550	0.005872
-17.545	0.005859
-17.540	0.005872
-17.535	0.005849
-17.530	0.005897
-17.525	0.005848
-17.520	0.005840
-17.515	0.005861
-17.510	0.005807
-17.505	0.005813
-17.500	0.005778
-17.495	0.005777
-17.490	0.005790
-17.485	0.005784
-17.480	0.005766
-17.475	0.005771
-17.470	0.005775
-17.465	0.005809
-17.460	0.005781
-17.455	0.005788
-17.450	0.005781
-17.445	0.005760
-17.440	0.005713
-17.435	0.005774
-17.430	0.005725
-17.425	0.005731
-17.420	0.005691
-17.415	0.005707
-17.410	0.005721
-17.405	0.005733
-17.400	0.005710
-17.395	0.005717
-17.390	0.005704
-17.385	0.005676
-17.380	0.005683
-17.375	0.005689
-17.370	0.005668
-17.365	0.005693
-17.360	0.005666
-17.355	0.005644
-17.350	0.005660
-17.345	0.005654
-17.340	0.005645
-17.335	0.005650
-17.330	0.005657
-17.325	0.005636
-17.320	0.005616
-17.315	0.005643
-17.310	0.005628
-17.305	0.005622
-17.300	0.005608
-17.295	0.005586
-17.290	0.005593
-17.285	0.005620
-17.280	0.005622
-17.275	0.005594
-17.270	0.005606
-17.265	0.005585
-17.260	0.005592
-17.255	0.005579
-17.250	0.005599
-17.245	0.005571
-17.240	0.005557
-17.235	0.005563
-17.230	0.005557
-17.225	0.005521
-17.220	0.005516
-17.215	0.005531
-17.210	0.005538
-17.205	0.005495
-17.200	0.005522
-17.195	0.005503
-17.190	0.005490
-17.185	0.005484
-17.180	0.005505
-17.175	0.005498
-17.170	0.005491
-17.165	0.005498
-17.160	0.005484
-17.155	0.005497
-17.150	0.005458
-17.145	0.005458
-17.140	0.005464
-17.135	0.005476
-17.130	0.005456
-17.125	0.005483
-17.120	0.005476
-17.115	0.005474
-17.110	0.005427
-17.105	0.005453
-17.100	0.005447
-17.095	0.005439
-17.090	0.005431
-17.085	0.005425
-17.080	0.005442
-17.075	0.005434
-17.070	0.005432
-17.065	0.005412
-17.060	0.005433
-17.055	0.005405
-17.050	0.005447
-17.045	0.005411
-17.040	0.005376
-17.035	0.005397
-17.030	0.005368
-17.025	0.005402
-17.020	0.005368
-17.015	0.005343
-17.010	0.005357
-17.005	0.005391
-17.000	0.005368
-16.995	0.005382
-16.990	0.005341
-16.985	0.005341
-16.980	0.005355
-16.975	0.005333
-16.970	0.005306
-16.965	0.005348
-16.960	0.005265
-16.955	0.005258
-16.950	0.005329
-16.945	0.005295
-16.940	0.005288
-16.935	0.005320
-16.930	0.005300
-16.925	0.005329
-16.920	0.005294
-16.915	0.005314
-16.910	0.005273
-16.905	0.005301
-16.900	0.005273
-16.895	0.005259
-16.890	0.005266
-16.885	0.005266
-16.880	0.005263
-16.875	0.005289
-16.870	0.005254
-16.865	0.005254
-16.860	0.005254
-16.855	0.005254
-16.850	0.005235
-16.845	0.005235
-16.840	0.005264
-16.835	0.005214
-16.830	0.005209
-16.825	0.005202
-16.820	0.005224
-16.815	0.005219
-16.810	0.005192
-16.805	0.005210
-16.800	0.005182
-16.795	0.005189
-16.790	0.005203
-16.785	0.005176
-16.780	0.005177
-16.775	0.005177
-16.770	0.005148
-16.765	0.005127
-16.760	0.005141
-16.755	0.005147
-16.750	0.005128
-16.745	0.005108
-16.740	0.005128
-16.735	0.005140
-16.730	0.005147
-16.725	0.005140
-16.720	0.005121
-16.715	0.005141
-16.710	0.005120
-16.705	0.005120
-16.700	0.005044
-16.695	0.005113
-16.690	0.005070
-16.685	0.005057
-16.680	0.005080
-16.675	0.005092
-16.670	0.005063
-16.665	0.005063
-16.660	0.005051
-16.655	0.005065
-16.650	0.005031
-16.645	0.005024
-16.640	0.005073
-16.635	0.005024
-16.630	0.005011
-16.625	0.005005
-16.620	0.004992
-16.615	0.005023
-16.610	0.005010
-16.605	0.005001
-16.600	0.005006
-16.595	0.004991
-16.590	0.005012
-16.585	0.004991
-16.580	0.004964
-16.575	0.004983
-16.570	0.004934
-16.565	0.004968
-16.560	0.004927
-16.555	0.004961
-16.550	0.004950
-16.545	0.004978
-16.540	0.004944
-16.535	0.004934
-16.530	0.004927
-16.525	0.004921
-16.520	0.004957
-16.515	0.004949
-16.510	0.004922
-16.505	0.004915
-16.500	0.004874
-16.495	0.004907
-16.490	0.004928
-16.485	0.004894
-16.480	0.004868
-16.475	0.004915
-16.470	0.004886
-16.465	0.004905
-16.460	0.004897
-16.455	0.004903
-16.450	0.004919
-16.445	0.004884
-16.440	0.004870
-16.435	0.004876
-16.430	0.004849
-16.425	0.004847
-16.420	0.004868
-16.415	0.004843
-16.410	0.004856
-16.405	0.004875
-16.400	0.004840
-16.395	0.004861
-16.390	0.004868
-16.385	0.004847
-16.380	0.004847
-16.375	0.004846
-16.370	0.004833
-16.365	0.004812
-16.360	0.004853
-16.355	0.004810
-16.350	0.004799
-16.345	0.004833
-16.340	0.004805
-16.335	0.004796
-16.330	0.004816
-16.325	0.004802
-16.320	0.004816
-16.315	0.004788
-16.310	0.004796
-16.305	0.004775
-16.300	0.004768
-16.295	0.004761
-16.290	0.004781
-16.285	0.004755
-16.280	0.004770
-16.275	0.004762
-16.270	0.004754
-16.265	0.004740
-16.260	0.004768
-16.255	0.004721
-16.250	0.004755
-16.245	0.004776
-16.240	0.004742
-16.235	0.004728
-16.230	0.004729
-16.225	0.004701
-16.220	0.004709
-16.215	0.004691
-16.210	0.004705
-16.205	0.004723
-16.200	0.004688
-16.195	0.004715
-16.190	0.004723
-16.185	0.004736
-16.180	0.004689
-16.175	0.004676
-16.170	0.004662
-16.165	0.004690
-16.160	0.004657
-16.155	0.004650
-16.150	0.004652
-16.145	0.004674
-16.140	0.004687
-16.135	0.004700
-16.130	0.004674
-16.125	0.004723
-16.120	0.004648
-16.115	0.004676
-16.110	0.004669
-16.105	0.004662
-16.100	0.004664
-16.095	0.004636
-16.090	0.004608
-16.085	0.004629
-16.080	0.004645
-16.075	0.004631
-16.070	0.004615
-16.065	0.004643
-16.060	0.004657
-16.055	0.004628
-16.050	0.004635
-16.045	0.004634
-16.040	0.004606
-16.035	0.004606
-16.030	0.004599
-16.025	0.004607
-16.020	0.004579
-16.015	0.004602
-16.010	0.004629
-16.005	0.004606
-16.000	0.004619
-15.995	0.004634
-15.990	0.004613
-15.985	0.004592
-15.980	0.004598
-15.975	0.004583
-15.970	0.004584
-15.965	0.004590
-15.960	0.004576
-15.955	0.004555
-15.950	0.004563
-15.945	0.004569
-15.940	0.004534
-15.935	0.004567
-15.930	0.004525
-15.925	0.004537
-15.920	0.004516
-15.915	0.004550
-15.910	0.004509
-15.905	0.004508
-15.900	0.004529
-15.895	0.004507
-15.890	0.004514
-15.885	0.004508
-15.880	0.004495
-15.875	0.004521
-15.870	0.004513
-15.865	0.004505
-15.860	0.004498
-15.855	0.004484
-15.850	0.004498
-15.845	0.004483
-15.840	0.004469
-15.835	0.004469
-15.830	0.004475
-15.825	0.004454
-15.820	0.004454
-15.815	0.004442
-15.810	0.004442
-15.805	0.004460
-15.800	0.004486
-15.795	0.004452
-15.790	0.004466
-15.785	0.004445
-15.780	0.004459
-15.775	0.004410
-15.770	0.004410
-15.765	0.004417
-15.760	0.004431
-15.755	0.004432
-15.750	0.004405
-15.745	0.004399
-15.740	0.004403
-15.735	0.004423
-15.730	0.004410
-15.725	0.004417
-15.720	0.004411
-15.715	0.004404
-15.710	0.004370
-15.705	0.004383
-15.700	0.004377
-15.695	0.004370
-15.690	0.004370
-15.685	0.004363
-15.680	0.004359
-15.675	0.004379
-15.670	0.004336
-15.665	0.004343
-15.660	0.004405
-15.655	0.004357
-15.650	0.004370
-15.645	0.004349
-15.640	0.004329
-15.635	0.004335
-15.630	0.004329
-15.625	0.004329
-15.620	0.004303
-15.615	0.004331
-15.610	0.004331
-15.605	0.004302
-15.600	0.004317
-15.595	0.004310
-15.590	0.004304
-15.585	0.004303
-15.580	0.004338
-15.575	0.004303
-15.570	0.004296
-15.565	0.004295
-15.560	0.004268
-15.555	0.004268
-15.550	0.004263
-15.545	0.004249
-15.540	0.004270
-15.535	0.004295
-15.530	0.004282
-15.525	0.004289
-15.520	0.004275
-15.515	0.004275
-15.510	0.004254
-15.505	0.004253
-15.500	0.004268
-15.495	0.004281
-15.490	0.004234
-15.485	0.004263
-15.480	0.004257
-15.475	0.004256
-15.470	0.004227
-15.465	0.004261
-15.460	0.004213
-15.455	0.004247
-15.450	0.004220
-15.445	0.004220
-15.440	0.004192
-15.435	0.004226
-15.430	0.004192
-15.425	0.004205
-15.420	0.004192
-15.415	0.004200
-15.410	0.004200
-15.405	0.004171
-15.400	0.004205
-15.395	0.004211
-15.390	0.004198
-15.385	0.004183
-15.380	0.004177
-15.375	0.004176
-15.370	0.004203
-15.365	0.004160
-15.360	0.004133
-15.355	0.004161
-15.350	0.004129
-15.345	0.004156
-15.340	0.004148
-15.335	0.004161
-15.330	0.004155
-15.325	0.004169
-15.320	0.004170
-15.315	0.004148
-15.310	0.004142
-15.305	0.004128
-15.300	0.004114
-15.295	0.004141
-15.290	0.004086
-15.285	0.004136
-15.280	0.004096
-15.275	0.004095
-15.270	0.004142
-15.265	0.004114
-15.260	0.004101
-15.255	0.004122
-15.250	0.004130
-15.245	0.004089
-15.240	0.004069
-15.235	0.004048
-15.230	0.004061
-15.225	0.004068
-15.220	0.004056
-15.215	0.004085
-15.210	0.004072
-15.205	0.004064
-15.200	0.004058
-15.195	0.004052
-15.190	0.004060
-15.185	0.004068
-15.180	0.004055
-15.175	0.004021
-15.170	0.004028
-15.165	0.004029
-15.160	0.004030
-15.155	0.004017
-15.150	0.004034
-15.145	0.004036
-15.140	0.003995
-15.135	0.004028
-15.130	0.004036
-15.125	0.004036
-15.120	0.004037
-15.115	0.004043
-15.110	0.004058
-15.105	0.003995
-15.100	0.003996
-15.095	0.003988
-15.090	0.004002
-15.085	0.004011
-15.080	0.004004
-15.075	0.004017
-15.070	0.004015
-15.065	0.004022
-15.060	0.003995
-15.055	0.004010
-15.050	0.004016
-15.045	0.003982
-15.040	0.004031
-15.035	0.003995
-15.030	0.004002
-15.025	0.003981
-15.020	0.003996
-15.015	0.004011
-15.010	0.003983
-15.005	0.003980
-15.000	0.003980
-14.995	0.004013
-14.990	0.003985
-14.985	0.003991
-14.980	0.003990
-14.975	0.003996
-14.970	0.003981
-14.965	0.003953
-14.960	0.003959
-14.955	0.003958
-14.950	0.003967
-14.945	0.003958
-14.940	0.003956
-14.935	0.003934
-14.930	0.003990
-14.925	0.003955
-14.920	0.003948
-14.915	0.003954
-14.910	0.003960
-14.905	0.003939
-14.900	0.003952
-14.895	0.003917
-14.890	0.003937
-14.885	0.003903
-14.880	0.003925
-14.875	0.003931
-14.870	0.003915
-14.865	0.003900
-14.860	0.003914
-14.855	0.003947
-14.850	0.003919
-14.845	0.003919
-14.840	0.003898
-14.835	0.003891
-14.830	0.003870
-14.825	0.003863
-14.820	0.003863
-14.815	0.003906
-14.810	0.003850
-14.805	0.003848
-14.800	0.003863
-14.795	0.003870
-14.790	0.003877
-14.785	0.003856
-14.780	0.003877
-14.775	0.003856
-14.770	0.003848
-14.765	0.003821
-14.760	0.003829
-14.755	0.003842
-14.750	0.003858
-14.745	0.003844
-14.740	0.003822
-14.735	0.003842
-14.730	0.003836
-14.725	0.003802
-14.720	0.003844
-14.715	0.003836
-14.710	0.003822
-14.705	0.003836
-14.700	0.003830
-14.695	0.003829
-14.690	0.003801
-14.685	0.003823
-14.680	0.003818
-14.675	0.003817
-14.670	0.003816
-14.665	0.003782
-14.660	0.003775
-14.655	0.003789
-14.650	0.003788
-14.645	0.003782
-14.640	0.003810
-14.635	0.003803
-14.630	0.003768
-14.625	0.003775
-14.620	0.003776
-14.615	0.003770
-14.610	0.003749
-14.605	0.003795
-14.600	0.003801
-14.595	0.003801
-14.590	0.003774
-14.585	0.003746
-14.580	0.003787
-14.575	0.003738
-14.570	0.003752
-14.565	0.003758
-14.560	0.003717
-14.555	0.003772
-14.550	0.003739
-14.545	0.003752
-14.540	0.003737
-14.535	0.003743
-14.530	0.003709
-14.525	0.003730
-14.520	0.003764
-14.515	0.003710
-14.510	0.003744
-14.505	0.003729
-14.500	0.003715
-14.495	0.003729
-14.490	0.003716
-14.485	0.003722
-14.480	0.003716
-14.475	0.003715
-14.470	0.003721
-14.465	0.003714
-14.460	0.003700
-14.455	0.003720
-14.450	0.003727
-14.445	0.003719
-14.440	0.003692
-14.435	0.003685
-14.430	0.003712
-14.425	0.003677
-14.420	0.003643
-14.415	0.003685
-14.410	0.003705
-14.405	0.003655
-14.400	0.003677
-14.395	0.003676
-14.390	0.003683
-14.385	0.003683
-14.380	0.003656
-14.375	0.003648
-14.370	0.003648
-14.365	0.003627
-14.360	0.003648
-14.355	0.003655
-14.350	0.003657
-14.345	0.003677
-14.340	0.003642
-14.335	0.003648
-14.330	0.003655
-14.325	0.003661
-14.320	0.003635
-14.315	0.003641
-14.310	0.003620
-14.305	0.003613
-14.300	0.003640
-14.295	0.003592
-14.290	0.003613
-14.285	0.003600
-14.280	0.003621
-14.275	0.003613
-14.270	0.003620
-14.265	0.003613
-14.260	0.003620
-14.255	0.003620
-14.250	0.003620
-14.245	0.003612
-14.240	0.003578
-14.235	0.003584
-14.230	0.003612
-14.225	0.003550
-14.220	0.003613
-14.215	0.003567
-14.210	0.003587
-14.205	0.003571
-14.200	0.003585
-14.195	0.003570
-14.190	0.003591
-14.185	0.003584
-14.180	0.003564
-14.175	0.003556
-14.170	0.003563
-14.165	0.003548
-14.160	0.003521
-14.155	0.003542
-14.150	0.003558
-14.145	0.003557
-14.140	0.003549
-14.135	0.003570
-14.130	0.003543
-14.125	0.003570
-14.120	0.003502
-14.115	0.003550
-14.110	0.003529
-14.105	0.003521
-14.100	0.003501
-14.095	0.003542
-14.090	0.003514
-14.085	0.003494
-14.080	0.003516
-14.075	0.003488
-14.070	0.003507
-14.065	0.003500
-14.060	0.003487
-14.055	0.003514
-14.050	0.003494
-14.045	0.003514
-14.040	0.003486
-14.035	0.003465
-14.030	0.003478
-14.025	0.003478
-14.020	0.003453
-14.015	0.003459
-14.010	0.003472
-14.005	0.003443
-14.000	0.003505
-13.995	0.003479
-13.990	0.003445
-13.985	0.003486
-13.980	0.003479
-13.975	0.003465
-13.970	0.003430
-13.965	0.003499
-13.960	0.003465
-13.955	0.003437
-13.950	0.003445
-13.945	0.003432
-13.940	0.003444
-13.935	0.003471
-13.930	0.003423
-13.925	0.003485
-13.920	0.003444
-13.915	0.003409
-13.910	0.003423
-13.905	0.003430
-13.900	0.003417
-13.895	0.003423
-13.890	0.003403
-13.885	0.003418
-13.880	0.003425
-13.875	0.003390
-13.870	0.003430
-13.865	0.003402
-13.860	0.003417
-13.855	0.003417
-13.850	0.003417
-13.845	0.003402
-13.840	0.003395
-13.835	0.003416
-13.830	0.003374
-13.825	0.003374
-13.820	0.003361
-13.815	0.003417
-13.810	0.003396
-13.805	0.003401
-13.800	0.003380
-13.795	0.003394
-13.790	0.003380
-13.785	0.003401
-13.780	0.003372
-13.775	0.003372
-13.770	0.003365
-13.765	0.003386
-13.760	0.003379
-13.755	0.003385
-13.750	0.003388
-13.745	0.003352
-13.740	0.003358
-13.735	0.003385
-13.730	0.003366
-13.725	0.003365
-13.720	0.003344
-13.715	0.003344
-13.710	0.003358
-13.705	0.003351
-13.700	0.003344
-13.695	0.003323
-13.690	0.003357
-13.685	0.003290
-13.680	0.003338
-13.675	0.003323
-13.670	0.003349
-13.665	0.003335
-13.660	0.003377
-13.655	0.003342
-13.650	0.003348
-13.645	0.003322
-13.640	0.003322
-13.635	0.003328
-13.630	0.003301
-13.625	0.003287
-13.620	0.003282
-13.615	0.003303
-13.610	0.003309
-13.605	0.003287
-13.600	0.003302
-13.595	0.003281
-13.590	0.003310
-13.585	0.003275
-13.580	0.003337
-13.575	0.003296
-13.570	0.003269
-13.565	0.003296
-13.560	0.003268
-13.555	0.003269
-13.550	0.003250
-13.545	0.003291
-13.540	0.003263
-13.535	0.003255
-13.530	0.003283
-13.525	0.003262
-13.520	0.003277
-13.515	0.003263
-13.510	0.003250
-13.505	0.003250
-13.500	0.003243
-13.495	0.003223
-13.490	0.003278
-13.485	0.003224
-13.480	0.003239
-13.475	0.003245
-13.470	0.003273
-13.465	0.003218
-13.460	0.003253
-13.455	0.003226
-13.450	0.003226
-13.445	0.003206
-13.440	0.003242
-13.435	0.003235
-13.430	0.003228
-13.425	0.003228
-13.420	0.003222
-13.415	0.003202
-13.410	0.003230
-13.405	0.003222
-13.400	0.003250
-13.395	0.003215
-13.390	0.003228
-13.385	0.003187
-13.380	0.003221
-13.375	0.003221
-13.370	0.003207
-13.365	0.003193
-13.360	0.003200
-13.355	0.003194
-13.350	0.003202
-13.345	0.003215
-13.340	0.003206
-13.335	0.003194
-13.330	0.003200
-13.325	0.003208
-13.320	0.003180
-13.315	0.003180
-13.310	0.003172
-13.305	0.003193
-13.300	0.003165
-13.295	0.003158
-13.290	0.003164
-13.285	0.003166
-13.280	0.003208
-13.275	0.003179
-13.270	0.003164
-13.265	0.003184
-13.260	0.003198
-13.255	0.003157
-13.250	0.003205
-13.245	0.003163
-13.240	0.003156
-13.235	0.003156
-13.230	0.003135
-13.225	0.003148
-13.220	0.003136
-13.215	0.003136
-13.210	0.003156
-13.205	0.003140
-13.200	0.003168
-13.195	0.003148
-13.190	0.003107
-13.185	0.003155
-13.180	0.003134
-13.175	0.003134
-13.170	0.003119
-13.165	0.003098
-13.160	0.003098
-13.155	0.003120
-13.150	0.003100
-13.145	0.003147
-13.140	0.003132
-13.135	0.003118
-13.130	0.003098
-13.125	0.003139
-13.120	0.003139
-13.115	0.003097
-13.110	0.003117
-13.105	0.003103
-13.100	0.003097
-13.095	0.003069
-13.090	0.003083
-13.085	0.003071
-13.080	0.003064
-13.075	0.003119
-13.070	0.003090
-13.065	0.003111
-13.060	0.003084
-13.055	0.003070
-13.050	0.003070
-13.045	0.003098
-13.040	0.003084
-13.035	0.003035
-13.030	0.003063
-13.025	0.003042
-13.020	0.003030
-13.015	0.003058
-13.010	0.003092
-13.005	0.003063
-13.000	0.003063
-12.995	0.003022
-12.990	0.003050
-12.985	0.003042
-12.980	0.003056
-12.975	0.003050
-12.970	0.003036
-12.965	0.003036
-12.960	0.003015
-12.955	0.003043
-12.950	0.003037
-12.945	0.003036
-12.940	0.003015
-12.935	0.003029
-12.930	0.003036
-12.925	0.003002
-12.920	0.003016
-12.915	0.003015
-12.910	0.003036
-12.905	0.003029
-12.900	0.003015
-12.895	0.002995
-12.890	0.003009
-12.885	0.002983
-12.880	0.002989
-12.875	0.003002
-12.870	0.002981
-12.865	0.003015
-12.860	0.003015
-12.855	0.002980
-12.850	0.002973
-12.845	0.003007
-12.840	0.002979
-12.835	0.002979
-12.830	0.002986
-12.825	0.002979
-12.820	0.002981
-12.815	0.002960
-12.810	0.002987
-12.805	0.002992
-12.800	0.002972
-12.795	0.002972
-12.790	0.002993
-12.785	0.002958
-12.780	0.002979
-12.775	0.002964
-12.770	0.002937
-12.765	0.002937
-12.760	0.002930
-12.755	0.002958
-12.750	0.002959
-12.745	0.002986
-12.740	0.002978
-12.735	0.002943
-12.730	0.002984
-12.725	0.002978
-12.720	0.002943
-12.715	0.002977
-12.710	0.002943
-12.705	0.002964
-12.700	0.002956
-12.695	0.002942
-12.690	0.002950
-12.685	0.002916
-12.680	0.002943
-12.675	0.002935
-12.670	0.002942
-12.665	0.002942
-12.660	0.002936
-12.655	0.002942
-12.650	0.002950
-12.645	0.002907
-12.640	0.002928
-12.635	0.002907
-12.630	0.002900
-12.625	0.002914
-12.620	0.002929
-12.615	0.002909
-12.610	0.002914
-12.605	0.002927
-12.600	0.002927
-12.595	0.002927
-12.590	0.002927
-12.585	0.002955
-12.580	0.002906
-12.575	0.002905
-12.570	0.002885
-12.565	0.002898
-12.560	0.002933
-12.555	0.002886
-12.550	0.002887
-12.545	0.002907
-12.540	0.002899
-12.535	0.002892
-12.530	0.002899
-12.525	0.002926
-12.520	0.002899
-12.515	0.002899
-12.510	0.002891
-12.505	0.002878
-12.500	0.002884
-12.495	0.002885
-12.490	0.002864
-12.485	0.002865
-12.480	0.002886
-12.475	0.002871
-12.470	0.002871
-12.465	0.002857
-12.460	0.002884
-12.455	0.002857
-12.450	0.002843
-12.445	0.002891
-12.440	0.002877
-12.435	0.002856
-12.430	0.002849
-12.425	0.002856
-12.420	0.002865
-12.415	0.002823
-12.410	0.002877
-12.405	0.002835
-12.400	0.002849
-12.395	0.002821
-12.390	0.002863
-12.385	0.002870
-12.380	0.002836
-12.375	0.002842
-12.370	0.002815
-12.365	0.002828
-12.360	0.002800
-12.355	0.002801
-12.350	0.002843
-12.345	0.002822
-12.340	0.002814
-12.335	0.002821
-12.330	0.002821
-12.325	0.002827
-12.320	0.002841
-12.315	0.002827
-12.310	0.002806
-12.305	0.002819
-12.300	0.002813
-12.295	0.002785
-12.290	0.002806
-12.285	0.002773
-12.280	0.002807
-12.275	0.002812
-12.270	0.002798
-12.265	0.002812
-12.260	0.002799
-12.255	0.002833
-12.250	0.002792
-12.245	0.002778
-12.240	0.002771
-12.235	0.002798
-12.230	0.002764
-12.225	0.002784
-12.220	0.002765
-12.215	0.002778
-12.210	0.002771
-12.205	0.002797
-12.200	0.002797
-12.195	0.002797
-12.190	0.002756
-12.185	0.002783
-12.180	0.002755
-12.175	0.002775
-12.170	0.002748
-12.165	0.002775
-12.160	0.002734
-12.155	0.002742
-12.150	0.002763
-12.145	0.002762
-12.140	0.002740
-12.135	0.002706
-12.130	0.002754
-12.125	0.002775
-12.120	0.002761
-12.115	0.002740
-12.110	0.002774
-12.105	0.002767
-12.100	0.002719
-12.095	0.002746
-12.090	0.002726
-12.085	0.002713
-12.080	0.002719
-12.075	0.002746
-12.070	0.002739
-12.065	0.002732
-12.060	0.002732
-12.055	0.002732
-12.050	0.002704
-12.045	0.002745
-12.040	0.002718
-12.035	0.002724
-12.030	0.002710
-12.025	0.002704
-12.020	0.002727
-12.015	0.002678
-12.010	0.002725
-12.005	0.002697
-12.000	0.002704
-11.995	0.002739
-11.990	0.002698
-11.985	0.002705
-11.980	0.002698
-11.975	0.002691
-11.970	0.002711
-11.965	0.002704
-11.960	0.002704
-11.955	0.002657
-11.950	0.002706
-11.945	0.002692
-11.940	0.002697
-11.935	0.002711
-11.930	0.002690
-11.925	0.002710
-11.920	0.002710
-11.915	0.002696
-11.910	0.002690
-11.905	0.002688
-11.900	0.002667
-11.895	0.002661
-11.890	0.002674
-11.885	0.002669
-11.880	0.002675
-11.875	0.002681
-11.870	0.002687
-11.865	0.002695
-11.860	0.002674
-11.855	0.002667
-11.850	0.002660
-11.845	0.002653
-11.840	0.002660
-11.835	0.002632
-11.830	0.002640
-11.825	0.002632
-11.820	0.002668
-11.815	0.002661
-11.810	0.002668
-11.805	0.002645
-11.800	0.002674
-11.795	0.002660
-11.790	0.002660
-11.785	0.002653
-11.780	0.002647
-11.775	0.002687
-11.770	0.002646
-11.765	0.002639
-11.760	0.002639
-11.755	0.002661
-11.750	0.002661
-11.745	0.002668
-11.740	0.002653
-11.735	0.002612
-11.730	0.002640
-11.725	0.002654
-11.720	0.002633
-11.715	0.002626
-11.710	0.002620
-11.705	0.002613
-11.700	0.002612
-11.695	0.002612
-11.690	0.002593
-11.685	0.002614
-11.680	0.002655
-11.675	0.002613
-11.670	0.002626
-11.665	0.002592
-11.660	0.002613
-11.655	0.002619
-11.650	0.002592
-11.645	0.002633
-11.640	0.002619
-11.635	0.002591
-11.630	0.002613
-11.625	0.002592
-11.620	0.002580
-11.615	0.002607
-11.610	0.002579
-11.605	0.002592
-11.600	0.002578
-11.595	0.002579
-11.590	0.002572
-11.585	0.002592
-11.580	0.002551
-11.575	0.002565
-11.570	0.002599
-11.565	0.002585
-11.560	0.002551
-11.555	0.002565
-11.550	0.002587
-11.545	0.002587
-11.540	0.002579
-11.535	0.002558
-11.530	0.002565
-11.525	0.002579
-11.520	0.002579
-11.515	0.002599
-11.510	0.002551
-11.505	0.002558
-11.500	0.002552
-11.495	0.002551
-11.490	0.002518
-11.485	0.002567
-11.480	0.002573
-11.475	0.002551
-11.470	0.002579
-11.465	0.002531
-11.460	0.002566
-11.455	0.002559
-11.450	0.002559
-11.445	0.002525
-11.440	0.002545
-11.435	0.002545
-11.430	0.002510
-11.425	0.002545
-11.420	0.002560
-11.415	0.002532
-11.410	0.002518
-11.405	0.002530
-11.400	0.002544
-11.395	0.002565
-11.390	0.002565
-11.385	0.002496
-11.380	0.002523
-11.375	0.002523
-11.370	0.002516
-11.365	0.002544
-11.360	0.002537
-11.355	0.002517
-11.350	0.002552
-11.345	0.002523
-11.340	0.002516
-11.335	0.002530
-11.330	0.002544
-11.325	0.002517
-11.320	0.002524
-11.315	0.002503
-11.310	0.002516
-11.305	0.002509
-11.300	0.002516
-11.295	0.002495
-11.290	0.002489
-11.285	0.002483
-11.280	0.002483
-11.275	0.002495
-11.270	0.002516
-11.265	0.002502
-11.260	0.002495
-11.255	0.002509
-11.250	0.002488
-11.245	0.002481
-11.240	0.002474
-11.235	0.002487
-11.230	0.002453
-11.225	0.002501
-11.220	0.002461
-11.215	0.002475
-11.210	0.002488
-11.205	0.002501
-11.200	0.002481
-11.195	0.002473
-11.190	0.002474
-11.185	0.002480
-11.180	0.002480
-11.175	0.002453
-11.170	0.002459
-11.165	0.002466
-11.160	0.002480
-11.155	0.002432
-11.150	0.002440
-11.145	0.002426
-11.140	0.002459
-11.135	0.002445
-11.130	0.002452
-11.125	0.002445
-11.120	0.002465
-11.115	0.002430
-11.110	0.002424
-11.105	0.002416
-11.100	0.002430
-11.095	0.002402
-11.090	0.002445
-11.085	0.002404
-11.080	0.002424
-11.075	0.002423
-11.070	0.002423
-11.065	0.002409
-11.060	0.002410
-11.055	0.002444
-11.050	0.002409
-11.045	0.002409
-11.040	0.002415
-11.035	0.002402
-11.030	0.002395
-11.025	0.002409
-11.020	0.002403
-11.015	0.002389
-11.010	0.002388
-11.005	0.002407
-11.000	0.002408
-10.995	0.002387
-10.990	0.002401
-10.985	0.002380
-10.980	0.002394
-10.975	0.002372
-10.970	0.002366
-10.965	0.002380
-10.960	0.002394
-10.955	0.002381
-10.950	0.002374
-10.945	0.002386
-10.940	0.002379
-10.935	0.002359
-10.930	0.002386
-10.925	0.002379
-10.920	0.002393
-10.915	0.002358
-10.910	0.002357
-10.905	0.002385
-10.900	0.002344
-10.895	0.002323
-10.890	0.002372
-10.885	0.002338
-10.880	0.002351
-10.875	0.002350
-10.870	0.002377
-10.865	0.002364
-10.860	0.002364
-10.855	0.002384
-10.850	0.002370
-10.845	0.002342
-10.840	0.002356
-10.835	0.002356
-10.830	0.002349
-10.825	0.002356
-10.820	0.002344
-10.815	0.002364
-10.810	0.002349
-10.805	0.002362
-10.800	0.002321
-10.795	0.002363
-10.790	0.002329
-10.785	0.002342
-10.780	0.002329
-10.775	0.002335
-10.770	0.002328
-10.765	0.002328
-10.760	0.002328
-10.755	0.002322
-10.750	0.002316
-10.745	0.002301
-10.740	0.002376
-10.735	0.002362
-10.730	0.002335
-10.725	0.002335
-10.720	0.002328
-10.715	0.002328
-10.710	0.002286
-10.705	0.002327
-10.700	0.002313
-10.695	0.002293
-10.690	0.002321
-10.685	0.002329
-10.680	0.002294
-10.675	0.002348
-10.670	0.002300
-10.665	0.002321
-10.660	0.002363
-10.655	0.002329
-10.650	0.002301
-10.645	0.002308
-10.640	0.002301
-10.635	0.002287
-10.630	0.002287
-10.625	0.002314
-10.620	0.002289
-10.615	0.002295
-10.610	0.002301
-10.605	0.002322
-10.600	0.002294
-10.595	0.002308
-10.590	0.002295
-10.585	0.002273
-10.580	0.002302
-10.575	0.002322
-10.570	0.002274
-10.565	0.002281
-10.560	0.002281
-10.555	0.002228
-10.550	0.002269
-10.545	0.002303
-10.540	0.002309
-10.535	0.002282
-10.530	0.002276
-10.525	0.002330
-10.520	0.002282
-10.515	0.002283
-10.510	0.002269
-10.505	0.002282
-10.500	0.002269
-10.495	0.002234
-10.490	0.002270
-10.485	0.002263
-10.480	0.002277
-10.475	0.002296
-10.470	0.002269
-10.465	0.002282
-10.460	0.002282
-10.455	0.002295
-10.450	0.002296
-10.445	0.002254
-10.440	0.002282
-10.435	0.002247
-10.430	0.002254
-10.425	0.002268
-10.420	0.002242
-10.415	0.002262
-10.410	0.002302
-10.405	0.002253
-10.400	0.002274
-10.395	0.002288
-10.390	0.002282
-10.385	0.002289
-10.380	0.002268
-10.375	0.002268
-10.370	0.002240
-10.365	0.002226
-10.360	0.002234
-10.355	0.002256
-10.350	0.002249
-10.345	0.002228
-10.340	0.002254
-10.335	0.002261
-10.330	0.002268
-10.325	0.002254
-10.320	0.002240
-10.315	0.002268
-10.310	0.002226
-10.305	0.002233
-10.300	0.002225
-10.295	0.002239
-10.290	0.002227
-10.285	0.002241
-10.280	0.002240
-10.275	0.002253
-10.270	0.002233
-10.265	0.002267
-10.260	0.002260
-10.255	0.002239
-10.250	0.002219
-10.245	0.002226
-10.240	0.002225
-10.235	0.002239
-10.230	0.002219
-10.225	0.002212
-10.220	0.002220
-10.215	0.002199
-10.210	0.002205
-10.205	0.002218
-10.200	0.002218
-10.195	0.002205
-10.190	0.002232
-10.185	0.002212
-10.180	0.002198
-10.175	0.002211
-10.170	0.002204
-10.165	0.002211
-10.160	0.002190
-10.155	0.002212
-10.150	0.002185
-10.145	0.002198
-10.140	0.002218
-10.135	0.002204
-10.130	0.002205
-10.125	0.002198
-10.120	0.002225
-10.115	0.002191
-10.110	0.002163
-10.105	0.002191
-10.100	0.002163
-10.095	0.002184
-10.090	0.002205
-10.085	0.002178
-10.080	0.002191
-10.075	0.002190
-10.070	0.002177
-10.065	0.002184
-10.060	0.002184
-10.055	0.002163
-10.050	0.002176
-10.045	0.002204
-10.040	0.002196
-10.035	0.002155
-10.030	0.002169
-10.025	0.002176
-10.020	0.002170
-10.015	0.002177
-10.010	0.002197
-10.005	0.002197
-10.000	0.002190
-9.995	0.002204
-9.990	0.002211
-9.985	0.002169
-9.980	0.002156
-9.975	0.002183
-9.970	0.002149
-9.965	0.002155
-9.960	0.002148
-9.955	0.002170
-9.950	0.002178
-9.945	0.002170
-9.940	0.002183
-9.935	0.002176
-9.930	0.002163
-9.925	0.002162
-9.920	0.002169
-9.915	0.002142
-9.910	0.002176
-9.905	0.002169
-9.900	0.002149
-9.895	0.002134
-9.890	0.002143
-9.885	0.002150
-9.880	0.002136
-9.875	0.002162
-9.870	0.002135
-9.865	0.002149
-9.860	0.002163
-9.855	0.002135
-9.850	0.002122
-9.845	0.002128
-9.840	0.002128
-9.835	0.002093
-9.830	0.002135
-9.825	0.002128
-9.820	0.002136
-9.815	0.002122
-9.810	0.002156
-9.805	0.002121
-9.800	0.002135
-9.795	0.002121
-9.790	0.002114
-9.785	0.002100
-9.780	0.002093
-9.775	0.002100
-9.770	0.002113
-9.765	0.002100
-9.760	0.002100
-9.755	0.002080
-9.750	0.002100
-9.745	0.002100
-9.740	0.002072
-9.735	0.002113
-9.730	0.002127
-9.725	0.002114
-9.720	0.002107
-9.715	0.002093
-9.710	0.002107
-9.705	0.002079
-9.700	0.002051
-9.695	0.002092
-9.690	0.002073
-9.685	0.002080
-9.680	0.002087
-9.675	0.002065
-9.670	0.002079
-9.665	0.002072
-9.660	0.002065
-9.655	0.002099
-9.650	0.002071
-9.645	0.002043
-9.640	0.002030
-9.635	0.002026
-9.630	0.002027
-9.625	0.002026
-9.620	0.002025
-9.615	0.002025
-9.610	0.002032
-9.605	0.002018
-9.600	0.002025
-9.595	0.002005
-9.590	0.001977
-9.585	0.001949
-9.580	0.001901
-9.575	0.001846
-9.570	0.001701
-9.565	0.001420
-9.560	0.001008
-9.555	0.000353
-9.550	-0.000564
-9.545	-0.001881
-9.540	-0.003531
-9.535	-0.005735
-9.530	-0.008296
-9.525	-0.011143
-9.520	-0.014356
-9.515	-0.017838
-9.510	-0.021513
-9.505	-0.025723
-9.500	-0.030101
-9.495	-0.034465
-9.490	-0.038703
-9.485	-0.042753
-9.480	-0.046541
-9.475	-0.050017
-9.470	-0.052457
-9.465	-0.052980
-9.460	-0.051290
-9.455	-0.047907
-9.450	-0.043831
-9.445	-0.039856
-9.440	-0.036482
-9.435	-0.033690
-9.430	-0.031464
-9.425	-0.029735
-9.420	-0.028285
-9.415	-0.027084
-9.410	-0.025971
-9.405	-0.025069
-9.400	-0.024348
-9.395	-0.023594
-9.390	-0.022889
-9.385	-0.022226
-9.380	-0.021740
-9.375	-0.021302
-9.370	-0.020833
-9.365	-0.020327
-9.360	-0.019907
-9.355	-0.019474
-9.350	-0.019026
-9.345	-0.018526
-9.340	-0.018103
-9.335	-0.017753
-9.330	-0.017512
-9.325	-0.017271
-9.320	-0.017050
-9.315	-0.016792
-9.310	-0.016523
-9.305	-0.016269
-9.300	-0.016010
-9.295	-0.015734
-9.290	-0.015495
-9.285	-0.015263
-9.280	-0.015028
-9.275	-0.014860
-9.270	-0.014654
-9.265	-0.014433
-9.260	-0.014238
-9.255	-0.014030
-9.250	-0.013871
-9.245	-0.013698
-9.240	-0.013492
-9.235	-0.013335
-9.230	-0.013173
-9.225	-0.013032
-9.220	-0.012874
-9.215	-0.012691
-9.210	-0.012522
-9.205	-0.012369
-9.200	-0.012190
-9.195	-0.012087
-9.190	-0.011954
-9.185	-0.011799
-9.180	-0.011705
-9.175	-0.011570
-9.170	-0.011460
-9.165	-0.011331
-9.160	-0.011240
-9.155	-0.011127
-9.150	-0.011036
-9.145	-0.010917
-9.140	-0.010796
-9.135	-0.010706
-9.130	-0.010588
-9.125	-0.010517
-9.120	-0.010392
-9.115	-0.010302
-9.110	-0.010254
-9.105	-0.010164
-9.100	-0.010076
-9.095	-0.009952
-9.090	-0.009886
-9.085	-0.009788
-9.080	-0.009699
-9.075	-0.009610
-9.070	-0.009542
-9.065	-0.009438
-9.060	-0.009389
-9.055	-0.009326
-9.050	-0.009243
-9.045	-0.009166
-9.040	-0.009105
-9.035	-0.009044
-9.030	-0.008977
-9.025	-0.008913
-9.020	-0.008806
-9.015	-0.008765
-9.010	-0.008697
-9.005	-0.008642
-9.000	-0.008593
-8.995	-0.008516
-8.990	-0.008440
-8.985	-0.008398
-8.980	-0.008351
-8.975	-0.008240
-8.970	-0.008276
-8.965	-0.008201
-8.960	-0.008117
-8.955	-0.008081
-8.950	-0.008013
-8.945	-0.007945
-8.940	-0.007892
-8.935	-0.007837
-8.930	-0.007782
-8.925	-0.007733
-8.920	-0.007725
-8.915	-0.007663
-8.910	-0.007644
-8.905	-0.007575
-8.900	-0.007543
-8.895	-0.007502
-8.890	-0.007431
-8.885	-0.007394
-8.880	-0.007372
-8.875	-0.007351
-8.870	-0.007254
-8.865	-0.007288
-8.860	-0.007239
-8.855	-0.007203
-8.850	-0.007188
-8.845	-0.007126
-8.840	-0.007070
-8.835	-0.007058
-8.830	-0.006997
-8.825	-0.006954
-8.820	-0.006904
-8.815	-0.006891
-8.810	-0.006843
-8.805	-0.006795
-8.800	-0.006733
-8.795	-0.006726
-8.790	-0.006684
-8.785	-0.006608
-8.780	-0.006588
-8.775	-0.006567
-8.770	-0.006504
-8.765	-0.006520
-8.760	-0.006458
-8.755	-0.006395
-8.750	-0.006366
-8.745	-0.006338
-8.740	-0.006304
-8.735	-0.006290
-8.730	-0.006263
-8.725	-0.006242
-8.720	-0.006179
-8.715	-0.006151
-8.710	-0.006131
-8.705	-0.006110
-8.700	-0.006077
-8.695	-0.006049
-8.690	-0.005973
-8.685	-0.005938
-8.680	-0.005951
-8.675	-0.005882
-8.670	-0.005876
-8.665	-0.005863
-8.660	-0.005808
-8.655	-0.005773
-8.650	-0.005793
-8.645	-0.005725
-8.640	-0.005725
-8.635	-0.005677
-8.630	-0.005650
-8.625	-0.005615
-8.620	-0.005586
-8.615	-0.005544
-8.610	-0.005544
-8.605	-0.005489
-8.600	-0.005475
-8.595	-0.005434
-8.590	-0.005447
-8.585	-0.005399
-8.580	-0.005398
-8.575	-0.005364
-8.570	-0.005372
-8.565	-0.005325
-8.560	-0.005296
-8.555	-0.005267
-8.550	-0.005233
-8.545	-0.005199
-8.540	-0.005192
-8.535	-0.005157
-8.530	-0.005151
-8.525	-0.005129
-8.520	-0.005095
-8.515	-0.005102
-8.510	-0.005034
-8.505	-0.005006
-8.500	-0.005021
-8.495	-0.004993
-8.490	-0.004964
-8.485	-0.004929
-8.480	-0.004922
-8.475	-0.004901
-8.470	-0.004880
-8.465	-0.004860
-8.460	-0.004804
-8.455	-0.004845
-8.450	-0.004811
-8.445	-0.004811
-8.440	-0.004791
-8.435	-0.004750
-8.430	-0.004751
-8.425	-0.004681
-8.420	-0.004701
-8.415	-0.004674
-8.410	-0.004619
-8.405	-0.004647
-8.400	-0.004627
-8.395	-0.004605
-8.390	-0.004557
-8.385	-0.004592
-8.380	-0.004592
-8.375	-0.004557
-8.370	-0.004544
-8.365	-0.004497
-8.360	-0.004517
-8.355	-0.004509
-8.350	-0.004503
-8.345	-0.004475
-8.340	-0.004428
-8.335	-0.004421
-8.330	-0.004427
-8.325	-0.004399
-8.320	-0.004399
-8.315	-0.004379
-8.310	-0.004330
-8.305	-0.004365
-8.300	-0.004311
-8.295	-0.004290
-8.290	-0.004276
-8.285	-0.004262
-8.280	-0.004242
-8.275	-0.004228
-8.270	-0.004215
-8.265	-0.004208
-8.260	-0.004194
-8.255	-0.004173
-8.250	-0.004146
-8.245	-0.004180
-8.240	-0.004125
-8.235	-0.004126
-8.230	-0.004099
-8.225	-0.004051
-8.220	-0.004024
-8.215	-0.004025
-8.210	-0.004019
-8.205	-0.003999
-8.200	-0.003972
-8.195	-0.003959
-8.190	-0.003945
-8.185	-0.003943
-8.180	-0.003962
-8.175	-0.003934
-8.170	-0.003920
-8.165	-0.003879
-8.160	-0.003900
-8.155	-0.003892
-8.150	-0.003864
-8.145	-0.003837
-8.140	-0.003837
-8.135	-0.003816
-8.130	-0.003816
-8.125	-0.003803
-8.120	-0.003782
-8.115	-0.003775
-8.110	-0.003775
-8.105	-0.003761
-8.100	-0.003721
-8.095	-0.003734
-8.090	-0.003741
-8.085	-0.003713
-8.080	-0.003686
-8.075	-0.003665
-8.070	-0.003644
-8.065	-0.003672
-8.060	-0.003624
-8.055	-0.003637
-8.050	-0.003617
-8.045	-0.003596
-8.040	-0.003596
-8.035	-0.003583
-8.030	-0.003597
-8.025	-0.003555
-8.020	-0.003507
-8.015	-0.003521
-8.010	-0.003514
-8.005	-0.003473
-8.000	-0.003494
-7.995	-0.003480
-7.990	-0.003459
-7.985	-0.003466
-7.980	-0.003432
-7.975	-0.003466
-7.970	-0.003432
-7.965	-0.003426
-7.960	-0.003398
-7.955	-0.003391
-7.950	-0.003384
-7.945	-0.003364
-7.940	-0.003365
-7.935	-0.003372
-7.930	-0.003365
-7.925	-0.003351
-7.920	-0.003323
-7.915	-0.003358
-7.910	-0.003344
-7.905	-0.003309
-7.900	-0.003317
-7.895	-0.003282
-7.890	-0.003275
-7.885	-0.003302
-7.880	-0.003261
-7.875	-0.003240
-7.870	-0.003240
-7.865	-0.003240
-7.860	-0.003219
-7.855	-0.003199
-7.850	-0.003226
-7.845	-0.003219
-7.840	-0.003171
-7.835	-0.003199
-7.830	-0.003186
-7.825	-0.003144
-7.820	-0.003109
-7.815	-0.003150
-7.810	-0.003109
-7.805	-0.003116
-7.800	-0.003068
-7.795	-0.003081
-7.790	-0.003075
-7.785	-0.003081
-7.780	-0.003095
-7.775	-0.003075
-7.770	-0.003068
-7.765	-0.003068
-7.760	-0.003061
-7.755	-0.003040
-7.750	-0.003054
-7.745	-0.003027
-7.740	-0.003027
-7.735	-0.003020
-7.730	-0.002999
-7.725	-0.003020
-7.720	-0.003041
-7.715	-0.002993
-7.710	-0.002979
-7.705	-0.002979
-7.700	-0.002980
-7.695	-0.002973
-7.690	-0.002945
-7.685	-0.002951
-7.680	-0.002944
-7.675	-0.002903
-7.670	-0.002917
-7.665	-0.002910
-7.660	-0.002944
-7.655	-0.002903
-7.650	-0.002910
-7.645	-0.002869
-7.640	-0.002890
-7.635	-0.002897
-7.630	-0.002856
-7.625	-0.002856
-7.620	-0.002849
-7.615	-0.002828
-7.610	-0.002815
-7.605	-0.002808
-7.600	-0.002815
-7.595	-0.002808
-7.590	-0.002842
-7.585	-0.002801
-7.580	-0.002801
-7.575	-0.002801
-7.570	-0.002801
-7.565	-0.002815
-7.560	-0.002760
-7.555	-0.002780
-7.550	-0.002746
-7.545	-0.002760
-7.540	-0.002725
-7.535	-0.002718
-7.530	-0.002725
-7.525	-0.002718
-7.520	-0.002725
-7.515	-0.002677
-7.510	-0.002691
-7.505	-0.002712
-7.500	-0.002692
-7.495	-0.002685
-7.490	-0.002670
-7.485	-0.002629
-7.480	-0.002664
-7.475	-0.002664
-7.470	-0.002650
-7.465	-0.002622
-7.460	-0.002609
-7.455	-0.002643
-7.450	-0.002616
-7.445	-0.002608
-7.440	-0.002622
-7.435	-0.002609
-7.430	-0.002575
-7.425	-0.002616
-7.420	-0.002609
-7.415	-0.002560
-7.410	-0.002560
-7.405	-0.002581
-7.400	-0.002581
-7.395	-0.002553
-7.390	-0.002532
-7.385	-0.002539
-7.380	-0.002539
-7.375	-0.002553
-7.370	-0.002512
-7.365	-0.002526
-7.360	-0.002505
-7.355	-0.002505
-7.350	-0.002491
-7.345	-0.002477
-7.340	-0.002429
-7.335	-0.002505
-7.330	-0.002471
-7.325	-0.002498
-7.320	-0.002470
-7.315	-0.002436
-7.310	-0.002464
-7.305	-0.002415
-7.300	-0.002381
-7.295	-0.002409
-7.290	-0.002374
-7.285	-0.002415
-7.280	-0.002402
-7.275	-0.002353
-7.270	-0.002388
-7.265	-0.002353
-7.260	-0.002326
-7.255	-0.002346
-7.250	-0.002347
-7.245	-0.002367
-7.240	-0.002319
-7.235	-0.002313
-7.230	-0.002333
-7.225	-0.002326
-7.220	-0.002312
-7.215	-0.002319
-7.210	-0.002299
-7.205	-0.002326
-7.200	-0.002292
-7.195	-0.002313
-7.190	-0.002306
-7.185	-0.002299
-7.180	-0.002326
-7.175	-0.002292
-7.170	-0.002299
-7.165	-0.002299
-7.160	-0.002279
-7.155	-0.002271
-7.150	-0.002271
-7.145	-0.002244
-7.140	-0.002244
-7.135	-0.002258
-7.130	-0.002251
-7.125	-0.002244
-7.120	-0.002258
-7.115	-0.002237
-7.110	-0.002251
-7.105	-0.002217
-7.100	-0.002251
-7.095	-0.002224
-7.090	-0.002203
-7.085	-0.002182
-7.080	-0.002182
-7.075	-0.002210
-7.070	-0.002176
-7.065	-0.002162
-7.060	-0.002176
-7.055	-0.002162
-7.050	-0.002196
-7.045	-0.002169
-7.040	-0.002162
-7.035	-0.002135
-7.030	-0.002100
-7.025	-0.002128
-7.020	-0.002134
-7.015	-0.002141
-7.010	-0.002121
-7.005	-0.002121
-7.000	-0.002100
-6.995	-0.002073
-6.990	-0.002114
-6.985	-0.002107
-6.980	-0.002100
-6.975	-0.002093
-6.970	-0.002073
-6.965	-0.002087
-6.960	-0.002087
-6.955	-0.002066
-6.950	-0.002107
-6.945	-0.002059
-6.940	-0.002039
-6.935	-0.002053
-6.930	-0.002059
-6.925	-0.002039
-6.920	-0.002046
-6.915	-0.002066
-6.910	-0.002046
-6.905	-0.002032
-6.900	-0.002060
-6.895	-0.002060
-6.890	-0.002046
-6.885	-0.002032
-6.880	-0.002039
-6.875	-0.002046
-6.870	-0.002039
-6.865	-0.002046
-6.860	-0.002039
-6.855	-0.002060
-6.850	-0.002115
-6.845	-0.002074
-6.840	-0.002074
-6.835	-0.002081
-6.830	-0.002095
-6.825	-0.002068
-6.820	-0.002123
-6.815	-0.002102
-6.810	-0.002082
-6.805	-0.002082
-6.800	-0.002102
-6.795	-0.002082
-6.790	-0.002082
-6.785	-0.002089
-6.780	-0.002061
-6.775	-0.002041
-6.770	-0.002069
-6.765	-0.002048
-6.760	-0.002027
-6.755	-0.002034
-6.750	-0.002048
-6.745	-0.002041
-6.740	-0.002048
-6.735	-0.002034
-6.730	-0.002062
-6.725	-0.002034
-6.720	-0.002034
-6.715	-0.002027
-6.710	-0.002014
-6.705	-0.002007
-6.700	-0.001966
-6.695	-0.001993
-6.690	-0.001965
-6.685	-0.001958
-6.680	-0.001952
-6.675	-0.001958
-6.670	-0.001931
-6.665	-0.001931
-6.660	-0.001931
-6.655	-0.001945
-6.650	-0.001883
-6.645	-0.001910
-6.640	-0.001890
-6.635	-0.001911
-6.630	-0.001876
-6.625	-0.001904
-6.620	-0.001911
-6.615	-0.001890
-6.610	-0.001890
-6.605	-0.001890
-6.600	-0.001883
-6.595	-0.001890
-6.590	-0.001918
-6.585	-0.001904
-6.580	-0.001904
-6.575	-0.001898
-6.570	-0.001884
-6.565	-0.001905
-6.560	-0.001933
-6.555	-0.001913
-6.550	-0.001857
-6.545	-0.001899
-6.540	-0.001872
-6.535	-0.001872
-6.530	-0.001845
-6.525	-0.001887
-6.520	-0.001853
-6.515	-0.001867
-6.510	-0.001826
-6.505	-0.001846
-6.500	-0.001860
-6.495	-0.001874
-6.490	-0.001846
-6.485	-0.001866
-6.480	-0.001817
-6.475	-0.001831
-6.470	-0.001831
-6.465	-0.001816
-6.460	-0.001823
-6.455	-0.001795
-6.450	-0.001822
-6.445	-0.001843
-6.440	-0.001843
-6.435	-0.001801
-6.430	-0.001822
-6.425	-0.001801
-6.420	-0.001760
-6.415	-0.001808
-6.410	-0.001774
-6.405	-0.001801
-6.400	-0.001794
-6.395	-0.001781
-6.390	-0.001808
-6.385	-0.001794
-6.380	-0.001767
-6.375	-0.001794
-6.370	-0.001788
-6.365	-0.001808
-6.360	-0.001767
-6.355	-0.001767
-6.350	-0.001739
-6.345	-0.001760
-6.340	-0.001753
-6.335	-0.001760
-6.330	-0.001753
-6.325	-0.001753
-6.320	-0.001781
-6.315	-0.001774
-6.310	-0.001781
-6.305	-0.001726
-6.300	-0.001754
-6.295	-0.001740
-6.290	-0.001733
-6.285	-0.001747
-6.280	-0.001712
-6.275	-0.001699
-6.270	-0.001712
-6.265	-0.001733
-6.260	-0.001699
-6.255	-0.001706
-6.250	-0.001657
-6.245	-0.001685
-6.240	-0.001699
-6.235	-0.001692
-6.230	-0.001671
-6.225	-0.001678
-6.220	-0.001678
-6.215	-0.001658
-6.210	-0.001671
-6.205	-0.001671
-6.200	-0.001658
-6.195	-0.001658
-6.190	-0.001651
-6.185	-0.001665
-6.180	-0.001665
-6.175	-0.001672
-6.170	-0.001672
-6.165	-0.001665
-6.160	-0.001637
-6.155	-0.001644
-6.150	-0.001651
-6.145	-0.001617
-6.140	-0.001651
-6.135	-0.001617
-6.130	-0.001610
-6.125	-0.001637
-6.120	-0.001631
-6.115	-0.001596
-6.110	-0.001644
-6.105	-0.001631
-6.100	-0.001658
-6.095	-0.001603
-6.090	-0.001596
-6.085	-0.001603
-6.080	-0.001583
-6.075	-0.001576
-6.070	-0.001576
-6.065	-0.001589
-6.060	-0.001589
-6.055	-0.001603
-6.050	-0.001596
-6.045	-0.001562
-6.040	-0.001596
-6.035	-0.001576
-6.030	-0.001569
-6.025	-0.001590
-6.020	-0.001535
-6.015	-0.001535
-6.010	-0.001535
-6.005	-0.001535
-6.000	-0.001521
-5.995	-0.001521
-5.990	-0.001521
-5.985	-0.001493
-5.980	-0.001521
-5.975	-0.001507
-5.970	-0.001480
-5.965	-0.001494
-5.960	-0.001466
-5.955	-0.001466
-5.950	-0.001445
-5.945	-0.001459
-5.940	-0.001439
-5.935	-0.001432
-5.930	-0.001439
-5.925	-0.001459
-5.920	-0.001418
-5.915	-0.001425
-5.910	-0.001418
-5.905	-0.001391
-5.900	-0.001432
-5.895	-0.001391
-5.890	-0.001404
-5.885	-0.001363
-5.880	-0.001391
-5.875	-0.001356
-5.870	-0.001342
-5.865	-0.001356
-5.860	-0.001343
-5.855	-0.001356
-5.850	-0.001343
-5.845	-0.001377
-5.840	-0.001356
-5.835	-0.001322
-5.830	-0.001377
-5.825	-0.001336
-5.820	-0.001343
-5.815	-0.001377
-5.810	-0.001357
-5.805	-0.001398
-5.800	-0.001446
-5.795	-0.001481
-5.790	-0.001529
-5.785	-0.001577
-5.780	-0.001591
-5.775	-0.001653
-5.770	-0.001743
-5.765	-0.001826
-5.760	-0.001895
-5.755	-0.001998
-5.750	-0.002102
-5.745	-0.002205
-5.740	-0.002295
-5.735	-0.002371
-5.730	-0.002447
-5.725	-0.002550
-5.720	-0.002591
-5.715	-0.002605
-5.710	-0.002646
-5.705	-0.002633
-5.700	-0.002585
-5.695	-0.002515
-5.690	-0.002432
-5.685	-0.002308
-5.680	-0.002205
-5.675	-0.002039
-5.670	-0.001929
-5.665	-0.001785
-5.660	-0.001654
-5.655	-0.001516
-5.650	-0.001426
-5.645	-0.001330
-5.640	-0.001254
-5.635	-0.001220
-5.630	-0.001158
-5.625	-0.001144
-5.620	-0.001110
-5.615	-0.001075
-5.610	-0.001075
-5.605	-0.001075
-5.600	-0.001082
-5.595	-0.001089
-5.590	-0.001110
-5.585	-0.001103
-5.580	-0.001124
-5.575	-0.001131
-5.570	-0.001144
-5.565	-0.001130
-5.560	-0.001158
-5.555	-0.001124
-5.550	-0.001131
-5.545	-0.001124
-5.540	-0.001117
-5.535	-0.001110
-5.530	-0.001124
-5.525	-0.001138
-5.520	-0.001131
-5.515	-0.001138
-5.510	-0.001138
-5.505	-0.001151
-5.500	-0.001145
-5.495	-0.001138
-5.490	-0.001124
-5.485	-0.001117
-5.480	-0.001131
-5.475	-0.001145
-5.470	-0.001117
-5.465	-0.001152
-5.460	-0.001055
-5.455	-0.000883
-5.450	-0.000461
-5.445	0.000146
-5.440	0.001127
-5.435	0.002407
-5.430	0.004373
-5.425	0.006804
-5.420	0.009939
-5.415	0.013649
-5.410	0.017389
-5.405	0.022016
-5.400	0.026937
-5.395	0.031867
-5.390	0.037577
-5.385	0.043992
-5.380	0.049827
-5.375	0.054889
-5.370	0.060170
-5.365	0.066039
-5.360	0.070855
-5.355	0.072835
-5.350	0.071817
-5.345	0.068749
-5.340	0.064703
-5.335	0.060621
-5.330	0.056900
-5.325	0.053565
-5.320	0.050762
-5.315	0.048400
-5.310	0.046347
-5.305	0.044515
-5.300	0.042863
-5.295	0.041399
-5.290	0.040086
-5.285	0.038880
-5.280	0.037786
-5.275	0.036774
-5.270	0.035879
-5.265	0.035055
-5.260	0.034363
-5.255	0.033660
-5.250	0.033013
-5.245	0.032369
-5.240	0.031753
-5.235	0.031152
-5.230	0.030533
-5.225	0.029989
-5.220	0.029517
-5.215	0.029041
-5.210	0.028552
-5.205	0.028136
-5.200	0.027703
-5.195	0.027270
-5.190	0.026828
-5.185	0.026368
-5.180	0.025911
-5.175	0.025458
-5.170	0.025072
-5.165	0.024745
-5.160	0.024428
-5.155	0.024149
-5.150	0.023802
-5.145	0.023510
-5.140	0.023231
-5.135	0.022972
-5.130	0.022713
-5.125	0.022528
-5.120	0.022299
-5.115	0.022120
-5.110	0.021888
-5.105	0.021633
-5.100	0.021472
-5.095	0.021251
-5.090	0.021057
-5.085	0.020823
-5.080	0.020648
-5.075	0.020485
-5.070	0.020335
-5.065	0.020256
-5.060	0.020156
-5.055	0.020014
-5.050	0.019794
-5.045	0.019579
-5.040	0.019314
-5.035	0.019096
-5.030	0.018872
-5.025	0.018657
-5.020	0.018541
-5.015	0.018437
-5.010	0.018287
-5.005	0.018177
-5.000	0.018065
-4.995	0.017935
-4.990	0.017835
-4.985	0.017656
-4.980	0.017456
-4.975	0.017283
-4.970	0.017086
-4.965	0.016936
-4.960	0.016816
-4.955	0.016681
-4.950	0.016560
-4.945	0.016443
-4.940	0.016285
-4.935	0.016200
-4.930	0.016097
-4.925	0.016019
-4.920	0.015931
-4.915	0.015834
-4.910	0.015758
-4.905	0.015706
-4.900	0.015639
-4.895	0.015585
-4.890	0.015513
-4.885	0.015453
-4.880	0.015361
-4.875	0.015341
-4.870	0.015196
-4.865	0.015105
-4.860	0.015062
-4.855	0.015005
-4.850	0.015006
-4.845	0.014969
-4.840	0.014863
-4.835	0.014730
-4.830	0.014652
-4.825	0.014528
-4.820	0.014461
-4.815	0.014302
-4.810	0.014173
-4.805	0.014110
-4.800	0.014021
-4.795	0.013864
-4.790	0.013816
-4.785	0.013750
-4.780	0.013722
-4.775	0.013715
-4.770	0.013658
-4.765	0.013562
-4.760	0.013441
-4.755	0.013313
-4.750	0.013231
-4.745	0.013174
-4.740	0.013143
-4.735	0.013060
-4.730	0.013020
-4.725	0.012957
-4.720	0.012922
-4.715	0.012880
-4.710	0.012908
-4.705	0.012891
-4.700	0.012866
-4.695	0.012793
-4.690	0.012713
-4.685	0.012666
-4.680	0.012611
-4.675	0.012543
-4.670	0.012500
-4.665	0.012344
-4.660	0.012283
-4.655	0.012157
-4.650	0.012025
-4.645	0.011907
-4.640	0.011798
-4.635	0.011707
-4.630	0.011651
-4.625	0.011584
-4.620	0.011558
-4.615	0.011578
-4.610	0.011565
-4.605	0.011549
-4.600	0.011589
-4.595	0.011597
-4.590	0.011586
-4.585	0.011523
-4.580	0.011427
-4.575	0.011325
-4.570	0.011295
-4.565	0.011301
-4.560	0.011300
-4.555	0.011292
-4.550	0.011276
-4.545	0.011227
-4.540	0.011173
-4.535	0.011136
-4.530	0.011124
-4.525	0.011068
-4.520	0.010999
-4.515	0.010881
-4.510	0.010760
-4.505	0.010654
-4.500	0.010554
-4.495	0.010492
-4.490	0.010502
-4.485	0.010501
-4.480	0.010474
-4.475	0.010467
-4.470	0.010398
-4.465	0.010335
-4.460	0.010341
-4.455	0.010236
-4.450	0.010223
-4.445	0.010222
-4.440	0.010170
-4.435	0.010109
-4.430	0.010066
-4.425	0.009965
-4.420	0.009905
-4.415	0.009892
-4.410	0.009840
-4.405	0.009859
-4.400	0.009797
-4.395	0.009735
-4.390	0.009700
-4.385	0.009651
-4.380	0.009690
-4.375	0.009710
-4.370	0.009722
-4.365	0.009758
-4.360	0.009747
-4.355	0.009656
-4.350	0.009522
-4.345	0.009453
-4.340	0.009433
-4.335	0.009424
-4.330	0.009395
-4.325	0.009395
-4.320	0.009363
-4.315	0.009343
-4.310	0.009295
-4.305	0.009223
-4.300	0.009238
-4.295	0.009216
-4.290	0.009152
-4.285	0.009131
-4.280	0.009037
-4.275	0.008961
-4.270	0.008920
-4.265	0.008877
-4.260	0.008864
-4.255	0.008789
-4.250	0.008803
-4.245	0.008809
-4.240	0.008839
-4.235	0.008834
-4.230	0.008797
-4.225	0.008781
-4.220	0.008784
-4.215	0.008840
-4.210	0.008889
-4.205	0.008930
-4.200	0.008860
-4.195	0.008776
-4.190	0.008648
-4.185	0.008565
-4.180	0.008510
-4.175	0.008380
-4.170	0.008261
-4.165	0.008157
-4.160	0.007963
-4.155	0.007700
-4.150	0.007420
-4.145	0.006873
-4.140	0.006160
-4.135	0.005122
-4.130	0.003658
-4.125	0.001666
-4.120	-0.000802
-4.115	-0.003830
-4.110	-0.007475
-4.105	-0.011592
-4.100	-0.016104
-4.095	-0.021148
-4.090	-0.026607
-4.085	-0.032452
-4.080	-0.038588
-4.075	-0.044696
-4.070	-0.050778
-4.065	-0.056783
-4.060	-0.062115
-4.055	-0.066470
-4.050	-0.069405
-4.045	-0.070752
-4.040	-0.070204
-4.035	-0.067963
-4.030	-0.064431
-4.025	-0.060182
-4.020	-0.056010
-4.015	-0.052158
-4.010	-0.048859
-4.005	-0.046095
-4.000	-0.043712
-3.995	-0.041711
-3.990	-0.039968
-3.985	-0.038342
-3.980	-0.036923
-3.975	-0.035675
-3.970	-0.034472
-3.965	-0.033439
-3.960	-0.032479
-3.955	-0.031610
-3.950	-0.030817
-3.945	-0.029991
-3.940	-0.029347
-3.935	-0.028685
-3.930	-0.028131
-3.925	-0.027599
-3.920	-0.027056
-3.915	-0.026566
-3.910	-0.026078
-3.905	-0.025643
-3.900	-0.025244
-3.895	-0.024797
-3.890	-0.024348
-3.885	-0.023926
-3.880	-0.023512
-3.875	-0.023107
-3.870	-0.022739
-3.865	-0.022290
-3.860	-0.021979
-3.855	-0.021648
-3.850	-0.021258
-3.845	-0.020915
-3.840	-0.020583
-3.835	-0.020263
-3.830	-0.019995
-3.825	-0.019716
-3.820	-0.019399
-3.815	-0.019121
-3.810	-0.018828
-3.805	-0.018571
-3.800	-0.018321
-3.795	-0.018098
-3.790	-0.017839
-3.785	-0.017639
-3.780	-0.017447
-3.775	-0.017165
-3.770	-0.016972
-3.765	-0.016742
-3.760	-0.016556
-3.755	-0.016348
-3.750	-0.016121
-3.745	-0.015948
-3.740	-0.015751
-3.735	-0.015555
-3.730	-0.015384
-3.725	-0.015189
-3.720	-0.015030
-3.715	-0.014885
-3.710	-0.014700
-3.705	-0.014588
-3.700	-0.014439
-3.695	-0.014309
-3.690	-0.014141
-3.685	-0.014023
-3.680	-0.013898
-3.675	-0.013767
-3.670	-0.013608
-3.665	-0.013456
-3.660	-0.013334
-3.655	-0.013204
-3.650	-0.013076
-3.645	-0.012957
-3.640	-0.012844
-3.635	-0.012764
-3.630	-0.012648
-3.625	-0.012549
-3.620	-0.012426
-3.615	-0.012269
-3.610	-0.012161
-3.605	-0.011955
-3.600	-0.011796
-3.595	-0.011603
-3.590	-0.011470
-3.585	-0.011262
-3.580	-0.011035
-3.575	-0.010790
-3.570	-0.010507
-3.565	-0.010175
-3.560	-0.009752
-3.555	-0.009390
-3.550	-0.008968
-3.545	-0.008549
-3.540	-0.008075
-3.535	-0.007573
-3.530	-0.007039
-3.525	-0.006473
-3.520	-0.005826
-3.515	-0.005173
-3.510	-0.004603
-3.505	-0.003916
-3.500	-0.003325
-3.495	-0.002719
-3.490	-0.002147
-3.485	-0.001590
-3.480	-0.001081
-3.475	-0.000640
-3.470	-0.000283
-3.465	0.000040
-3.460	0.000301
-3.455	0.000487
-3.450	0.000624
-3.445	0.000679
-3.440	0.000728
-3.435	0.000742
-3.430	0.000700
-3.425	0.000734
-3.420	0.000809
-3.415	0.000946
-3.410	0.001117
-3.405	0.001454
-3.400	0.001842
-3.395	0.002381
-3.390	0.002903
-3.385	0.003593
-3.380	0.004350
-3.375	0.005208
-3.370	0.006169
-3.365	0.007252
-3.360	0.008256
-3.355	0.009273
-3.350	0.010249
-3.345	0.011169
-3.340	0.011900
-3.335	0.012243
-3.330	0.012130
-3.325	0.011670
-3.320	0.011113
-3.315	0.010584
-3.310	0.010130
-3.305	0.009803
-3.300	0.009529
-3.295	0.009416
-3.290	0.009236
-3.285	0.009113
-3.280	0.009003
-3.275	0.008975
-3.270	0.008909
-3.265	0.008894
-3.260	0.008816
-3.255	0.008800
-3.250	0.008793
-3.245	0.008834
-3.240	0.008859
-3.235	0.008853
-3.230	0.008928
-3.225	0.008994
-3.220	0.009064
-3.215	0.009141
-3.210	0.009185
-3.205	0.009268
-3.200	0.009355
-3.195	0.009415
-3.190	0.009497
-3.185	0.009668
-3.180	0.009901
-3.175	0.010041
-3.170	0.010204
-3.165	0.010341
-3.160	0.010450
-3.155	0.010586
-3.150	0.010581
-3.145	0.010601
-3.140	0.010705
-3.135	0.010793
-3.130	0.010863
-3.125	0.010848
-3.120	0.010901
-3.115	0.010971
-3.110	0.011069
-3.105	0.011103
-3.100	0.011177
-3.095	0.011224
-3.090	0.011290
-3.085	0.011358
-3.080	0.011503
-3.075	0.011550
-3.070	0.011571
-3.065	0.011640
-3.060	0.011792
-3.055	0.011902
-3.050	0.011909
-3.045	0.011969
-3.040	0.012034
-3.035	0.012049
-3.030	0.012144
-3.025	0.012228
-3.020	0.012352
-3.015	0.012443
-3.010	0.012493
-3.005	0.012548
-3.000	0.012659
-2.995	0.012786
-2.990	0.012845
-2.985	0.012902
-2.980	0.013038
-2.975	0.013186
-2.970	0.013284
-2.965	0.013373
-2.960	0.013374
-2.955	0.013459
-2.950	0.013515
-2.945	0.013547
-2.940	0.013581
-2.935	0.013726
-2.930	0.013816
-2.925	0.013944
-2.920	0.014078
-2.915	0.014215
-2.910	0.014278
-2.905	0.014326
-2.900	0.014381
-2.895	0.014406
-2.890	0.014466
-2.885	0.014558
-2.880	0.014621
-2.875	0.014717
-2.870	0.014837
-2.865	0.015017
-2.860	0.015112
-2.855	0.015241
-2.850	0.015408
-2.845	0.015473
-2.840	0.015522
-2.835	0.015554
-2.830	0.015636
-2.825	0.015688
-2.820	0.015741
-2.815	0.015739
-2.810	0.015678
-2.805	0.015626
-2.800	0.015591
-2.795	0.015599
-2.790	0.015562
-2.785	0.015473
-2.780	0.015427
-2.775	0.015436
-2.770	0.015485
-2.765	0.015545
-2.760	0.015690
-2.755	0.015865
-2.750	0.016057
-2.745	0.016158
-2.740	0.016202
-2.735	0.016236
-2.730	0.016312
-2.725	0.016382
-2.720	0.016466
-2.715	0.016614
-2.710	0.016852
-2.705	0.017045
-2.700	0.017151
-2.695	0.017212
-2.690	0.017207
-2.685	0.017224
-2.680	0.017280
-2.675	0.017285
-2.670	0.017320
-2.665	0.017349
-2.660	0.017403
-2.655	0.017561
-2.650	0.017646
-2.645	0.017768
-2.640	0.017876
-2.635	0.017978
-2.630	0.018106
-2.625	0.018092
-2.620	0.018056
-2.615	0.018047
-2.610	0.018014
-2.605	0.018043
-2.600	0.018131
-2.595	0.018252
-2.590	0.018298
-2.585	0.018353
-2.580	0.018359
-2.575	0.018381
-2.570	0.018305
-2.565	0.018280
-2.560	0.018239
-2.555	0.018314
-2.550	0.018295
-2.545	0.018354
-2.540	0.018467
-2.535	0.018504
-2.530	0.018508
-2.525	0.018498
-2.520	0.018464
-2.515	0.018428
-2.510	0.018451
-2.505	0.018453
-2.500	0.018446
-2.495	0.018436
-2.490	0.018449
-2.485	0.018535
-2.480	0.018636
-2.475	0.018727
-2.470	0.018804
-2.465	0.018903
-2.460	0.018971
-2.455	0.019058
-2.450	0.019071
-2.445	0.019039
-2.440	0.019026
-2.435	0.019090
-2.430	0.019179
-2.425	0.019220
-2.420	0.019241
-2.415	0.019221
-2.410	0.019229
-2.405	0.019205
-2.400	0.019226
-2.395	0.019275
-2.390	0.019283
-2.385	0.019249
-2.380	0.019284
-2.375	0.019331
-2.370	0.019386
-2.365	0.019446
-2.360	0.019509
-2.355	0.019641
-2.350	0.019759
-2.345	0.019800
-2.340	0.019919
-2.335	0.019976
-2.330	0.020091
-2.325	0.020124
-2.320	0.020200
-2.315	0.020186
-2.310	0.020219
-2.305	0.020139
-2.300	0.020113
-2.295	0.020023
-2.290	0.020006
-2.285	0.019929
-2.280	0.019820
-2.275	0.019736
-2.270	0.019662
-2.265	0.019557
-2.260	0.019517
-2.255	0.019418
-2.250	0.019325
-2.245	0.019323
-2.240	0.019356
-2.235	0.019371
-2.230	0.019329
-2.225	0.019365
-2.220	0.019356
-2.215	0.019425
-2.210	0.019462
-2.205	0.019628
-2.200	0.019733
-2.195	0.019837
-2.190	0.019891
-2.185	0.019968
-2.180	0.019953
-2.175	0.019943
-2.170	0.019903
-2.165	0.019918
-2.160	0.019903
-2.155	0.019913
-2.150	0.019894
-2.145	0.019878
-2.140	0.019764
-2.135	0.019679
-2.130	0.019609
-2.125	0.019526
-2.120	0.019518
-2.115	0.019514
-2.110	0.019521
-2.105	0.019556
-2.100	0.019620
-2.095	0.019686
-2.090	0.019699
-2.085	0.019798
-2.080	0.019833
-2.075	0.019896
-2.070	0.019878
-2.065	0.019949
-2.060	0.020065
-2.055	0.020144
-2.050	0.020121
-2.045	0.020157
-2.040	0.020191
-2.035	0.020186
-2.030	0.020139
-2.025	0.020067
-2.020	0.020019
-2.015	0.019990
-2.010	0.020031
-2.005	0.020029
-2.000	0.020064
-1.995	0.020054
-1.990	0.020068
-1.985	0.020081
-1.980	0.020115
-1.975	0.020137
-1.970	0.020103
-1.965	0.020043
-1.960	0.019965
-1.955	0.019809
-1.950	0.019671
-1.945	0.019506
-1.940	0.019446
-1.935	0.019414
-1.930	0.019379
-1.925	0.019344
-1.920	0.019302
-1.915	0.019244
-1.910	0.019251
-1.905	0.019257
-1.900	0.019308
-1.895	0.019316
-1.890	0.019352
-1.885	0.019298
-1.880	0.019306
-1.875	0.019314
-1.870	0.019286
-1.865	0.019303
-1.860	0.019221
-1.855	0.019239
-1.850	0.019235
-1.845	0.019239
-1.840	0.019267
-1.835	0.019241
-1.830	0.019289
-1.825	0.019287
-1.820	0.019277
-1.815	0.019278
-1.810	0.019177
-1.805	0.019142
-1.800	0.019082
-1.795	0.019091
-1.790	0.019060
-1.785	0.019057
-1.780	0.019062
-1.775	0.018997
-1.770	0.018990
-1.765	0.018939
-1.760	0.018900
-1.755	0.018847
-1.750	0.018821
-1.745	0.018724
-1.740	0.018612
-1.735	0.018582
-1.730	0.018562
-1.725	0.018503
-1.720	0.018508
-1.715	0.018501
-1.710	0.018455
-1.705	0.018383
-1.700	0.018371
-1.695	0.018292
-1.690	0.018281
-1.685	0.018185
-1.680	0.018096
-1.675	0.018056
-1.670	0.018074
-1.665	0.018015
-1.660	0.018032
-1.655	0.018102
-1.650	0.018222
-1.645	0.018359
-1.640	0.018478
-1.635	0.018547
-1.630	0.018577
-1.625	0.018526
-1.620	0.018540
-1.615	0.018545
-1.610	0.018453
-1.605	0.018439
-1.600	0.018361
-1.595	0.018304
-1.590	0.018248
-1.585	0.018184
-1.580	0.018074
-1.575	0.018025
-1.570	0.017946
-1.565	0.017893
-1.560	0.017806
-1.555	0.017729
-1.550	0.017731
-1.545	0.017676
-1.540	0.017644
-1.535	0.017614
-1.530	0.017581
-1.525	0.017533
-1.520	0.017478
-1.515	0.017458
-1.510	0.017377
-1.505	0.017271
-1.500	0.017164
-1.495	0.017075
-1.490	0.016979
-1.485	0.016899
-1.480	0.016782
-1.475	0.016692
-1.470	0.016543
-1.465	0.016460
-1.460	0.016370
-1.455	0.016294
-1.450	0.016228
-1.445	0.016227
-1.440	0.016241
-1.435	0.016357
-1.430	0.016400
-1.425	0.016435
-1.420	0.016509
-1.415	0.016541
-1.410	0.016564
-1.405	0.016543
-1.400	0.016530
-1.395	0.016439
-1.390	0.016338
-1.385	0.016206
-1.380	0.016116
-1.375	0.015976
-1.370	0.015933
-1.365	0.015803
-1.360	0.015704
-1.355	0.015656
-1.350	0.015638
-1.345	0.015611
-1.340	0.015536
-1.335	0.015486
-1.330	0.015469
-1.325	0.015419
-1.320	0.015411
-1.315	0.015342
-1.310	0.015321
-1.305	0.015312
-1.300	0.015290
-1.295	0.015264
-1.290	0.015215
-1.285	0.015146
-1.280	0.015023
-1.275	0.014967
-1.270	0.014844
-1.265	0.014741
-1.260	0.014650
-1.255	0.014534
-1.250	0.014433
-1.245	0.014349
-1.240	0.014226
-1.235	0.014109
-1.230	0.014092
-1.225	0.014032
-1.220	0.013987
-1.215	0.014002
-1.210	0.014106
-1.205	0.014221
-1.200	0.014302
-1.195	0.014397
-1.190	0.014513
-1.185	0.014589
-1.180	0.014642
-1.175	0.014654
-1.170	0.014671
-1.165	0.014677
-1.160	0.014701
-1.155	0.014634
-1.150	0.014566
-1.145	0.014476
-1.140	0.014373
-1.135	0.014290
-1.130	0.014176
-1.125	0.014091
-1.120	0.013914
-1.115	0.013839
-1.110	0.013700
-1.105	0.013641
-1.100	0.013552
-1.095	0.013480
-1.090	0.013427
-1.085	0.013374
-1.080	0.013281
-1.075	0.013206
-1.070	0.013091
-1.065	0.012966
-1.060	0.012919
-1.055	0.012865
-1.050	0.012742
-1.045	0.012688
-1.040	0.012624
-1.035	0.012584
-1.030	0.012543
-1.025	0.012505
-1.020	0.012471
-1.015	0.012450
-1.010	0.012451
-1.005	0.012451
-1.000	0.012398
-0.995	0.012329
-0.990	0.012346
-0.985	0.012256
-0.980	0.012257
-0.975	0.012193
-0.970	0.012120
-0.965	0.012068
-0.960	0.012017
-0.955	0.011955
-0.950	0.011867
-0.945	0.011734
-0.940	0.011687
-0.935	0.011597
-0.930	0.011562
-0.925	0.011498
-0.920	0.011453
-0.915	0.011442
-0.910	0.011439
-0.905	0.011449
-0.900	0.011477
-0.895	0.011537
-0.890	0.011579
-0.885	0.011649
-0.880	0.011725
-0.875	0.011773
-0.870	0.011761
-0.865	0.011748
-0.860	0.011756
-0.855	0.011771
-0.850	0.011745
-0.845	0.011702
-0.840	0.011611
-0.835	0.011472
-0.830	0.011401
-0.825	0.011270
-0.820	0.011153
-0.815	0.011023
-0.810	0.010891
-0.805	0.010706
-0.800	0.010568
-0.795	0.010384
-0.790	0.010227
-0.785	0.010035
-0.780	0.009864
-0.775	0.009696
-0.770	0.009617
-0.765	0.009472
-0.760	0.009292
-0.755	0.009182
-0.750	0.009074
-0.745	0.008937
-0.740	0.008807
-0.735	0.008697
-0.730	0.008602
-0.725	0.008560
-0.720	0.008472
-0.715	0.008436
-0.710	0.008376
-0.705	0.008363
-0.700	0.008333
-0.695	0.008336
-0.690	0.008344
-0.685	0.008359
-0.680	0.008437
-0.675	0.008381
-0.670	0.008430
-0.665	0.008449
-0.660	0.008420
-0.655	0.008386
-0.650	0.008386
-0.645	0.008357
-0.640	0.008346
-0.635	0.008360
-0.630	0.008309
-0.625	0.008280
-0.620	0.008273
-0.615	0.008191
-0.610	0.008122
-0.605	0.008087
-0.600	0.007986
-0.595	0.007876
-0.590	0.007786
-0.585	0.007760
-0.580	0.007658
-0.575	0.007600
-0.570	0.007573
-0.565	0.007461
-0.560	0.007397
-0.555	0.007281
-0.550	0.007215
-0.545	0.007148
-0.540	0.007121
-0.535	0.007003
-0.530	0.006948
-0.525	0.006871
-0.520	0.006788
-0.515	0.006684
-0.510	0.006632
-0.505	0.006522
-0.500	0.006459
-0.495	0.006402
-0.490	0.006361
-0.485	0.006317
-0.480	0.006276
-0.475	0.006206
-0.470	0.006130
-0.465	0.006039
-0.460	0.005992
-0.455	0.005910
-0.450	0.005842
-0.445	0.005806
-0.440	0.005747
-0.435	0.005715
-0.430	0.005657
-0.425	0.005630
-0.420	0.005584
-0.415	0.005522
-0.410	0.005453
-0.405	0.005390
-0.400	0.005376
-0.395	0.005314
-0.390	0.005246
-0.385	0.005190
-0.380	0.005155
-0.375	0.005107
-0.370	0.005107
-0.365	0.005071
-0.360	0.005001
-0.355	0.004918
-0.350	0.004793
-0.345	0.004799
-0.340	0.004723
-0.335	0.004681
-0.330	0.004633
-0.325	0.004523
-0.320	0.004482
-0.315	0.004427
-0.310	0.004345
-0.305	0.004306
-0.300	0.004209
-0.295	0.004119
-0.290	0.004038
-0.285	0.003921
-0.280	0.003880
-0.275	0.003830
-0.270	0.003754
-0.265	0.003739
-0.260	0.003697
-0.255	0.003696
-0.250	0.003621
-0.245	0.003607
-0.240	0.003507
-0.235	0.003404
-0.230	0.003306
-0.225	0.003196
-0.220	0.003100
-0.215	0.002984
-0.210	0.002854
-0.205	0.002710
-0.200	0.002634
-0.195	0.002584
-0.190	0.002556
-0.185	0.002548
-0.180	0.002474
-0.175	0.002358
-0.170	0.002351
-0.165	0.002240
-0.160	0.002144
-0.155	0.002041
-0.150	0.001966
-0.145	0.001897
-0.140	0.001863
-0.135	0.001848
-0.130	0.001827
-0.125	0.001778
-0.120	0.001730
-0.115	0.001750
-0.110	0.001724
-0.105	0.001711
-0.100	0.001738
-0.095	0.001799
-0.090	0.001977
-0.085	0.002143
-0.080	0.002233
-0.075	0.002359
-0.070	0.002503
-0.065	0.002653
-0.060	0.002726
-0.055	0.002752
-0.050	0.002464
-0.045	0.002031
-0.040	0.001600
-0.035	0.001152
-0.030	0.000717
-0.025	0.000125
-0.020	-0.000639
-0.015	-0.001637
-0.010	-0.002629
-0.005	-0.003545
0.000	-0.004317
0.005	-0.004968
0.010	-0.005321
0.015	-0.005235
0.020	-0.004639
0.025	-0.003696
0.030	-0.002519
0.035	-0.001086
0.040	0.000517
0.045	0.002238
0.050	0.003754
0.055	0.004913
0.060	0.005645
0.065	0.005751
0.070	0.005412
0.075	0.004548
0.080	0.003311
0.085	0.001932
0.090	0.000444
0.095	-0.000942
0.100	-0.002133
0.105	-0.003103
0.110	-0.003763
0.115	-0.004053
0.120	-0.004041
0.125	-0.003711
0.130	-0.003264
0.135	-0.002850
0.140	-0.002532
0.145	-0.002229
0.150	-0.002085
0.155	-0.002044
0.160	-0.002009
0.165	-0.001954
0.170	-0.001872
0.175	-0.001886
0.180	-0.001906
0.185	-0.002092
0.190	-0.002161
0.195	-0.002257
0.200	-0.002319
0.205	-0.002457
0.210	-0.002553
0.215	-0.002642
0.220	-0.002745
0.225	-0.002835
0.230	-0.002897
0.235	-0.002987
0.240	-0.002987
0.245	-0.003049
0.250	-0.003118
0.255	-0.003181
0.260	-0.003243
0.265	-0.003299
0.270	-0.003444
0.275	-0.003534
0.280	-0.003603
0.285	-0.003768
0.290	-0.003891
0.295	-0.004021
0.300	-0.004062
0.305	-0.004110
0.310	-0.004145
0.315	-0.004201
0.320	-0.004298
0.325	-0.004352
0.330	-0.004429
0.335	-0.004498
0.340	-0.004567
0.345	-0.004614
0.350	-0.004649
0.355	-0.004739
0.360	-0.004816
0.365	-0.004891
0.370	-0.004973
0.375	-0.004993
0.380	-0.005097
0.385	-0.005077
0.390	-0.005139
0.395	-0.005195
0.400	-0.005230
0.405	-0.005306
0.410	-0.005355
0.415	-0.005437
0.420	-0.005477
0.425	-0.005513
0.430	-0.005521
0.435	-0.005575
0.440	-0.005621
0.445	-0.005718
0.450	-0.005732
0.455	-0.005814
0.460	-0.005834
0.465	-0.005888
0.470	-0.005921
0.475	-0.005969
0.480	-0.005977
0.485	-0.005977
0.490	-0.006027
0.495	-0.006068
0.500	-0.006088
0.505	-0.006107
0.510	-0.006141
0.515	-0.006181
0.520	-0.006148
0.525	-0.006216
0.530	-0.006300
0.535	-0.006312
0.540	-0.006373
0.545	-0.006400
0.550	-0.006427
0.555	-0.006565
0.560	-0.006581
0.565	-0.006649
0.570	-0.006717
0.575	-0.006827
0.580	-0.006938
0.585	-0.007015
0.590	-0.007078
0.595	-0.007216
0.600	-0.007334
0.605	-0.007466
0.610	-0.007639
0.615	-0.007714
0.620	-0.007858
0.625	-0.007970
0.630	-0.008092
0.635	-0.008229
0.640	-0.008400
0.645	-0.008532
0.650	-0.008657
0.655	-0.008794
0.660	-0.008918
0.665	-0.009041
0.670	-0.009139
0.675	-0.009215
0.680	-0.009278
0.685	-0.009395
0.690	-0.009432
0.695	-0.009490
0.700	-0.009545
0.705	-0.009577
0.710	-0.009543
0.715	-0.009550
0.720	-0.009504
0.725	-0.009545
0.730	-0.009539
0.735	-0.009523
0.740	-0.009448
0.745	-0.009433
0.750	-0.009401
0.755	-0.009361
0.760	-0.009336
0.765	-0.009294
0.770	-0.009258
0.775	-0.009245
0.780	-0.009286
0.785	-0.009346
0.790	-0.009409
0.795	-0.009451
0.800	-0.009529
0.805	-0.009688
0.810	-0.009840
0.815	-0.009971
0.820	-0.010080
0.825	-0.010150
0.830	-0.010224
0.835	-0.010288
0.840	-0.010315
0.845	-0.010443
0.850	-0.010508
0.855	-0.010652
0.860	-0.010783
0.865	-0.010881
0.870	-0.010916
0.875	-0.011006
0.880	-0.011056
0.885	-0.011125
0.890	-0.011106
0.895	-0.011198
0.900	-0.011251
0.905	-0.011265
0.910	-0.011294
0.915	-0.011337
0.920	-0.011398
0.925	-0.011452
0.930	-0.011529
0.935	-0.011603
0.940	-0.011685
0.945	-0.011780
0.950	-0.011862
0.955	-0.011954
0.960	-0.012055
0.965	-0.012158
0.970	-0.012224
0.975	-0.012355
0.980	-0.012458
0.985	-0.012583
0.990	-0.012666
0.995	-0.012801
1.000	-0.012891
1.005	-0.012980
1.010	-0.013069
1.015	-0.013163
1.020	-0.013271
1.025	-0.013322
1.030	-0.013403
1.035	-0.013480
1.040	-0.013542
1.045	-0.013584
1.050	-0.013607
1.055	-0.013634
1.060	-0.013677
1.065	-0.013678
1.070	-0.013651
1.075	-0.013635
1.080	-0.013564
1.085	-0.013542
1.090	-0.013492
1.095	-0.013398
1.100	-0.013378
1.105	-0.013356
1.110	-0.013369
1.115	-0.013351
1.120	-0.013418
1.125	-0.013462
1.130	-0.013523
1.135	-0.013569
1.140	-0.013627
1.145	-0.013779
1.150	-0.013877
1.155	-0.013998
1.160	-0.014174
1.165	-0.014256
1.170	-0.014372
1.175	-0.014448
1.180	-0.014538
1.185	-0.014578
1.190	-0.014564
1.195	-0.014567
1.200	-0.014629
1.205	-0.014642
1.210	-0.014629
1.215	-0.014657
1.220	-0.014644
1.225	-0.014669
1.230	-0.014770
1.235	-0.014858
1.240	-0.014904
1.245	-0.014954
1.250	-0.014947
1.255	-0.014990
1.260	-0.014990
1.265	-0.015037
1.270	-0.015093
1.275	-0.015137
1.280	-0.015173
1.285	-0.015268
1.290	-0.015353
1.295	-0.015428
1.300	-0.015486
1.305	-0.015559
1.310	-0.015643
1.315	-0.015727
1.320	-0.015803
1.325	-0.015934
1.330	-0.016065
1.335	-0.016101
1.340	-0.016103
1.345	-0.016064
1.350	-0.016019
1.355	-0.015954
1.360	-0.015903
1.365	-0.015846
1.370	-0.015709
1.375	-0.015680
1.380	-0.015687
1.385	-0.015671
1.390	-0.015684
1.395	-0.015687
1.400	-0.015748
1.405	-0.015803
1.410	-0.015906
1.415	-0.016042
1.420	-0.016077
1.425	-0.016186
1.430	-0.016284
1.435	-0.016356
1.440	-0.016446
1.445	-0.016500
1.450	-0.016490
1.455	-0.016539
1.460	-0.016581
1.465	-0.016615
1.470	-0.016604
1.475	-0.016651
1.480	-0.016687
1.485	-0.016759
1.490	-0.016791
1.495	-0.016865
1.500	-0.016964
1.505	-0.017067
1.510	-0.017190
1.515	-0.017321
1.520	-0.017509
1.525	-0.017674
1.530	-0.017771
1.535	-0.017895
1.540	-0.017997
1.545	-0.018097
1.550	-0.018180
1.555	-0.018277
1.560	-0.018345
1.565	-0.018383
1.570	-0.018382
1.575	-0.018354
1.580	-0.018357
1.585	-0.018316
1.590	-0.018303
1.595	-0.018295
1.600	-0.018296
1.605	-0.018247
1.610	-0.018220
1.615	-0.018221
1.620	-0.018256
1.625	-0.018268
1.630	-0.018303
1.635	-0.018305
1.640	-0.018390
1.645	-0.018428
1.650	-0.018436
1.655	-0.018458
1.660	-0.018474
1.665	-0.018384
1.670	-0.018365
1.675	-0.018336
1.680	-0.018332
1.685	-0.018329
1.690	-0.018341
1.695	-0.018355
1.700	-0.018340
1.705	-0.018360
1.710	-0.018356
1.715	-0.018404
1.720	-0.018477
1.725	-0.018570
1.730	-0.018674
1.735	-0.018816
1.740	-0.018947
1.745	-0.019039
1.750	-0.019132
1.755	-0.019199
1.760	-0.019296
1.765	-0.019354
1.770	-0.019378
1.775	-0.019428
1.780	-0.019410
1.785	-0.019375
1.790	-0.019305
1.795	-0.019249
1.800	-0.019224
1.805	-0.019145
1.810	-0.019161
1.815	-0.019111
1.820	-0.019128
1.825	-0.019113
1.830	-0.019076
1.835	-0.019098
1.840	-0.019122
1.845	-0.019103
1.850	-0.019064
1.855	-0.019039
1.860	-0.018982
1.865	-0.018949
1.870	-0.018977
1.875	-0.019058
1.880	-0.019152
1.885	-0.019245
1.890	-0.019325
1.895	-0.019344
1.900	-0.019516
1.905	-0.019619
1.910	-0.019787
1.915	-0.019919
1.920	-0.020000
1.925	-0.020057
1.930	-0.019991
1.935	-0.019993
1.940	-0.019977
1.945	-0.020056
1.950	-0.020113
1.955	-0.020107
1.960	-0.020074
1.965	-0.020006
1.970	-0.020004
1.975	-0.019965
1.980	-0.019927
1.985	-0.019858
1.990	-0.019824
1.995	-0.019809
2.000	-0.019802
2.005	-0.019807
2.010	-0.019835
2.015	-0.019858
2.020	-0.019869
2.025	-0.019860
2.030	-0.019864
2.035	-0.019817
2.040	-0.019741
2.045	-0.019742
2.050	-0.019787
2.055	-0.019838
2.060	-0.019942
2.065	-0.020049
2.070	-0.020173
2.075	-0.020326
2.080	-0.020442
2.085	-0.020491
2.090	-0.020513
2.095	-0.020583
2.100	-0.020563
2.105	-0.020631
2.110	-0.020513
2.115	-0.020395
2.120	-0.020294
2.125	-0.020175
2.130	-0.020009
2.135	-0.019896
2.140	-0.019791
2.145	-0.019607
2.150	-0.019495
2.155	-0.019376
2.160	-0.019309
2.165	-0.019298
2.170	-0.019314
2.175	-0.019389
2.180	-0.019428
2.185	-0.019496
2.190	-0.019552
2.195	-0.019573
2.200	-0.019593
2.205	-0.019675
2.210	-0.019770
2.215	-0.019860
2.220	-0.019972
2.225	-0.020019
2.230	-0.020045
2.235	-0.020058
2.240	-0.020019
2.245	-0.020021
2.250	-0.019957
2.255	-0.019927
2.260	-0.019869
2.265	-0.019820
2.270	-0.019865
2.275	-0.019875
2.280	-0.019802
2.285	-0.019788
2.290	-0.019718
2.295	-0.019642
2.300	-0.019675
2.305	-0.019686
2.310	-0.019714
2.315	-0.019813
2.320	-0.019853
2.325	-0.019797
2.330	-0.019759
2.335	-0.019757
2.340	-0.019824
2.345	-0.019914
2.350	-0.019994
2.355	-0.020074
2.360	-0.020076
2.365	-0.020098
2.370	-0.020114
2.375	-0.020067
2.380	-0.020097
2.385	-0.020084
2.390	-0.019975
2.395	-0.019942
2.400	-0.019905
2.405	-0.019861
2.410	-0.019686
2.415	-0.019542
2.420	-0.019415
2.425	-0.019305
2.430	-0.019169
2.435	-0.019068
2.440	-0.018934
2.445	-0.018888
2.450	-0.018896
2.455	-0.018894
2.460	-0.018882
2.465	-0.018858
2.470	-0.018848
2.475	-0.018866
2.480	-0.018854
2.485	-0.018820
2.490	-0.018828
2.495	-0.018885
2.500	-0.018959
2.505	-0.019036
2.510	-0.019106
2.515	-0.019125
2.520	-0.019059
2.525	-0.018906
2.530	-0.018871
2.535	-0.018858
2.540	-0.018821
2.545	-0.018758
2.550	-0.018714
2.555	-0.018660
2.560	-0.018569
2.565	-0.018460
2.570	-0.018402
2.575	-0.018403
2.580	-0.018360
2.585	-0.018283
2.590	-0.018202
2.595	-0.018150
2.600	-0.018088
2.605	-0.018051
2.610	-0.018067
2.615	-0.018085
2.620	-0.018129
2.625	-0.018196
2.630	-0.018305
2.635	-0.018344
2.640	-0.018315
2.645	-0.018308
2.650	-0.018280
2.655	-0.018257
2.660	-0.018202
2.665	-0.018031
2.670	-0.017904
2.675	-0.017793
2.680	-0.017692
2.685	-0.017668
2.690	-0.017593
2.695	-0.017472
2.700	-0.017343
2.705	-0.017166
2.710	-0.017001
2.715	-0.016875
2.720	-0.016787
2.725	-0.016719
2.730	-0.016683
2.735	-0.016698
2.740	-0.016654
2.745	-0.016592
2.750	-0.016516
2.755	-0.016401
2.760	-0.016273
2.765	-0.016092
2.770	-0.015970
2.775	-0.015839
2.780	-0.015771
2.785	-0.015758
2.790	-0.015761
2.795	-0.015806
2.800	-0.015806
2.805	-0.015753
2.810	-0.015702
2.815	-0.015647
2.820	-0.015559
2.825	-0.015454
2.830	-0.015455
2.835	-0.015460
2.840	-0.015488
2.845	-0.015608
2.850	-0.015638
2.855	-0.015624
2.860	-0.015596
2.865	-0.015525
2.870	-0.015453
2.875	-0.015285
2.880	-0.015226
2.885	-0.015167
2.890	-0.015107
2.895	-0.014929
2.900	-0.014763
2.905	-0.014627
2.910	-0.014546
2.915	-0.014456
2.920	-0.014387
2.925	-0.014269
2.930	-0.014107
2.935	-0.014057
2.940	-0.013918
2.945	-0.013876
2.950	-0.013838
2.955	-0.013733
2.960	-0.013635
2.965	-0.013553
2.970	-0.013431
2.975	-0.013300
2.980	-0.013205
2.985	-0.013053
2.990	-0.013010
2.995	-0.012981
3.000	-0.012948
3.005	-0.012860
3.010	-0.012835
3.015	-0.012814
3.020	-0.012739
3.025	-0.012671
3.030	-0.012559
3.035	-0.012458
3.040	-0.012315
3.045	-0.012163
3.050	-0.012075
3.055	-0.011983
3.060	-0.011907
3.065	-0.011798
3.070	-0.011744
3.075	-0.011694
3.080	-0.011672
3.085	-0.011561
3.090	-0.011522
3.095	-0.011472
3.100	-0.011427
3.105	-0.011344
3.110	-0.011311
3.115	-0.011229
3.120	-0.011121
3.125	-0.010977
3.130	-0.010900
3.135	-0.010843
3.140	-0.010809
3.145	-0.010774
3.150	-0.010705
3.155	-0.010639
3.160	-0.010557
3.165	-0.010478
3.170	-0.010373
3.175	-0.010290
3.180	-0.010161
3.185	-0.010018
3.190	-0.009930
3.195	-0.009875
3.200	-0.009770
3.205	-0.009652
3.210	-0.009526
3.215	-0.009462
3.220	-0.009346
3.225	-0.009237
3.230	-0.009162
3.235	-0.009113
3.240	-0.008984
3.245	-0.008888
3.250	-0.008819
3.255	-0.008805
3.260	-0.008817
3.265	-0.008892
3.270	-0.008948
3.275	-0.008983
3.280	-0.008976
3.285	-0.009005
3.290	-0.009045
3.295	-0.009071
3.300	-0.009274
3.305	-0.009526
3.310	-0.009827
3.315	-0.010061
3.320	-0.010263
3.325	-0.010490
3.330	-0.010674
3.335	-0.011016
3.340	-0.011323
3.345	-0.011530
3.350	-0.011536
3.355	-0.011195
3.360	-0.010471
3.365	-0.009603
3.370	-0.008755
3.375	-0.008010
3.380	-0.007382
3.385	-0.006593
3.390	-0.005621
3.395	-0.004335
3.400	-0.003055
3.405	-0.001883
3.410	-0.001084
3.415	-0.000562
3.420	-0.000307
3.425	-0.000244
3.430	-0.000278
3.435	-0.000355
3.440	-0.000479
3.445	-0.000534
3.450	-0.000561
3.455	-0.000596
3.460	-0.000534
3.465	-0.000431
3.470	-0.000260
3.475	-0.000040
3.480	0.000291
3.485	0.000600
3.490	0.001069
3.495	0.001572
3.500	0.002121
3.505	0.002718
3.510	0.003310
3.515	0.003928
3.520	0.004540
3.525	0.005199
3.530	0.005839
3.535	0.006478
3.540	0.007109
3.545	0.007715
3.550	0.008267
3.555	0.008780
3.560	0.009275
3.565	0.009714
3.570	0.010071
3.575	0.010422
3.580	0.010700
3.585	0.010919
3.590	0.011154
3.595	0.011398
3.600	0.011659
3.605	0.011878
3.610	0.012078
3.615	0.012232
3.620	0.012336
3.625	0.012459
3.630	0.012534
3.635	0.012626
3.640	0.012756
3.645	0.012886
3.650	0.013018
3.655	0.013168
3.660	0.013320
3.665	0.013369
3.670	0.013507
3.675	0.013637
3.680	0.013767
3.685	0.013933
3.690	0.014078
3.695	0.014193
3.700	0.014368
3.705	0.014525
3.710	0.014678
3.715	0.014850
3.720	0.014981
3.725	0.015108
3.730	0.015278
3.735	0.015426
3.740	0.015598
3.745	0.015826
3.750	0.016041
3.755	0.016226
3.760	0.016428
3.765	0.016601
3.770	0.016852
3.775	0.017075
3.780	0.017240
3.785	0.017446
3.790	0.017675
3.795	0.017949
3.800	0.018181
3.805	0.018433
3.810	0.018681
3.815	0.018947
3.820	0.019227
3.825	0.019498
3.830	0.019787
3.835	0.020081
3.840	0.020443
3.845	0.020755
3.850	0.021130
3.855	0.021462
3.860	0.021809
3.865	0.022147
3.870	0.022454
3.875	0.022857
3.880	0.023242
3.885	0.023632
3.890	0.024059
3.895	0.024493
3.900	0.024929
3.905	0.025374
3.910	0.025853
3.915	0.026331
3.920	0.026843
3.925	0.027396
3.930	0.028002
3.935	0.028601
3.940	0.029098
3.945	0.029772
3.950	0.030523
3.955	0.031349
3.960	0.032185
3.965	0.033161
3.970	0.034241
3.975	0.035390
3.980	0.036688
3.985	0.038086
3.990	0.039792
3.995	0.041635
4.000	0.043671
4.005	0.045926
4.010	0.048380
4.015	0.050956
4.020	0.053626
4.025	0.056249
4.030	0.058666
4.035	0.060777
4.040	0.062507
4.045	0.063666
4.050	0.064202
4.055	0.064093
4.060	0.063024
4.065	0.061126
4.070	0.058297
4.075	0.054510
4.080	0.049529
4.085	0.043235
4.090	0.035918
4.095	0.028066
4.100	0.020161
4.105	0.012723
4.110	0.006505
4.115	0.001647
4.120	-0.001805
4.125	-0.004081
4.130	-0.005509
4.135	-0.006407
4.140	-0.006951
4.145	-0.007317
4.150	-0.007621
4.155	-0.007899
4.160	-0.008101
4.165	-0.008307
4.170	-0.008472
4.175	-0.008588
4.180	-0.008664
4.185	-0.008691
4.190	-0.008703
4.195	-0.008716
4.200	-0.008778
4.205	-0.008793
4.210	-0.008830
4.215	-0.008837
4.220	-0.008875
4.225	-0.008833
4.230	-0.008872
4.235	-0.008931
4.240	-0.008998
4.245	-0.008992
4.250	-0.008993
4.255	-0.008953
4.260	-0.008980
4.265	-0.009022
4.270	-0.009007
4.275	-0.009011
4.280	-0.009066
4.285	-0.009094
4.290	-0.009110
4.295	-0.009088
4.300	-0.009108
4.305	-0.009128
4.310	-0.009213
4.315	-0.009283
4.320	-0.009318
4.325	-0.009406
4.330	-0.009489
4.335	-0.009563
4.340	-0.009625
4.345	-0.009652
4.350	-0.009631
4.355	-0.009593
4.360	-0.009608
4.365	-0.009683
4.370	-0.009640
4.375	-0.009660
4.380	-0.009627
4.385	-0.009619
4.390	-0.009683
4.395	-0.009778
4.400	-0.009895
4.405	-0.009927
4.410	-0.009992
4.415	-0.009986
4.420	-0.009990
4.425	-0.010052
4.430	-0.010091
4.435	-0.010144
4.440	-0.010228
4.445	-0.010277
4.450	-0.010324
4.455	-0.010288
4.460	-0.010246
4.465	-0.010289
4.470	-0.010325
4.475	-0.010380
4.480	-0.010449
4.485	-0.010484
4.490	-0.010537
4.495	-0.010590
4.500	-0.010629
4.505	-0.010684
4.510	-0.010759
4.515	-0.010828
4.520	-0.010923
4.525	-0.010903
4.530	-0.010931
4.535	-0.010906
4.540	-0.010996
4.545	-0.011085
4.550	-0.011189
4.555	-0.011268
4.560	-0.011311
4.565	-0.011370
4.570	-0.011458
4.575	-0.011436
4.580	-0.011428
4.585	-0.011479
4.590	-0.011500
4.595	-0.011521
4.600	-0.011542
4.605	-0.011539
4.610	-0.011456
4.615	-0.011422
4.620	-0.011517
4.625	-0.011586
4.630	-0.011625
4.635	-0.011692
4.640	-0.011774
4.645	-0.011879
4.650	-0.011993
4.655	-0.012132
4.660	-0.012257
4.665	-0.012393
4.670	-0.012518
4.675	-0.012621
4.680	-0.012703
4.685	-0.012705
4.690	-0.012792
4.695	-0.012825
4.700	-0.012836
4.705	-0.012882
4.710	-0.012971
4.715	-0.012944
4.720	-0.012953
4.725	-0.013015
4.730	-0.013041
4.735	-0.013122
4.740	-0.013176
4.745	-0.013217
4.750	-0.013288
4.755	-0.013291
4.760	-0.013326
4.765	-0.013349
4.770	-0.013451
4.775	-0.013597
4.780	-0.013652
4.785	-0.013763
4.790	-0.013854
4.795	-0.013993
4.800	-0.014118
4.805	-0.014242
4.810	-0.014379
4.815	-0.014483
4.820	-0.014548
4.825	-0.014590
4.830	-0.014630
4.835	-0.014690
4.840	-0.014812
4.845	-0.014951
4.850	-0.015103
4.855	-0.015123
4.860	-0.015163
4.865	-0.015201
4.870	-0.015278
4.875	-0.015318
4.880	-0.015374
4.885	-0.015424
4.890	-0.015471
4.895	-0.015518
4.900	-0.015546
4.905	-0.015624
4.910	-0.015713
4.915	-0.015926
4.920	-0.016068
4.925	-0.016117
4.930	-0.016106
4.935	-0.016200
4.940	-0.016329
4.945	-0.016440
4.950	-0.016561
4.955	-0.016773
4.960	-0.016959
4.965	-0.017187
4.970	-0.017317
4.975	-0.017470
4.980	-0.017621
4.985	-0.017723
4.990	-0.017904
4.995	-0.018018
5.000	-0.018142
5.005	-0.018287
5.010	-0.018486
5.015	-0.018613
5.020	-0.018800
5.025	-0.019001
5.030	-0.019152
5.035	-0.019303
5.040	-0.019480
5.045	-0.019697
5.050	-0.019827
5.055	-0.020033
5.060	-0.020202
5.065	-0.020427
5.070	-0.020635
5.075	-0.020830
5.080	-0.021074
5.085	-0.021294
5.090	-0.021452
5.095	-0.021655
5.100	-0.021823
5.105	-0.022024
5.110	-0.022195
5.115	-0.022455
5.120	-0.022681
5.125	-0.022951
5.130	-0.023158
5.135	-0.023393
5.140	-0.023645
5.145	-0.023889
5.150	-0.024209
5.155	-0.024517
5.160	-0.024834
5.165	-0.025215
5.170	-0.025654
5.175	-0.026060
5.180	-0.026538
5.185	-0.026981
5.190	-0.027410
5.195	-0.027887
5.200	-0.028339
5.205	-0.028901
5.210	-0.029405
5.215	-0.029932
5.220	-0.030508
5.225	-0.031135
5.230	-0.031766
5.235	-0.032356
5.240	-0.033027
5.245	-0.033685
5.250	-0.034398
5.255	-0.035211
5.260	-0.036045
5.265	-0.036985
5.270	-0.037885
5.275	-0.039018
5.280	-0.040164
5.285	-0.041552
5.290	-0.043075
5.295	-0.044808
5.300	-0.046829
5.305	-0.049047
5.310	-0.051495
5.315	-0.054031
5.320	-0.056707
5.325	-0.059069
5.330	-0.061099
5.335	-0.062743
5.340	-0.063608
5.345	-0.064372
5.350	-0.064351
5.355	-0.063301
5.360	-0.062033
5.365	-0.059746
5.370	-0.055729
5.375	-0.050976
5.380	-0.046139
5.385	-0.040498
5.390	-0.032958
5.395	-0.023970
5.400	-0.015455
5.405	-0.008720
5.410	-0.004158
5.415	-0.001419
5.420	0.000118
5.425	0.000834
5.430	0.001088
5.435	0.001204
5.440	0.001260
5.445	0.001315
5.450	0.001335
5.455	0.001342
5.460	0.001295
5.465	0.001322
5.470	0.001315
5.475	0.001294
5.480	0.001301
5.485	0.001316
5.490	0.001310
5.495	0.001282
5.500	0.001309
5.505	0.001268
5.510	0.001295
5.515	0.001316
5.520	0.001282
5.525	0.001288
5.530	0.001288
5.535	0.001288
5.540	0.001288
5.545	0.001281
5.550	0.001275
5.555	0.001283
5.560	0.001296
5.565	0.001288
5.570	0.001267
5.575	0.001281
5.580	0.001309
5.585	0.001308
5.590	0.001274
5.595	0.001288
5.600	0.001281
5.605	0.001315
5.610	0.001336
5.615	0.001356
5.620	0.001413
5.625	0.001426
5.630	0.001515
5.635	0.001569
5.640	0.001679
5.645	0.001727
5.650	0.001872
5.655	0.001947
5.660	0.002078
5.665	0.002229
5.670	0.002374
5.675	0.002463
5.680	0.002594
5.685	0.002678
5.690	0.002761
5.695	0.002815
5.700	0.002842
5.705	0.002822
5.710	0.002850
5.715	0.002774
5.720	0.002705
5.725	0.002601
5.730	0.002491
5.735	0.002401
5.740	0.002270
5.745	0.002112
5.750	0.002016
5.755	0.001955
5.760	0.001811
5.765	0.001734
5.770	0.001706
5.775	0.001652
5.780	0.001603
5.785	0.001562
5.790	0.001527
5.795	0.001499
5.800	0.001486
5.805	0.001471
5.810	0.001471
5.815	0.001457
5.820	0.001465
5.825	0.001444
5.830	0.001458
5.835	0.001464
5.840	0.001506
5.845	0.001464
5.850	0.001492
5.855	0.001492
5.860	0.001499
5.865	0.001512
5.870	0.001505
5.875	0.001491
5.880	0.001471
5.885	0.001485
5.890	0.001527
5.895	0.001554
5.900	0.001553
5.905	0.001539
5.910	0.001574
5.915	0.001581
5.920	0.001588
5.925	0.001588
5.930	0.001568
5.935	0.001581
5.940	0.001601
5.945	0.001615
5.950	0.001602
5.955	0.001610
5.960	0.001616
5.965	0.001629
5.970	0.001677
5.975	0.001671
5.980	0.001671
5.985	0.001679
5.990	0.001665
5.995	0.001679
6.000	0.001665
6.005	0.001672
6.010	0.001706
6.015	0.001672
6.020	0.001687
6.025	0.001715
6.030	0.001700
6.035	0.001727
6.040	0.001699
6.045	0.001727
6.050	0.001714
6.055	0.001769
6.060	0.001769
6.065	0.001734
6.070	0.001762
6.075	0.001769
6.080	0.001755
6.085	0.001756
6.090	0.001736
6.095	0.001770
6.100	0.001762
6.105	0.001783
6.110	0.001783
6.115	0.001790
6.120	0.001763
6.125	0.001783
6.130	0.001776
6.135	0.001776
6.140	0.001790
6.145	0.001762
6.150	0.001797
6.155	0.001784
6.160	0.001784
6.165	0.001811
6.170	0.001790
6.175	0.001804
6.180	0.001817
6.185	0.001804
6.190	0.001818
6.195	0.001797
6.200	0.001804
6.205	0.001817
6.210	0.001804
6.215	0.001839
6.220	0.001853
6.225	0.001839
6.230	0.001803
6.235	0.001816
6.240	0.001851
6.245	0.001804
6.250	0.001851
6.255	0.001865
6.260	0.001852
6.265	0.001824
6.270	0.001837
6.275	0.001851
6.280	0.001858
6.285	0.001831
6.290	0.001852
6.295	0.001878
6.300	0.001878
6.305	0.001870
6.310	0.001891
6.315	0.001870
6.320	0.001884
6.325	0.001870
6.330	0.001884
6.335	0.001883
6.340	0.001876
6.345	0.001849
6.350	0.001904
6.355	0.001898
6.360	0.001931
6.365	0.001923
6.370	0.001910
6.375	0.001917
6.380	0.001923
6.385	0.001875
6.390	0.001930
6.395	0.001909
6.400	0.001895
6.405	0.001915
6.410	0.001888
6.415	0.001908
6.420	0.001944
6.425	0.001930
6.430	0.001943
6.435	0.001935
6.440	0.001942
6.445	0.001970
6.450	0.001956
6.455	0.001942
6.460	0.001935
6.465	0.001949
6.470	0.001963
6.475	0.001949
6.480	0.001969
6.485	0.001957
6.490	0.001963
6.495	0.001942
6.500	0.001955
6.505	0.001982
6.510	0.001989
6.515	0.001997
6.520	0.002024
6.525	0.002003
6.530	0.001975
6.535	0.002002
6.540	0.001995
6.545	0.002002
6.550	0.002030
6.555	0.002010
6.560	0.002038
6.565	0.002043
6.570	0.002071
6.575	0.002043
6.580	0.002063
6.585	0.002049
6.590	0.002091
6.595	0.002077
6.600	0.002111
6.605	0.002090
6.610	0.002097
6.615	0.002125
6.620	0.002133
6.625	0.002132
6.630	0.002139
6.635	0.002138
6.640	0.002132
6.645	0.002118
6.650	0.002146
6.655	0.002146
6.660	0.002146
6.665	0.002166
6.670	0.002118
6.675	0.002152
6.680	0.002152
6.685	0.002139
6.690	0.002146
6.695	0.002153
6.700	0.002186
6.705	0.002165
6.710	0.002186
6.715	0.002186
6.720	0.002207
6.725	0.002192
6.730	0.002206
6.735	0.002206
6.740	0.002206
6.745	0.002227
6.750	0.002200
6.755	0.002228
6.760	0.002221
6.765	0.002233
6.770	0.002268
6.775	0.002226
6.780	0.002247
6.785	0.002226
6.790	0.002282
6.795	0.002281
6.800	0.002226
6.805	0.002240
6.810	0.002233
6.815	0.002233
6.820	0.002227
6.825	0.002248
6.830	0.002254
6.835	0.002267
6.840	0.002240
6.845	0.002253
6.850	0.002246
6.855	0.002239
6.860	0.002253
6.865	0.002211
6.870	0.002239
6.875	0.002259
6.880	0.002232
6.885	0.002261
6.890	0.002254
6.895	0.002260
6.900	0.002266
6.905	0.002245
6.910	0.002280
6.915	0.002266
6.920	0.002273
6.925	0.002246
6.930	0.002287
6.935	0.002259
6.940	0.002293
6.945	0.002266
6.950	0.002260
6.955	0.002260
6.960	0.002274
6.965	0.002293
6.970	0.002321
6.975	0.002307
6.980	0.002301
6.985	0.002307
6.990	0.002314
6.995	0.002307
7.000	0.002273
7.005	0.002287
7.010	0.002321
7.015	0.002329
7.020	0.002351
7.025	0.002330
7.030	0.002329
7.035	0.002336
7.040	0.002392
7.045	0.002323
7.050	0.002386
7.055	0.002365
7.060	0.002393
7.065	0.002379
7.070	0.002387
7.075	0.002373
7.080	0.002379
7.085	0.002395
7.090	0.002382
7.095	0.002388
7.100	0.002394
7.105	0.002483
7.110	0.002428
7.115	0.002463
7.120	0.002428
7.125	0.002469
7.130	0.002462
7.135	0.002455
7.140	0.002469
7.145	0.002476
7.150	0.002477
7.155	0.002485
7.160	0.002505
7.165	0.002503
7.170	0.002497
7.175	0.002483
7.180	0.002525
7.185	0.002532
7.190	0.002498
7.195	0.002525
7.200	0.002540
7.205	0.002533
7.210	0.002554
7.215	0.002560
7.220	0.002562
7.225	0.002603
7.230	0.002582
7.235	0.002609
7.240	0.002609
7.245	0.002602
7.250	0.002623
7.255	0.002624
7.260	0.002644
7.265	0.002644
7.270	0.002624
7.275	0.002651
7.280	0.002672
7.285	0.002660
7.290	0.002639
7.295	0.002659
7.300	0.002686
7.305	0.002665
7.310	0.002735
7.315	0.002714
7.320	0.002707
7.325	0.002735
7.330	0.002735
7.335	0.002728
7.340	0.002714
7.345	0.002706
7.350	0.002743
7.355	0.002722
7.360	0.002729
7.365	0.002755
7.370	0.002789
7.375	0.002776
7.380	0.002797
7.385	0.002782
7.390	0.002803
7.395	0.002810
7.400	0.002811
7.405	0.002804
7.410	0.002817
7.415	0.002804
7.420	0.002812
7.425	0.002804
7.430	0.002831
7.435	0.002810
7.440	0.002845
7.445	0.002831
7.450	0.002852
7.455	0.002859
7.460	0.002872
7.465	0.002865
7.470	0.002872
7.475	0.002885
7.480	0.002885
7.485	0.002907
7.490	0.002914
7.495	0.002893
7.500	0.002905
7.505	0.002947
7.510	0.002932
7.515	0.002932
7.520	0.002953
7.525	0.002946
7.530	0.002966
7.535	0.002993
7.540	0.002980
7.545	0.002966
7.550	0.002988
7.555	0.002995
7.560	0.003015
7.565	0.003027
7.570	0.003048
7.575	0.003069
7.580	0.003062
7.585	0.003034
7.590	0.003040
7.595	0.003068
7.600	0.003074
7.605	0.003094
7.610	0.003108
7.615	0.003074
7.620	0.003076
7.625	0.003102
7.630	0.003135
7.635	0.003155
7.640	0.003122
7.645	0.003163
7.650	0.003156
7.655	0.003176
7.660	0.003204
7.665	0.003190
7.670	0.003190
7.675	0.003224
7.680	0.003183
7.685	0.003192
7.690	0.003240
7.695	0.003218
7.700	0.003259
7.705	0.003252
7.710	0.003259
7.715	0.003265
7.720	0.003301
7.725	0.003300
7.730	0.003286
7.735	0.003300
7.740	0.003307
7.745	0.003334
7.750	0.003370
7.755	0.003350
7.760	0.003370
7.765	0.003390
7.770	0.003417
7.775	0.003418
7.780	0.003418
7.785	0.003418
7.790	0.003438
7.795	0.003452
7.800	0.003417
7.805	0.003452
7.810	0.003445
7.815	0.003474
7.820	0.003503
7.825	0.003482
7.830	0.003467
7.835	0.003508
7.840	0.003481
7.845	0.003494
7.850	0.003529
7.855	0.003515
7.860	0.003522
7.865	0.003550
7.870	0.003570
7.875	0.003556
7.880	0.003563
7.885	0.003627
7.890	0.003619
7.895	0.003611
7.900	0.003616
7.905	0.003644
7.910	0.003664
7.915	0.003671
7.920	0.003678
7.925	0.003691
7.930	0.003690
7.935	0.003738
7.940	0.003697
7.945	0.003724
7.950	0.003747
7.955	0.003760
7.960	0.003739
7.965	0.003765
7.970	0.003758
7.975	0.003792
7.980	0.003786
7.985	0.003793
7.990	0.003807
7.995	0.003855
8.000	0.003820
8.005	0.003861
8.010	0.003874
8.015	0.003869
8.020	0.003864
8.025	0.003911
8.030	0.003909
8.035	0.003957
8.040	0.003929
8.045	0.003943
8.050	0.003964
8.055	0.003998
8.060	0.003964
8.065	0.003963
8.070	0.003997
8.075	0.004011
8.080	0.004019
8.085	0.004041
8.090	0.004048
8.095	0.004067
8.100	0.004067
8.105	0.004101
8.110	0.004108
8.115	0.004109
8.120	0.004157
8.125	0.004136
8.130	0.004164
8.135	0.004205
8.140	0.004164
8.145	0.004185
8.150	0.004207
8.155	0.004221
8.160	0.004241
8.165	0.004287
8.170	0.004280
8.175	0.004280
8.180	0.004335
8.185	0.004301
8.190	0.004342
8.195	0.004363
8.200	0.004363
8.205	0.004356
8.210	0.004371
8.215	0.004399
8.220	0.004428
8.225	0.004420
8.230	0.004446
8.235	0.004433
8.240	0.004495
8.245	0.004502
8.250	0.004503
8.255	0.004523
8.260	0.004557
8.265	0.004544
8.270	0.004586
8.275	0.004592
8.280	0.004620
8.285	0.004622
8.290	0.004670
8.295	0.004669
8.300	0.004696
8.305	0.004690
8.310	0.004712
8.315	0.004713
8.320	0.004783
8.325	0.004771
8.330	0.004793
8.335	0.004808
8.340	0.004816
8.345	0.004858
8.350	0.004876
8.355	0.004913
8.360	0.004921
8.365	0.004950
8.370	0.005005
8.375	0.004984
8.380	0.005042
8.385	0.005069
8.390	0.005096
8.395	0.005173
8.400	0.005286
8.405	0.005398
8.410	0.005480
8.415	0.005657
8.420	0.005710
8.425	0.005702
8.430	0.005555
8.435	0.005412
8.440	0.005372
8.445	0.005200
8.450	0.005240
8.455	0.005352
8.460	0.005415
8.465	0.005396
8.470	0.005424
8.475	0.005432
8.480	0.005448
8.485	0.005482
8.490	0.005477
8.495	0.005525
8.500	0.005536
8.505	0.005543
8.510	0.005575
8.515	0.005575
8.520	0.005586
8.525	0.005596
8.530	0.005610
8.535	0.005641
8.540	0.005631
8.545	0.005665
8.550	0.005675
8.555	0.005678
8.560	0.005693
8.565	0.005713
8.570	0.005768
8.575	0.005777
8.580	0.005787
8.585	0.005775
8.590	0.005802
8.595	0.005796
8.600	0.005833
8.605	0.005897
8.610	0.005921
8.615	0.005975
8.620	0.006011
8.625	0.006058
8.630	0.006128
8.635	0.006166
8.640	0.006174
8.645	0.006220
8.650	0.006247
8.655	0.006273
8.660	0.006294
8.665	0.006341
8.670	0.006362
8.675	0.006410
8.680	0.006438
8.685	0.006475
8.690	0.006536
8.695	0.006562
8.700	0.006604
8.705	0.006658
8.710	0.006693
8.715	0.006700
8.720	0.006707
8.725	0.006775
8.730	0.006804
8.735	0.006824
8.740	0.006865
8.745	0.006899
8.750	0.006953
8.755	0.006967
8.760	0.007056
8.765	0.007069
8.770	0.007117
8.775	0.007137
8.780	0.007194
8.785	0.007223
8.790	0.007265
8.795	0.007278
8.800	0.007333
8.805	0.007379
8.810	0.007429
8.815	0.007458
8.820	0.007502
8.825	0.007507
8.830	0.007546
8.835	0.007614
8.840	0.007656
8.845	0.007684
8.850	0.007746
8.855	0.007766
8.860	0.007828
8.865	0.007898
8.870	0.007924
8.875	0.007980
8.880	0.008051
8.885	0.008146
8.890	0.008187
8.895	0.008232
8.900	0.008253
8.905	0.008361
8.910	0.008383
8.915	0.008463
8.920	0.008561
8.925	0.008582
8.930	0.008637
8.935	0.008706
8.940	0.008769
8.945	0.008839
8.950	0.008891
8.955	0.008966
8.960	0.009063
8.965	0.009111
8.970	0.009192
8.975	0.009246
8.980	0.009337
8.985	0.009383
8.990	0.009486
8.995	0.009511
9.000	0.009620
9.005	0.009674
9.010	0.009778
9.015	0.009842
9.020	0.009935
9.025	0.010042
9.030	0.010108
9.035	0.010227
9.040	0.010304
9.045	0.010378
9.050	0.010489
9.055	0.010583
9.060	0.010688
9.065	0.010770
9.070	0.010882
9.075	0.011005
9.080	0.011115
9.085	0.011215
9.090	0.011318
9.095	0.011444
9.100	0.011567
9.105	0.011669
9.110	0.011781
9.115	0.011898
9.120	0.012030
9.125	0.012140
9.130	0.012292
9.135	0.012429
9.140	0.012555
9.145	0.012729
9.150	0.012875
9.155	0.013016
9.160	0.013181
9.165	0.013345
9.170	0.013488
9.175	0.013696
9.180	0.013883
9.185	0.014083
9.190	0.014303
9.195	0.014512
9.200	0.014756
9.205	0.014923
9.210	0.015206
9.215	0.015454
9.220	0.015659
9.225	0.015934
9.230	0.016203
9.235	0.016473
9.240	0.016770
9.245	0.017099
9.250	0.017377
9.255	0.017689
9.260	0.018006
9.265	0.018373
9.270	0.018724
9.275	0.019064
9.280	0.019493
9.285	0.019907
9.290	0.020311
9.295	0.020695
9.300	0.021113
9.305	0.021560
9.310	0.021985
9.315	0.022521
9.320	0.023092
9.325	0.023627
9.330	0.024253
9.335	0.025143
9.340	0.026458
9.345	0.027920
9.350	0.029594
9.355	0.031410
9.360	0.033487
9.365	0.035760
9.370	0.038146
9.375	0.040595
9.380	0.042720
9.385	0.044691
9.390	0.046318
9.395	0.047440
9.400	0.048171
9.405	0.048457
9.410	0.047864
9.415	0.046394
9.420	0.044240
9.425	0.041459
9.430	0.037887
9.435	0.032948
9.440	0.026666
9.445	0.019673
9.450	0.012982
9.455	0.007457
9.460	0.003544
9.465	0.001026
9.470	-0.000412
9.475	-0.001151
9.480	-0.001524
9.485	-0.001683
9.490	-0.001766
9.495	-0.001828
9.500	-0.001883
9.505	-0.001890
9.510	-0.001904
9.515	-0.001966
9.520	-0.001959
9.525	-0.001973
9.530	-0.001973
9.535	-0.001938
9.540	-0.001980
9.545	-0.001973
9.550	-0.001973
9.555	-0.002001
9.560	-0.001987
9.565	-0.001966
9.570	-0.002028
9.575	-0.001994
9.580	-0.001973
9.585	-0.001994
9.590	-0.002014
9.595	-0.002021
9.600	-0.001980
9.605	-0.001980
9.610	-0.002008
9.615	-0.002021
9.620	-0.002063
9.625	-0.002042
9.630	-0.002049
9.635	-0.002022
9.640	-0.002051
9.645	-0.002024
9.650	-0.002010
9.655	-0.001996
9.660	-0.002017
9.665	-0.002017
9.670	-0.002017
9.675	-0.002031
9.680	-0.002031
9.685	-0.002058
9.690	-0.002058
9.695	-0.002038
9.700	-0.002038
9.705	-0.002052
9.710	-0.002024
9.715	-0.002024
9.720	-0.002024
9.725	-0.002059
9.730	-0.002038
9.735	-0.002045
9.740	-0.002045
9.745	-0.002045
9.750	-0.002052
9.755	-0.002045
9.760	-0.002052
9.765	-0.002080
9.770	-0.002018
9.775	-0.002066
9.780	-0.002073
9.785	-0.002080
9.790	-0.002080
9.795	-0.002052
9.800	-0.002053
9.805	-0.002053
9.810	-0.002060
9.815	-0.002080
9.820	-0.002032
9.825	-0.002081
9.830	-0.002074
9.835	-0.002060
9.840	-0.002046
9.845	-0.002033
9.850	-0.002054
9.855	-0.002068
9.860	-0.002075
9.865	-0.002047
9.870	-0.002082
9.875	-0.002089
9.880	-0.002089
9.885	-0.002068
9.890	-0.002068
9.895	-0.002075
9.900	-0.002061
9.905	-0.002096
9.910	-0.002048
9.915	-0.002075
9.920	-0.002089
9.925	-0.002055
9.930	-0.002082
9.935	-0.002082
9.940	-0.002068
9.945	-0.002089
9.950	-0.002041
9.955	-0.002062
9.960	-0.002076
9.965	-0.002069
9.970	-0.002055
9.975	-0.002075
9.980	-0.002075
9.985	-0.002061
9.990	-0.002103
9.995	-0.002062
10.000	-0.002103
10.005	-0.002075
10.010	-0.002069
10.015	-0.002124
10.020	-0.002089
10.025	-0.002097
10.030	-0.002069
10.035	-0.002110
10.040	-0.002062
10.045	-0.002082
10.050	-0.002096
10.055	-0.002089
10.060	-0.002103
10.065	-0.002117
10.070	-0.002089
10.075	-0.002096
10.080	-0.002131
10.085	-0.002117
10.090	-0.002131
10.095	-0.002111
10.100	-0.002111
10.105	-0.002110
10.110	-0.002111
10.115	-0.002083
10.120	-0.002090
10.125	-0.002104
10.130	-0.002118
10.135	-0.002118
10.140	-0.002125
10.145	-0.002159
10.150	-0.002132
10.155	-0.002125
10.160	-0.002125
10.165	-0.002153
10.170	-0.002132
10.175	-0.002146
10.180	-0.002139
10.185	-0.002160
10.190	-0.002146
10.195	-0.002153
10.200	-0.002159
10.205	-0.002153
10.210	-0.002153
10.215	-0.002166
10.220	-0.002146
10.225	-0.002201
10.230	-0.002167
10.235	-0.002125
10.240	-0.002153
10.245	-0.002167
10.250	-0.002139
10.255	-0.002160
10.260	-0.002187
10.265	-0.002160
10.270	-0.002160
10.275	-0.002173
10.280	-0.002180
10.285	-0.002180
10.290	-0.002181
10.295	-0.002194
10.300	-0.002181
10.305	-0.002180
10.310	-0.002173
10.315	-0.002173
10.320	-0.002180
10.325	-0.002194
10.330	-0.002194
10.335	-0.002180
10.340	-0.002201
10.345	-0.002236
10.350	-0.002222
10.355	-0.002194
10.360	-0.002215
10.365	-0.002236
10.370	-0.002222
10.375	-0.002201
10.380	-0.002215
10.385	-0.002222
10.390	-0.002201
10.395	-0.002194
10.400	-0.002215
10.405	-0.002208
10.410	-0.002222
10.415	-0.002243
10.420	-0.002201
10.425	-0.002236
10.430	-0.002236
10.435	-0.002243
10.440	-0.002201
10.445	-0.002243
10.450	-0.002222
10.455	-0.002229
10.460	-0.002243
10.465	-0.002250
10.470	-0.002243
10.475	-0.002236
10.480	-0.002236
10.485	-0.002229
10.490	-0.002271
10.495	-0.002271
10.500	-0.002243
10.505	-0.002263
10.510	-0.002270
10.515	-0.002250
10.520	-0.002229
10.525	-0.002250
10.530	-0.002271
10.535	-0.002264
10.540	-0.002243
10.545	-0.002271
10.550	-0.002305
10.555	-0.002285
10.560	-0.002250
10.565	-0.002285
10.570	-0.002264
10.575	-0.002257
10.580	-0.002278
10.585	-0.002271
10.590	-0.002278
10.595	-0.002271
10.600	-0.002291
10.605	-0.002285
10.610	-0.002285
10.615	-0.002299
10.620	-0.002264
10.625	-0.002306
10.630	-0.002306
10.635	-0.002292
10.640	-0.002285
10.645	-0.002285
10.650	-0.002306
10.655	-0.002313
10.660	-0.002299
10.665	-0.002320
10.670	-0.002320
10.675	-0.002306
10.680	-0.002320
10.685	-0.002306
10.690	-0.002327
10.695	-0.002327
10.700	-0.002299
10.705	-0.002327
10.710	-0.002306
10.715	-0.002313
10.720	-0.002292
10.725	-0.002334
10.730	-0.002334
10.735	-0.002375
10.740	-0.002348
10.745	-0.002334
10.750	-0.002334
10.755	-0.002355
10.760	-0.002307
10.765	-0.002341
10.770	-0.002348
10.775	-0.002334
10.780	-0.002341
10.785	-0.002320
10.790	-0.002341
10.795	-0.002327
10.800	-0.002362
10.805	-0.002355
10.810	-0.002341
10.815	-0.002376
10.820	-0.002348
10.825	-0.002369
10.830	-0.002362
10.835	-0.002348
10.840	-0.002382
10.845	-0.002362
10.850	-0.002327
10.855	-0.002389
10.860	-0.002348
10.865	-0.002376
10.870	-0.002362
10.875	-0.002362
10.880	-0.002397
10.885	-0.002362
10.890	-0.002390
10.895	-0.002356
10.900	-0.002369
10.905	-0.002348
10.910	-0.002383
10.915	-0.002369
10.920	-0.002363
10.925	-0.002397
10.930	-0.002397
10.935	-0.002397
10.940	-0.002404
10.945	-0.002377
10.950	-0.002397
10.955	-0.002398
10.960	-0.002391
10.965	-0.002398
10.970	-0.002398
10.975	-0.002391
10.980	-0.002405
10.985	-0.002425
10.990	-0.002391
10.995	-0.002391
11.000	-0.002377
11.005	-0.002418
11.010	-0.002405
11.015	-0.002405
11.020	-0.002432
11.025	-0.002412
11.030	-0.002412
11.035	-0.002405
11.040	-0.002419
11.045	-0.002412
11.050	-0.002433
11.055	-0.002440
11.060	-0.002391
11.065	-0.002398
11.070	-0.002426
11.075	-0.002454
11.080	-0.002412
11.085	-0.002412
11.090	-0.002447
11.095	-0.002434
11.100	-0.002427
11.105	-0.002433
11.110	-0.002413
11.115	-0.002461
11.120	-0.002448
11.125	-0.002448
11.130	-0.002406
11.135	-0.002455
11.140	-0.002455
11.145	-0.002434
11.150	-0.002427
11.155	-0.002455
11.160	-0.002421
11.165	-0.002448
11.170	-0.002448
11.175	-0.002441
11.180	-0.002441
11.185	-0.002490
11.190	-0.002476
11.195	-0.002448
11.200	-0.002448
11.205	-0.002483
11.210	-0.002476
11.215	-0.002476
11.220	-0.002455
11.225	-0.002456
11.230	-0.002435
11.235	-0.002456
11.240	-0.002469
11.245	-0.002455
11.250	-0.002456
11.255	-0.002476
11.260	-0.002476
11.265	-0.002463
11.270	-0.002435
11.275	-0.002463
11.280	-0.002490
11.285	-0.002469
11.290	-0.002456
11.295	-0.002456
11.300	-0.002484
11.305	-0.002497
11.310	-0.002497
11.315	-0.002463
11.320	-0.002470
11.325	-0.002470
11.330	-0.002484
11.335	-0.002477
11.340	-0.002484
11.345	-0.002498
11.350	-0.002505
11.355	-0.002505
11.360	-0.002477
11.365	-0.002477
11.370	-0.002505
11.375	-0.002484
11.380	-0.002463
11.385	-0.002512
11.390	-0.002463
11.395	-0.002526
11.400	-0.002491
11.405	-0.002491
11.410	-0.002498
11.415	-0.002505
11.420	-0.002498
11.425	-0.002498
11.430	-0.002505
11.435	-0.002519
11.440	-0.002491
11.445	-0.002519
11.450	-0.002484
11.455	-0.002484
11.460	-0.002540
11.465	-0.002526
11.470	-0.002533
11.475	-0.002547
11.480	-0.002526
11.485	-0.002526
11.490	-0.002526
11.495	-0.002540
11.500	-0.002526
11.505	-0.002512
11.510	-0.002498
11.515	-0.002540
11.520	-0.002554
11.525	-0.002554
11.530	-0.002547
11.535	-0.002526
11.540	-0.002526
11.545	-0.002554
11.550	-0.002540
11.555	-0.002568
11.560	-0.002548
11.565	-0.002547
11.570	-0.002533
11.575	-0.002533
11.580	-0.002540
11.585	-0.002520
11.590	-0.002527
11.595	-0.002547
11.600	-0.002527
11.605	-0.002534
11.610	-0.002561
11.615	-0.002561
11.620	-0.002554
11.625	-0.002569
11.630	-0.002569
11.635	-0.002527
11.640	-0.002561
11.645	-0.002575
11.650	-0.002554
11.655	-0.002568
11.660	-0.002582
11.665	-0.002589
11.670	-0.002575
11.675	-0.002596
11.680	-0.002582
11.685	-0.002575
11.690	-0.002583
11.695	-0.002604
11.700	-0.002555
11.705	-0.002569
11.710	-0.002596
11.715	-0.002589
11.720	-0.002596
11.725	-0.002569
11.730	-0.002596
11.735	-0.002610
11.740	-0.002631
11.745	-0.002603
11.750	-0.002610
11.755	-0.002611
11.760	-0.002604
11.765	-0.002604
11.770	-0.002611
11.775	-0.002624
11.780	-0.002611
11.785	-0.002624
11.790	-0.002625
11.795	-0.002604
11.800	-0.002617
11.805	-0.002624
11.810	-0.002638
11.815	-0.002645
11.820	-0.002659
11.825	-0.002639
11.830	-0.002611
11.835	-0.002625
11.840	-0.002625
11.845	-0.002604
11.850	-0.002618
11.855	-0.002597
11.860	-0.002611
11.865	-0.002625
11.870	-0.002653
11.875	-0.002611
11.880	-0.002639
11.885	-0.002625
11.890	-0.002639
11.895	-0.002646
11.900	-0.002625
11.905	-0.002632
11.910	-0.002660
11.915	-0.002639
11.920	-0.002605
11.925	-0.002674
11.930	-0.002660
11.935	-0.002646
11.940	-0.002667
11.945	-0.002653
11.950	-0.002667
11.955	-0.002674
11.960	-0.002647
11.965	-0.002653
11.970	-0.002667
11.975	-0.002639
11.980	-0.002633
11.985	-0.002688
11.990	-0.002654
11.995	-0.002661
12.000	-0.002640
12.005	-0.002688
12.010	-0.002681
12.015	-0.002688
12.020	-0.002682
12.025	-0.002682
12.030	-0.002675
12.035	-0.002696
12.040	-0.002668
12.045	-0.002675
12.050	-0.002682
12.055	-0.002695
12.060	-0.002668
12.065	-0.002696
12.070	-0.002682
12.075	-0.002661
12.080	-0.002716
12.085	-0.002675
12.090	-0.002682
12.095	-0.002682
12.100	-0.002709
12.105	-0.002709
12.110	-0.002689
12.115	-0.002661
12.120	-0.002689
12.125	-0.002682
12.130	-0.002717
12.135	-0.002744
12.140	-0.002730
12.145	-0.002744
12.150	-0.002717
12.155	-0.002758
12.160	-0.002717
12.165	-0.002738
12.170	-0.002730
12.175	-0.002723
12.180	-0.002730
12.185	-0.002723
12.190	-0.002731
12.195	-0.002744
12.200	-0.002710
12.205	-0.002758
12.210	-0.002717
12.215	-0.002758
12.220	-0.002724
12.225	-0.002752
12.230	-0.002724
12.235	-0.002703
12.240	-0.002737
12.245	-0.002744
12.250	-0.002731
12.255	-0.002737
12.260	-0.002751
12.265	-0.002779
12.270	-0.002744
12.275	-0.002751
12.280	-0.002758
12.285	-0.002758
12.290	-0.002744
12.295	-0.002765
12.300	-0.002793
12.305	-0.002765
12.310	-0.002758
12.315	-0.002772
12.320	-0.002744
12.325	-0.002765
12.330	-0.002765
12.335	-0.002771
12.340	-0.002785
12.345	-0.002785
12.350	-0.002792
12.355	-0.002800
12.360	-0.002800
12.365	-0.002799
12.370	-0.002785
12.375	-0.002765
12.380	-0.002806
12.385	-0.002779
12.390	-0.002786
12.395	-0.002813
12.400	-0.002792
12.405	-0.002806
12.410	-0.002841
12.415	-0.002813
12.420	-0.002806
12.425	-0.002807
12.430	-0.002827
12.435	-0.002799
12.440	-0.002820
12.445	-0.002820
12.450	-0.002806
12.455	-0.002813
12.460	-0.002827
12.465	-0.002820
12.470	-0.002813
12.475	-0.002819
12.480	-0.002840
12.485	-0.002840
12.490	-0.002799
12.495	-0.002854
12.500	-0.002861
12.505	-0.002833
12.510	-0.002875
12.515	-0.002813
12.520	-0.002854
12.525	-0.002861
12.530	-0.002882
12.535	-0.002840
12.540	-0.002854
12.545	-0.002868
12.550	-0.002875
12.555	-0.002875
12.560	-0.002875
12.565	-0.002847
12.570	-0.002881
12.575	-0.002861
12.580	-0.002840
12.585	-0.002881
12.590	-0.002881
12.595	-0.002888
12.600	-0.002909
12.605	-0.002902
12.610	-0.002881
12.615	-0.002916
12.620	-0.002882
12.625	-0.002896
12.630	-0.002896
12.635	-0.002888
12.640	-0.002909
12.645	-0.002930
12.650	-0.002902
12.655	-0.002902
12.660	-0.002902
12.665	-0.002909
12.670	-0.002930
12.675	-0.002937
12.680	-0.002950
12.685	-0.002937
12.690	-0.002944
12.695	-0.002937
12.700	-0.002916
12.705	-0.002930
12.710	-0.002937
12.715	-0.002950
12.720	-0.002902
12.725	-0.002930
12.730	-0.002944
12.735	-0.002964
12.740	-0.002937
12.745	-0.002971
12.750	-0.002964
12.755	-0.002957
12.760	-0.002985
12.765	-0.002964
12.770	-0.002943
12.775	-0.002964
12.780	-0.002964
12.785	-0.002950
12.790	-0.002943
12.795	-0.002971
12.800	-0.002971
12.805	-0.002985
12.810	-0.002978
12.815	-0.002978
12.820	-0.002992
12.825	-0.002978
12.830	-0.002992
12.835	-0.002985
12.840	-0.002985
12.845	-0.003012
12.850	-0.002985
12.855	-0.002999
12.860	-0.003012
12.865	-0.002985
12.870	-0.003019
12.875	-0.003026
12.880	-0.003012
12.885	-0.003033
12.890	-0.003013
12.895	-0.003027
12.900	-0.003020
12.905	-0.003013
12.910	-0.003020
12.915	-0.003013
12.920	-0.003013
12.925	-0.003054
12.930	-0.003033
12.935	-0.003040
12.940	-0.003047
12.945	-0.003068
12.950	-0.003047
12.955	-0.003068
12.960	-0.003062
12.965	-0.003020
12.970	-0.003081
12.975	-0.003047
12.980	-0.003026
12.985	-0.003047
12.990	-0.003040
12.995	-0.003061
13.000	-0.003102
13.005	-0.003075
13.010	-0.003088
13.015	-0.003054
13.020	-0.003068
13.025	-0.003082
13.030	-0.003068
13.035	-0.003082
13.040	-0.003102
13.045	-0.003054
13.050	-0.003054
13.055	-0.003089
13.060	-0.003082
13.065	-0.003089
13.070	-0.003103
13.075	-0.003116
13.080	-0.003075
13.085	-0.003110
13.090	-0.003103
13.095	-0.003124
13.100	-0.003103
13.105	-0.003110
13.110	-0.003110
13.115	-0.003110
13.120	-0.003089
13.125	-0.003144
13.130	-0.003103
13.135	-0.003103
13.140	-0.003144
13.145	-0.003124
13.150	-0.003144
13.155	-0.003124
13.160	-0.003145
13.165	-0.003131
13.170	-0.003110
13.175	-0.003145
13.180	-0.003117
13.185	-0.003152
13.190	-0.003138
13.195	-0.003145
13.200	-0.003138
13.205	-0.003173
13.210	-0.003179
13.215	-0.003193
13.220	-0.003153
13.225	-0.003167
13.230	-0.003167
13.235	-0.003180
13.240	-0.003180
13.245	-0.003166
13.250	-0.003160
13.255	-0.003173
13.260	-0.003139
13.265	-0.003174
13.270	-0.003146
13.275	-0.003180
13.280	-0.003167
13.285	-0.003174
13.290	-0.003195
13.295	-0.003168
13.300	-0.003188
13.305	-0.003181
13.310	-0.003167
13.315	-0.003188
13.320	-0.003175
13.325	-0.003216
13.330	-0.003182
13.335	-0.003209
13.340	-0.003189
13.345	-0.003216
13.350	-0.003196
13.355	-0.003217
13.360	-0.003224
13.365	-0.003210
13.370	-0.003224
13.375	-0.003224
13.380	-0.003189
13.385	-0.003210
13.390	-0.003238
13.395	-0.003217
13.400	-0.003224
13.405	-0.003238
13.410	-0.003265
13.415	-0.003224
13.420	-0.003225
13.425	-0.003211
13.430	-0.003211
13.435	-0.003231
13.440	-0.003266
13.445	-0.003259
13.450	-0.003238
13.455	-0.003225
13.460	-0.003218
13.465	-0.003252
13.470	-0.003252
13.475	-0.003259
13.480	-0.003259
13.485	-0.003225
13.490	-0.003287
13.495	-0.003273
13.500	-0.003273
13.505	-0.003259
13.510	-0.003266
13.515	-0.003280
13.520	-0.003287
13.525	-0.003246
13.530	-0.003260
13.535	-0.003287
13.540	-0.003260
13.545	-0.003280
13.550	-0.003322
13.555	-0.003308
13.560	-0.003302
13.565	-0.003274
13.570	-0.003315
13.575	-0.003294
13.580	-0.003288
13.585	-0.003301
13.590	-0.003301
13.595	-0.003315
13.600	-0.003329
13.605	-0.003301
13.610	-0.003357
13.615	-0.003329
13.620	-0.003336
13.625	-0.003357
13.630	-0.003357
13.635	-0.003336
13.640	-0.003343
13.645	-0.003322
13.650	-0.003336
13.655	-0.003357
13.660	-0.003323
13.665	-0.003338
13.670	-0.003331
13.675	-0.003337
13.680	-0.003357
13.685	-0.003357
13.690	-0.003344
13.695	-0.003351
13.700	-0.003371
13.705	-0.003357
13.710	-0.003372
13.715	-0.003386
13.720	-0.003386
13.725	-0.003386
13.730	-0.003379
13.735	-0.003399
13.740	-0.003385
13.745	-0.003378
13.750	-0.003412
13.755	-0.003399
13.760	-0.003399
13.765	-0.003398
13.770	-0.003391
13.775	-0.003384
13.780	-0.003384
13.785	-0.003405
13.790	-0.003384
13.795	-0.003411
13.800	-0.003425
13.805	-0.003425
13.810	-0.003418
13.815	-0.003425
13.820	-0.003418
13.825	-0.003439
13.830	-0.003453
13.835	-0.003418
13.840	-0.003411
13.845	-0.003411
13.850	-0.003460
13.855	-0.003405
13.860	-0.003418
13.865	-0.003432
13.870	-0.003418
13.875	-0.003452
13.880	-0.003446
13.885	-0.003466
13.890	-0.003446
13.895	-0.003433
13.900	-0.003453
13.905	-0.003480
13.910	-0.003446
13.915	-0.003446
13.920	-0.003473
13.925	-0.003452
13.930	-0.003473
13.935	-0.003473
13.940	-0.003473
13.945	-0.003473
13.950	-0.003473
13.955	-0.003515
13.960	-0.003481
13.965	-0.003474
13.970	-0.003487
13.975	-0.003453
13.980	-0.003522
13.985	-0.003501
13.990	-0.003481
13.995	-0.003501
14.000	-0.003467
14.005	-0.003508
14.010	-0.003515
14.015	-0.003488
14.020	-0.003502
14.025	-0.003530
14.030	-0.003509
14.035	-0.003494
14.040	-0.003508
14.045	-0.003515
14.050	-0.003481
14.055	-0.003522
14.060	-0.003529
14.065	-0.003501
14.070	-0.003522
14.075	-0.003536
14.080	-0.003529
14.085	-0.003522
14.090	-0.003551
14.095	-0.003516
14.100	-0.003529
14.105	-0.003543
14.110	-0.003515
14.115	-0.003543
14.120	-0.003550
14.125	-0.003515
14.130	-0.003578
14.135	-0.003543
14.140	-0.003523
14.145	-0.003571
14.150	-0.003578
14.155	-0.003564
14.160	-0.003572
14.165	-0.003598
14.170	-0.003550
14.175	-0.003605
14.180	-0.003564
14.185	-0.003543
14.190	-0.003557
14.195	-0.003598
14.200	-0.003585
14.205	-0.003598
14.210	-0.003605
14.215	-0.003578
14.220	-0.003592
14.225	-0.003599
14.230	-0.003620
14.235	-0.003592
14.240	-0.003578
14.245	-0.003585
14.250	-0.003612
14.255	-0.003606
14.260	-0.003592
14.265	-0.003592
14.270	-0.003606
14.275	-0.003626
14.280	-0.003620
14.285	-0.003620
14.290	-0.003627
14.295	-0.003621
14.300	-0.003627
14.305	-0.003606
14.310	-0.003620
14.315	-0.003634
14.320	-0.003641
14.325	-0.003627
14.330	-0.003648
14.335	-0.003606
14.340	-0.003641
14.345	-0.003661
14.350	-0.003641
14.355	-0.003642
14.360	-0.003683
14.365	-0.003655
14.370	-0.003654
14.375	-0.003648
14.380	-0.003655
14.385	-0.003676
14.390	-0.003662
14.395	-0.003696
14.400	-0.003690
14.405	-0.003690
14.410	-0.003703
14.415	-0.003689
14.420	-0.003697
14.425	-0.003697
14.430	-0.003690
14.435	-0.003676
14.440	-0.003696
14.445	-0.003697
14.450	-0.003697
14.455	-0.003703
14.460	-0.003683
14.465	-0.003717
14.470	-0.003717
14.475	-0.003718
14.480	-0.003752
14.485	-0.003697
14.490	-0.003732
14.495	-0.003725
14.500	-0.003738
14.505	-0.003738
14.510	-0.003739
14.515	-0.003780
14.520	-0.003704
14.525	-0.003745
14.530	-0.003753
14.535	-0.003746
14.540	-0.003725
14.545	-0.003746
14.550	-0.003753
14.555	-0.003774
14.560	-0.003740
14.565	-0.003781
14.570	-0.003739
14.575	-0.003739
14.580	-0.003760
14.585	-0.003794
14.590	-0.003780
14.595	-0.003780
14.600	-0.003781
14.605	-0.003767
14.610	-0.003788
14.615	-0.003781
14.620	-0.003761
14.625	-0.003768
14.630	-0.003809
14.635	-0.003795
14.640	-0.003795
14.645	-0.003809
14.650	-0.003788
14.655	-0.003788
14.660	-0.003795
14.665	-0.003802
14.670	-0.003789
14.675	-0.003803
14.680	-0.003837
14.685	-0.003816
14.690	-0.003811
14.695	-0.003803
14.700	-0.003844
14.705	-0.003817
14.710	-0.003796
14.715	-0.003837
14.720	-0.003837
14.725	-0.003831
14.730	-0.003838
14.735	-0.003838
14.740	-0.003838
14.745	-0.003845
14.750	-0.003852
14.755	-0.003874
14.760	-0.003846
14.765	-0.003853
14.770	-0.003866
14.775	-0.003846
14.780	-0.003867
14.785	-0.003901
14.790	-0.003881
14.795	-0.003860
14.800	-0.003881
14.805	-0.003895
14.810	-0.003881
14.815	-0.003881
14.820	-0.003861
14.825	-0.003882
14.830	-0.003910
14.835	-0.003910
14.840	-0.003896
14.845	-0.003869
14.850	-0.003896
14.855	-0.003903
14.860	-0.003903
14.865	-0.003924
14.870	-0.003903
14.875	-0.003896
14.880	-0.003917
14.885	-0.003911
14.890	-0.003897
14.895	-0.003938
14.900	-0.003931
14.905	-0.003917
14.910	-0.003931
14.915	-0.003910
14.920	-0.003924
14.925	-0.003924
14.930	-0.003938
14.935	-0.003917
14.940	-0.003945
14.945	-0.003945
14.950	-0.003938
14.955	-0.003952
14.960	-0.003953
14.965	-0.003965
14.970	-0.003937
14.975	-0.003951
14.980	-0.003951
14.985	-0.003944
14.990	-0.003958
14.995	-0.003972
15.000	-0.003965
15.005	-0.003979
15.010	-0.003965
15.015	-0.003951
15.020	-0.003993
15.025	-0.003987
15.030	-0.003972
15.035	-0.003985
15.040	-0.003979
15.045	-0.003972
15.050	-0.004006
15.055	-0.003993
15.060	-0.003985
15.065	-0.003985
15.070	-0.004027
15.075	-0.004013
15.080	-0.004013
15.085	-0.004000
15.090	-0.004028
15.095	-0.004014
15.100	-0.004027
15.105	-0.004006
15.110	-0.004006
15.115	-0.004027
15.120	-0.004055
15.125	-0.004054
15.130	-0.004034
15.135	-0.004027
15.140	-0.004048
15.145	-0.004075
15.150	-0.004083
15.155	-0.004056
15.160	-0.004049
15.165	-0.004062
15.170	-0.004062
15.175	-0.004042
15.180	-0.004049
15.185	-0.004042
15.190	-0.004090
15.195	-0.004090
15.200	-0.004084
15.205	-0.004118
15.210	-0.004090
15.215	-0.004077
15.220	-0.004092
15.225	-0.004092
15.230	-0.004091
15.235	-0.004084
15.240	-0.004119
15.245	-0.004070
15.250	-0.004119
15.255	-0.004146
15.260	-0.004105
15.265	-0.004146
15.270	-0.004154
15.275	-0.004112
15.280	-0.004133
15.285	-0.004161
15.290	-0.004141
15.295	-0.004141
15.300	-0.004147
15.305	-0.004141
15.310	-0.004162
15.315	-0.004141
15.320	-0.004141
15.325	-0.004148
15.330	-0.004183
15.335	-0.004149
15.340	-0.004155
15.345	-0.004162
15.350	-0.004190
15.355	-0.004184
15.360	-0.004184
15.365	-0.004163
15.370	-0.004170
15.375	-0.004184
15.380	-0.004205
15.385	-0.004191
15.390	-0.004177
15.395	-0.004191
15.400	-0.004177
15.405	-0.004204
15.410	-0.004219
15.415	-0.004212
15.420	-0.004220
15.425	-0.004213
15.430	-0.004212
15.435	-0.004239
15.440	-0.004247
15.445	-0.004254
15.450	-0.004206
15.455	-0.004233
15.460	-0.004234
15.465	-0.004261
15.470	-0.004261
15.475	-0.004247
15.480	-0.004247
15.485	-0.004268
15.490	-0.004255
15.495	-0.004254
15.500	-0.004289
15.505	-0.004247
15.510	-0.004234
15.515	-0.004254
15.520	-0.004254
15.525	-0.004289
15.530	-0.004289
15.535	-0.004261
15.540	-0.004295
15.545	-0.004309
15.550	-0.004289
15.555	-0.004310
15.560	-0.004310
15.565	-0.004275
15.570	-0.004303
15.575	-0.004303
15.580	-0.004310
15.585	-0.004296
15.590	-0.004296
15.595	-0.004330
15.600	-0.004303
15.605	-0.004337
15.610	-0.004316
15.615	-0.004344
15.620	-0.004339
15.625	-0.004318
15.630	-0.004338
15.635	-0.004344
15.640	-0.004365
15.645	-0.004344
15.650	-0.004344
15.655	-0.004323
15.660	-0.004330
15.665	-0.004392
15.670	-0.004371
15.675	-0.004350
15.680	-0.004364
15.685	-0.004392
15.690	-0.004386
15.695	-0.004371
15.700	-0.004392
15.705	-0.004371
15.710	-0.004399
15.715	-0.004371
15.720	-0.004406
15.725	-0.004399
15.730	-0.004371
15.735	-0.004385
15.740	-0.004419
15.745	-0.004420
15.750	-0.004399
15.755	-0.004406
15.760	-0.004400
15.765	-0.004420
15.770	-0.004412
15.775	-0.004426
15.780	-0.004419
15.785	-0.004413
15.790	-0.004419
15.795	-0.004453
15.800	-0.004433
15.805	-0.004460
15.810	-0.004453
15.815	-0.004453
15.820	-0.004455
15.825	-0.004455
15.830	-0.004495
15.835	-0.004481
15.840	-0.004453
15.845	-0.004446
15.850	-0.004488
15.855	-0.004454
15.860	-0.004475
15.865	-0.004488
15.870	-0.004502
15.875	-0.004488
15.880	-0.004474
15.885	-0.004488
15.890	-0.004489
15.895	-0.004503
15.900	-0.004502
15.905	-0.004501
15.910	-0.004502
15.915	-0.004502
15.920	-0.004516
15.925	-0.004509
15.930	-0.004495
15.935	-0.004557
15.940	-0.004550
15.945	-0.004536
15.950	-0.004544
15.955	-0.004552
15.960	-0.004544
15.965	-0.004564
15.970	-0.004550
15.975	-0.004530
15.980	-0.004551
15.985	-0.004565
15.990	-0.004530
15.995	-0.004558
16.000	-0.004572
16.005	-0.004613
16.010	-0.004585
16.015	-0.004572
16.020	-0.004573
16.025	-0.004593
16.030	-0.004579
16.035	-0.004572
16.040	-0.004592
16.045	-0.004593
16.050	-0.004607
16.055	-0.004579
16.060	-0.004620
16.065	-0.004641
16.070	-0.004614
16.075	-0.004627
16.080	-0.004635
16.085	-0.004629
16.090	-0.004616
16.095	-0.004657
16.100	-0.004635
16.105	-0.004642
16.110	-0.004622
16.115	-0.004650
16.120	-0.004664
16.125	-0.004630
16.130	-0.004637
16.135	-0.004650
16.140	-0.004665
16.145	-0.004664
16.150	-0.004679
16.155	-0.004666
16.160	-0.004728
16.165	-0.004671
16.170	-0.004685
16.175	-0.004650
16.180	-0.004664
16.185	-0.004678
16.190	-0.004671
16.195	-0.004699
16.200	-0.004719
16.205	-0.004705
16.210	-0.004726
16.215	-0.004712
16.220	-0.004707
16.225	-0.004727
16.230	-0.004712
16.235	-0.004732
16.240	-0.004753
16.245	-0.004726
16.250	-0.004747
16.255	-0.004760
16.260	-0.004740
16.265	-0.004788
16.270	-0.004760
16.275	-0.004774
16.280	-0.004740
16.285	-0.004775
16.290	-0.004769
16.295	-0.004776
16.300	-0.004775
16.305	-0.004816
16.310	-0.004781
16.315	-0.004789
16.320	-0.004796
16.325	-0.004810
16.330	-0.004802
16.335	-0.004816
16.340	-0.004775
16.345	-0.004830
16.350	-0.004796
16.355	-0.004825
16.360	-0.004811
16.365	-0.004824
16.370	-0.004844
16.375	-0.004852
16.380	-0.004825
16.385	-0.004859
16.390	-0.004853
16.395	-0.004852
16.400	-0.004881
16.405	-0.004845
16.410	-0.004853
16.415	-0.004887
16.420	-0.004875
16.425	-0.004882
16.430	-0.004853
16.435	-0.004860
16.440	-0.004845
16.445	-0.004887
16.450	-0.004901
16.455	-0.004894
16.460	-0.004860
16.465	-0.004928
16.470	-0.004907
16.475	-0.004887
16.480	-0.004935
16.485	-0.004888
16.490	-0.004950
16.495	-0.004942
16.500	-0.004880
16.505	-0.004949
16.510	-0.004943
16.515	-0.004935
16.520	-0.004928
16.525	-0.004949
16.530	-0.004928
16.535	-0.004907
16.540	-0.004942
16.545	-0.004935
16.550	-0.004956
16.555	-0.004950
16.560	-0.004971
16.565	-0.004914
16.570	-0.004955
16.575	-0.004969
16.580	-0.004983
16.585	-0.004976
16.590	-0.004956
16.595	-0.004990
16.600	-0.004976
16.605	-0.005010
16.610	-0.005011
16.615	-0.005004
16.620	-0.004992
16.625	-0.005026
16.630	-0.005011
16.635	-0.005018
16.640	-0.005039
16.645	-0.005053
16.650	-0.005012
16.655	-0.005026
16.660	-0.005033
16.665	-0.005040
16.670	-0.005047
16.675	-0.005040
16.680	-0.005068
16.685	-0.005021
16.690	-0.005097
16.695	-0.005048
16.700	-0.005069
16.705	-0.005062
16.710	-0.005103
16.715	-0.005103
16.720	-0.005075
16.725	-0.005110
16.730	-0.005076
16.735	-0.005110
16.740	-0.005090
16.745	-0.005090
16.750	-0.005147
16.755	-0.005086
16.760	-0.005140
16.765	-0.005167
16.770	-0.005133
16.775	-0.005155
16.780	-0.005149
16.785	-0.005142
16.790	-0.005149
16.795	-0.005197
16.800	-0.005156
16.805	-0.005177
16.810	-0.005170
16.815	-0.005156
16.820	-0.005138
16.825	-0.005173
16.830	-0.005179
16.835	-0.005185
16.840	-0.005186
16.845	-0.005172
16.850	-0.005193
16.855	-0.005220
16.860	-0.005180
16.865	-0.005236
16.870	-0.005216
16.875	-0.005243
16.880	-0.005279
16.885	-0.005246
16.890	-0.005274
16.895	-0.005266
16.900	-0.005252
16.905	-0.005232
16.910	-0.005281
16.915	-0.005267
16.920	-0.005280
16.925	-0.005280
16.930	-0.005288
16.935	-0.005294
16.940	-0.005301
16.945	-0.005294
16.950	-0.005288
16.955	-0.005318
16.960	-0.005317
16.965	-0.005315
16.970	-0.005322
16.975	-0.005301
16.980	-0.005293
16.985	-0.005321
16.990	-0.005327
16.995	-0.005341
17.000	-0.005342
17.005	-0.005348
17.010	-0.005363
17.015	-0.005349
17.020	-0.005392
17.025	-0.005356
17.030	-0.005348
17.035	-0.005355
17.040	-0.005404
17.045	-0.005376
17.050	-0.005375
17.055	-0.005382
17.060	-0.005354
17.065	-0.005395
17.070	-0.005422
17.075	-0.005415
17.080	-0.005416
17.085	-0.005410
17.090	-0.005397
17.095	-0.005423
17.100	-0.005422
17.105	-0.005415
17.110	-0.005415
17.115	-0.005402
17.120	-0.005451
17.125	-0.005430
17.130	-0.005450
17.135	-0.005450
17.140	-0.005443
17.145	-0.005491
17.150	-0.005478
17.155	-0.005493
17.160	-0.005471
17.165	-0.005463
17.170	-0.005477
17.175	-0.005505
17.180	-0.005484
17.185	-0.005498
17.190	-0.005504
17.195	-0.005518
17.200	-0.005518
17.205	-0.005504
17.210	-0.005532
17.215	-0.005505
17.220	-0.005527
17.225	-0.005547
17.230	-0.005532
17.235	-0.005518
17.240	-0.005567
17.245	-0.005560
17.250	-0.005546
17.255	-0.005588
17.260	-0.005575
17.265	-0.005547
17.270	-0.005581
17.275	-0.005588
17.280	-0.005581
17.285	-0.005625
17.290	-0.005583
17.295	-0.005623
17.300	-0.005589
17.305	-0.005623
17.310	-0.005623
17.315	-0.005616
17.320	-0.005623
17.325	-0.005630
17.330	-0.005631
17.335	-0.005645
17.340	-0.005638
17.345	-0.005652
17.350	-0.005674
17.355	-0.005660
17.360	-0.005702
17.365	-0.005659
17.370	-0.005659
17.375	-0.005701
17.380	-0.005700
17.385	-0.005680
17.390	-0.005687
17.395	-0.005694
17.400	-0.005694
17.405	-0.005721
17.410	-0.005694
17.415	-0.005701
17.420	-0.005702
17.425	-0.005743
17.430	-0.005693
17.435	-0.005734
17.440	-0.005728
17.445	-0.005721
17.450	-0.005735
17.455	-0.005756
17.460	-0.005742
17.465	-0.005762
17.470	-0.005769
17.475	-0.005776
17.480	-0.005790
17.485	-0.005777
17.490	-0.005756
17.495	-0.005749
17.500	-0.005790
17.505	-0.005810
17.510	-0.005810
17.515	-0.005796
17.520	-0.005789
17.525	-0.005831
17.530	-0.005816
17.535	-0.005823
17.540	-0.005872
17.545	-0.005831
17.550	-0.005825
17.555	-0.005854
17.560	-0.005860
17.565	-0.005858
17.570	-0.005880
17.575	-0.005859
17.580	-0.005881
17.585	-0.005901
17.590	-0.005894
17.595	-0.005853
17.600	-0.005888
17.605	-0.005874
17.610	-0.005908
17.615	-0.005930
17.620	-0.005938
17.625	-0.005978
17.630	-0.005949
17.635	-0.005935
17.640	-0.005950
17.645	-0.005949
17.650	-0.005935
17.655	-0.005983
17.660	-0.005970
17.665	-0.005990
17.670	-0.006011
17.675	-0.005990
17.680	-0.006004
17.685	-0.005992
17.690	-0.006011
17.695	-0.005997
17.700	-0.005995
17.705	-0.006010
17.710	-0.006031
17.715	-0.006031
17.720	-0.006045
17.725	-0.006052
17.730	-0.006051
17.735	-0.006064
17.740	-0.006058
17.745	-0.006086
17.750	-0.006080
17.755	-0.006101
17.760	-0.006093
17.765	-0.006077
17.770	-0.006091
17.775	-0.006091
17.780	-0.006111
17.785	-0.006104
17.790	-0.006138
17.795	-0.006145
17.800	-0.006138
17.805	-0.006117
17.810	-0.006151
17.815	-0.006165
17.820	-0.006132
17.825	-0.006165
17.830	-0.006164
17.835	-0.006184
17.840	-0.006171
17.845	-0.006171
17.850	-0.006177
17.855	-0.006211
17.860	-0.006211
17.865	-0.006197
17.870	-0.006204
17.875	-0.006189
17.880	-0.006258
17.885	-0.006225
17.890	-0.006245
17.895	-0.006231
17.900	-0.006250
17.905	-0.006230
17.910	-0.006256
17.915	-0.006228
17.920	-0.006249
17.925	-0.006284
17.930	-0.006298
17.935	-0.006297
17.940	-0.006312
17.945	-0.006312
17.950	-0.006327
17.955	-0.006300
17.960	-0.006298
17.965	-0.006318
17.970	-0.006334
17.975	-0.006320
17.980	-0.006327
17.985	-0.006368
17.990	-0.006376
17.995	-0.006348
18.000	-0.006356
18.005	-0.006424
18.010	-0.006397
18.015	-0.006404
18.020	-0.006399
18.025	-0.006363
18.030	-0.006397
18.035	-0.006397
18.040	-0.006383
18.045	-0.006425
18.050	-0.006454
18.055	-0.006453
18.060	-0.006439
18.065	-0.006453
18.070	-0.006433
18.075	-0.006453
18.080	-0.006468
18.085	-0.006470
18.090	-0.006483
18.095	-0.006509
18.100	-0.006475
18.105	-0.006496
18.110	-0.006503
18.115	-0.006510
18.120	-0.006503
18.125	-0.006503
18.130	-0.006544
18.135	-0.006531
18.140	-0.006537
18.145	-0.006537
18.150	-0.006552
18.155	-0.006546
18.160	-0.006539
18.165	-0.006537
18.170	-0.006593
18.175	-0.006579
18.180	-0.006579
18.185	-0.006634
18.190	-0.006614
18.195	-0.006606
18.200	-0.006628
18.205	-0.006628
18.210	-0.006629
18.215	-0.006637
18.220	-0.006652
18.225	-0.006658
18.230	-0.006663
18.235	-0.006642
18.240	-0.006678
18.245	-0.006700
18.250	-0.006679
18.255	-0.006707
18.260	-0.006699
18.265	-0.006706
18.270	-0.006735
18.275	-0.006748
18.280	-0.006749
18.285	-0.006758
18.290	-0.006764
18.295	-0.006762
18.300	-0.006754
18.305	-0.006761
18.310	-0.006755
18.315	-0.006797
18.320	-0.006770
18.325	-0.006790
18.330	-0.006837
18.335	-0.006824
18.340	-0.006825
18.345	-0.006810
18.350	-0.006847
18.355	-0.006848
18.360	-0.006832
18.365	-0.006831
18.370	-0.006866
18.375	-0.006867
18.380	-0.006854
18.385	-0.006868
18.390	-0.006874
18.395	-0.006880
18.400	-0.006901
18.405	-0.006936
18.410	-0.006922
18.415	-0.006924
18.420	-0.006919
18.425	-0.006932
18.430	-0.006951
18.435	-0.006971
18.440	-0.006992
18.445	-0.006958
18.450	-0.006987
18.455	-0.007000
18.460	-0.007001
18.465	-0.006986
18.470	-0.007021
18.475	-0.007001
18.480	-0.007030
18.485	-0.007039
18.490	-0.007046
18.495	-0.007066
18.500	-0.007066
18.505	-0.007053
18.510	-0.007081
18.515	-0.007074
18.520	-0.007074
18.525	-0.007095
18.530	-0.007117
18.535	-0.007145
18.540	-0.007104
18.545	-0.007139
18.550	-0.007112
18.555	-0.007120
18.560	-0.007154
18.565	-0.007160
18.570	-0.007140
18.575	-0.007153
18.580	-0.007161
18.585	-0.007216
18.590	-0.007188
18.595	-0.007202
18.600	-0.007202
18.605	-0.007202
18.610	-0.007230
18.615	-0.007231
18.620	-0.007211
18.625	-0.007238
18.630	-0.007222
18.635	-0.007258
18.640	-0.007272
18.645	-0.007279
18.650	-0.007293
18.655	-0.007336
18.660	-0.007323
18.665	-0.007295
18.670	-0.007330
18.675	-0.007337
18.680	-0.007330
18.685	-0.007374
18.690	-0.007340
18.695	-0.007380
18.700	-0.007372
18.705	-0.007393
18.710	-0.007394
18.715	-0.007401
18.720	-0.007386
18.725	-0.007421
18.730	-0.007427
18.735	-0.007455
18.740	-0.007442
18.745	-0.007434
18.750	-0.007457
18.755	-0.007457
18.760	-0.007456
18.765	-0.007462
18.770	-0.007498
18.775	-0.007498
18.780	-0.007505
18.785	-0.007539
18.790	-0.007519
18.795	-0.007512
18.800	-0.007553
18.805	-0.007574
18.810	-0.007582
18.815	-0.007549
18.820	-0.007565
18.825	-0.007607
18.830	-0.007598
18.835	-0.007625
18.840	-0.007591
18.845	-0.007660
18.850	-0.007626
18.855	-0.007625
18.860	-0.007674
18.865	-0.007661
18.870	-0.007690
18.875	-0.007684
18.880	-0.007672
18.885	-0.007689
18.890	-0.007695
18.895	-0.007729
18.900	-0.007731
18.905	-0.007745
18.910	-0.007754
18.915	-0.007769
18.920	-0.007755
18.925	-0.007782
18.930	-0.007761
18.935	-0.007797
18.940	-0.007803
18.945	-0.007780
18.950	-0.007802
18.955	-0.007824
18.960	-0.007831
18.965	-0.007843
18.970	-0.007844
18.975	-0.007851
18.980	-0.007853
18.985	-0.007906
18.990	-0.007882
18.995	-0.007894
19.000	-0.007880
19.005	-0.007906
19.010	-0.007913
19.015	-0.007926
19.020	-0.007975
19.025	-0.007953
19.030	-0.007925
19.035	-0.007973
19.040	-0.007966
19.045	-0.007973
19.050	-0.007994
19.055	-0.008055
19.060	-0.008076
19.065	-0.008048
19.070	-0.008075
19.075	-0.008088
19.080	-0.008082
19.085	-0.008064
19.090	-0.008085
19.095	-0.008117
19.100	-0.008116
19.105	-0.008122
19.110	-0.008177
19.115	-0.008136
19.120	-0.008171
19.125	-0.008186
19.130	-0.008220
19.135	-0.008172
19.140	-0.008227
19.145	-0.008235
19.150	-0.008250
19.155	-0.008252
19.160	-0.008258
19.165	-0.008297
19.170	-0.008311
19.175	-0.008283
19.180	-0.008304
19.185	-0.008311
19.190	-0.008285
19.195	-0.008355
19.200	-0.008370
19.205	-0.008371
19.210	-0.008434
19.215	-0.008402
19.220	-0.008398
19.225	-0.008425
19.230	-0.008459
19.235	-0.008467
19.240	-0.008462
19.245	-0.008477
19.250	-0.008486
19.255	-0.008514
19.260	-0.008523
19.265	-0.008565
19.270	-0.008537
19.275	-0.008557
19.280	-0.008585
19.285	-0.008573
19.290	-0.008600
19.295	-0.008598
19.300	-0.008596
19.305	-0.008617
19.310	-0.008618
19.315	-0.008639
19.320	-0.008618
19.325	-0.008631
19.330	-0.008658
19.335	-0.008678
19.340	-0.008705
19.345	-0.008677
19.350	-0.008727
19.355	-0.008712
19.360	-0.008731
19.365	-0.008729
19.370	-0.008762
19.375	-0.008746
19.380	-0.008773
19.385	-0.008801
19.390	-0.008786
19.395	-0.008799
19.400	-0.008814
19.405	-0.008813
19.410	-0.008855
19.415	-0.008878
19.420	-0.008879
19.425	-0.008899
19.430	-0.008932
19.435	-0.008904
19.440	-0.008952
19.445	-0.008959
19.450	-0.008958
19.455	-0.008972
19.460	-0.008967
19.465	-0.009007
19.470	-0.009050
19.475	-0.009064
19.480	-0.009043
19.485	-0.009031
19.490	-0.009053
19.495	-0.009117
19.500	-0.009103
19.505	-0.009071
19.510	-0.009113
19.515	-0.009148
19.520	-0.009150
19.525	-0.009150
19.530	-0.009186
19.535	-0.009208
19.540	-0.009250
19.545	-0.009250
19.550	-0.009275
19.555	-0.009248
19.560	-0.009266
19.565	-0.009307
19.570	-0.009280
19.575	-0.009301
19.580	-0.009315
19.585	-0.009322
19.590	-0.009352
19.595	-0.009346
19.600	-0.009360
19.605	-0.009382
19.610	-0.009397
19.615	-0.009440
19.620	-0.009421
19.625	-0.009456
19.630	-0.009444
19.635	-0.009475
19.640	-0.009507
19.645	-0.009502
19.650	-0.009515
19.655	-0.009555
19.660	-0.009555
19.665	-0.009590
19.670	-0.009536
19.675	-0.009601
19.680	-0.009603
19.685	-0.009627
19.690	-0.009629
19.695	-0.009675
19.700	-0.009682
19.705	-0.009704
19.710	-0.009700
19.715	-0.009749
19.720	-0.009749
19.725	-0.009728
19.730	-0.009799
19.735	-0.009800
19.740	-0.009829
19.745	-0.009863
19.750	-0.009873
19.755	-0.009894
19.760	-0.009884
19.765	-0.009905
19.770	-0.009920
19.775	-0.009962
19.780	-0.009974
19.785	-0.010008
19.790	-0.010031
19.795	-0.010047
19.800	-0.010023
19.805	-0.010073
19.810	-0.010116
19.815	-0.010097
19.820	-0.010118
19.825	-0.010172
19.830	-0.010192
19.835	-0.010180
19.840	-0.010188
19.845	-0.010224
19.850	-0.010238
19.855	-0.010278
19.860	-0.010301
19.865	-0.010302
19.870	-0.010371
19.875	-0.010369
19.880	-0.010370
19.885	-0.010392
19.890	-0.010403
19.895	-0.010405
19.900	-0.010424
19.905	-0.010490
19.910	-0.010461
19.915	-0.010536
19.920	-0.010528
19.925	-0.010518
19.930	-0.010552
19.935	-0.010576
19.940	-0.010602
19.945	-0.010622
19.950	-0.010661
19.955	-0.010695
19.960	-0.010707
19.965	-0.010697
19.970	-0.010740
19.975	-0.010773
19.980	-0.010760
19.985	-0.010808
19.990	-0.010821
19.995	-0.010855
20.000	-0.010869
20.005	-0.010903
20.010	-0.010895
20.015	-0.010959
20.020	-0.010947
20.025	-0.010954
20.030	-0.010999
20.035	-0.011075
20.040	-0.011056
20.045	-0.011071
20.050	-0.011113
20.055	-0.011120
20.060	-0.011155
20.065	-0.011170
20.070	-0.011198
20.075	-0.011219
20.080	-0.011228
20.085	-0.011296
20.090	-0.011324
20.095	-0.011320
20.100	-0.011391
20.105	-0.011399
20.110	-0.011391
20.115	-0.011454
20.120	-0.011461
20.125	-0.011469
20.130	-0.011469
20.135	-0.011512
20.140	-0.011555
20.145	-0.011568
20.150	-0.011629
20.155	-0.011600
20.160	-0.011633
20.165	-0.011673
20.170	-0.011676
20.175	-0.011732
20.180	-0.011776
20.185	-0.011804
20.190	-0.011821
20.195	-0.011835
20.200	-0.011873
20.205	-0.011938
20.210	-0.011941
20.215	-0.011959
20.220	-0.011976
20.225	-0.012009
20.230	-0.012046
20.235	-0.012084
20.240	-0.012081
20.245	-0.012138
20.250	-0.012160
20.255	-0.012204
20.260	-0.012165
20.265	-0.012243
20.270	-0.012290
20.275	-0.012294
20.280	-0.012295
20.285	-0.012337
20.290	-0.012371
20.295	-0.012436
20.300	-0.012429
20.305	-0.012499
20.310	-0.012526
20.315	-0.012562
20.320	-0.012571
20.325	-0.012600
20.330	-0.012650
20.335	-0.012694
20.340	-0.012732
20.345	-0.012763
20.350	-0.012795
20.355	-0.012835
20.360	-0.012836
20.365	-0.012888
20.370	-0.012902
20.375	-0.012987
20.380	-0.012999
20.385	-0.013003
20.390	-0.013047
20.395	-0.013092
20.400	-0.013140
20.405	-0.013185
20.410	-0.013202
20.415	-0.013255
20.420	-0.013289
20.425	-0.013332
20.430	-0.013349
20.435	-0.013388
20.440	-0.013466
20.445	-0.013490
20.450	-0.013498
20.455	-0.013580
20.460	-0.013619
20.465	-0.013656
20.470	-0.013716
20.475	-0.013743
20.480	-0.013797
20.485	-0.013872
20.490	-0.013943
20.495	-0.013967
20.500	-0.014011
20.505	-0.014051
20.510	-0.014099
20.515	-0.014147
20.520	-0.014131
20.525	-0.014201
20.530	-0.014212
20.535	-0.014286
20.540	-0.014325
20.545	-0.014376
20.550	-0.014427
20.555	-0.014457
20.560	-0.014503
20.565	-0.014550
20.570	-0.014574
20.575	-0.014617
20.580	-0.014677
20.585	-0.014672
20.590	-0.014750
20.595	-0.014788
20.600	-0.014835
20.605	-0.014870
20.610	-0.014918
20.615	-0.014992
20.620	-0.015031
20.625	-0.015107
20.630	-0.015184
20.635	-0.015204
20.640	-0.015286
20.645	-0.015354
20.650	-0.015421
20.655	-0.015503
20.660	-0.015546
20.665	-0.015572
20.670	-0.015663
20.675	-0.015737
20.680	-0.015782
20.685	-0.015845
20.690	-0.015916
20.695	-0.016004
20.700	-0.016029
20.705	-0.016101
20.710	-0.016142
20.715	-0.016213
20.720	-0.016306
20.725	-0.016367
20.730	-0.016433
20.735	-0.016475
20.740	-0.016558
20.745	-0.016621
20.750	-0.016673
20.755	-0.016726
20.760	-0.016811
20.765	-0.016862
20.770	-0.016994
20.775	-0.017123
20.780	-0.017185
20.785	-0.017281
20.790	-0.017384
20.795	-0.017479
20.800	-0.017556
20.805	-0.017645
20.810	-0.017751
20.815	-0.017822
20.820	-0.017906
20.825	-0.017996
20.830	-0.018099
20.835	-0.018181
20.840	-0.018304
20.845	-0.018382
20.850	-0.018499
20.855	-0.018557
20.860	-0.018664
20.865	-0.018773
20.870	-0.018865
20.875	-0.018971
20.880	-0.019090
20.885	-0.019203
20.890	-0.019353
20.895	-0.019458
20.900	-0.019543
20.905	-0.019650
20.910	-0.019729
20.915	-0.019782
20.920	-0.019881
20.925	-0.019988
20.930	-0.020088
20.935	-0.020175
20.940	-0.020300
20.945	-0.020455
20.950	-0.020597
20.955	-0.020740
20.960	-0.020837
20.965	-0.020945
20.970	-0.021097
20.975	-0.021256
20.980	-0.021339
20.985	-0.021471
20.990	-0.021555
20.995	-0.021680
21.000	-0.021891
21.005	-0.022081
21.010	-0.022215
21.015	-0.022384
21.020	-0.022482
21.025	-0.022674
21.030	-0.022893
21.035	-0.023062
21.040	-0.023263
21.045	-0.023509
21.050	-0.023714
21.055	-0.023955
21.060	-0.024162
21.065	-0.024296
21.070	-0.024449
21.075	-0.024717
21.080	-0.025018
21.085	-0.025224
21.090	-0.025434
21.095	-0.025666
21.100	-0.025914
21.105	-0.026194
21.110	-0.026553
21.115	-0.026814
21.120	-0.027026
21.125	-0.027354
21.130	-0.027720
21.135	-0.028119
21.140	-0.028476
21.145	-0.028874
21.150	-0.029078
21.155	-0.029236
21.160	-0.029627
21.165	-0.029880
21.170	-0.030123
21.175	-0.030772
21.180	-0.031270
21.185	-0.031740
21.190	-0.032339
21.195	-0.032884
21.200	-0.033353
21.205	-0.034036
21.210	-0.034607
21.215	-0.035038
21.220	-0.035664
21.225	-0.036685
21.230	-0.037543
21.235	-0.038601
21.240	-0.039559
21.245	-0.039715
21.250	-0.040628
21.255	-0.042379
21.260	-0.042925
21.265	-0.043812
21.270	-0.044941
21.275	-0.046172
21.280	-0.047266
21.285	-0.047871
21.290	-0.047962
21.295	-0.047902
21.300	-0.047645
21.305	-0.046795
21.310	-0.045368
21.315	-0.043286
21.320	-0.040605
21.325	-0.037246
21.330	-0.033383
21.335	-0.029429
21.340	-0.025539
21.345	-0.021492
21.350	-0.017004
21.355	-0.012345
21.360	-0.008275
21.365	-0.005088
21.370	-0.002965
21.375	-0.001598
21.380	-0.000848
21.385	-0.000474
21.390	-0.000271
21.395	-0.000162
21.400	-0.000101
21.405	-0.000095
21.410	-0.000061
21.415	-0.000047
21.420	-0.000020
21.425	0.000000
21.430	-0.000014
21.435	0.000000
21.440	-0.000007
21.445	0.000014
21.450	0.000014
21.455	0.000014
21.460	0.000014
21.465	0.000020
21.470	-0.000014
21.475	-0.000000
21.480	0.000014
21.485	0.000028
21.490	0.000014
21.495	0.000013
21.500	-0.000007
21.505	0.000040
21.510	0.000034
21.515	0.000027
21.520	0.000006
21.525	0.000027
21.530	0.000006
21.535	0.000020
21.540	0.000013
21.545	0.000040
21.550	0.000020
21.555	0.000020
21.560	0.000013
21.565	0.000026
21.570	0.000054
21.575	0.000040
21.580	0.000060
21.585	0.000054
21.590	0.000006
21.595	0.000060
21.600	0.000033
21.605	-0.000008
21.610	0.000006
21.615	0.000047
21.620	0.000013
21.625	0.000026
21.630	0.000040
21.635	0.000026
21.640	0.000074
21.645	0.000060
21.650	0.000046
21.655	0.000046
21.660	0.000026
21.665	0.000033
21.670	0.000046
21.675	0.000032
21.680	0.000053
21.685	0.000033
21.690	0.000019
21.695	0.000046
21.700	0.000060
21.705	0.000026
21.710	0.000046
21.715	0.000039
21.720	0.000060
21.725	0.000026
21.730	0.000053
21.735	0.000032
21.740	0.000046
21.745	0.000060
21.750	0.000053
21.755	0.000019
21.760	0.000032
21.765	0.000032
21.770	0.000039
21.775	0.000066
21.780	0.000052
21.785	0.000073
21.790	0.000066
21.795	0.000052
21.800	0.000052
21.805	0.000039
21.810	0.000032
21.815	0.000053
21.820	0.000039
21.825	0.000045
21.830	0.000052
21.835	0.000052
21.840	0.000052
21.845	0.000052
21.850	0.000039
21.855	0.000045
21.860	0.000052
21.865	0.000072
21.870	0.000038
21.875	0.000038
21.880	0.000032
21.885	0.000039
21.890	0.000072
21.895	0.000031
21.900	0.000052
21.905	0.000058
21.910	0.000045
21.915	0.000024
21.920	0.000045
21.925	0.000038
21.930	0.000024
21.935	0.000017
21.940	0.000017
21.945	0.000018
21.950	0.000059
21.955	0.000031
21.960	0.000031
21.965	0.000058
21.970	0.000058
21.975	0.000058
21.980	0.000031
21.985	0.000045
21.990	0.000065
21.995	0.000071
22.000	0.000024
22.005	0.000044
22.010	0.000017
22.015	0.000058
22.020	0.000038
22.025	0.000058
22.030	0.000037
22.035	0.000058
22.040	0.000078
22.045	0.000057
22.050	0.000044
22.055	0.000044
22.060	0.000037
22.065	0.000057
22.070	0.000037
22.075	0.000044
22.080	0.000051
22.085	0.000051
22.090	0.000057
22.095	0.000064
22.100	0.000064
22.105	0.000050
22.110	0.000030
22.115	0.000051
22.120	0.000050
22.125	0.000043
22.130	0.000030
22.135	0.000037
22.140	0.000057
22.145	0.000037
22.150	0.000044
22.155	0.000050
22.160	0.000023
22.165	0.000064
22.170	0.000043
22.175	0.000043
22.180	0.000064
22.185	0.000063
22.190	0.000043
22.195	0.000077
22.200	0.000029
22.205	0.000036
22.210	0.000057
22.215	0.000043
22.220	0.000043
22.225	0.000050
22.230	0.000043
22.235	0.000029
22.240	0.000050
22.245	0.000036
22.250	0.000056
22.255	0.000043
22.260	0.000049
22.265	0.000029
22.270	0.000049
22.275	0.000029
22.280	0.000036
22.285	0.000050
22.290	0.000029
22.295	0.000008
22.300	0.000049
22.305	0.000015
22.310	0.000036
22.315	0.000042
22.320	0.000029
22.325	0.000029
22.330	0.000069
22.335	0.000022
22.340	0.000063
22.345	0.000022
22.350	0.000043
22.355	0.000029
22.360	0.000015
22.365	0.000062
22.370	0.000049
22.375	0.000049
22.380	0.000035
22.385	0.000042
22.390	0.000042
22.395	0.000042
22.400	0.000042
22.405	0.000055
22.410	0.000042
22.415	0.000036
22.420	0.000036
22.425	0.000035
22.430	0.000055
22.435	0.000055
22.440	0.000035
22.445	0.000035
22.450	0.000062
22.455	0.000021
22.460	0.000014
22.465	0.000034
22.470	0.000055
22.475	0.000048
22.480	0.000056
22.485	0.000076
22.490	0.000048
22.495	0.000021
22.500	0.000034
22.505	0.000028
22.510	0.000028
22.515	0.000048
22.520	0.000041
22.525	0.000041
22.530	0.000041
22.535	0.000041
22.540	0.000027
22.545	0.000021
22.550	0.000015
22.555	0.000035
22.560	0.000027
22.565	0.000041
22.570	0.000041
22.575	0.000047
22.580	0.000027
22.585	0.000027
22.590	0.000047
22.595	0.000054
22.600	0.000020
22.605	0.000048
22.610	0.000034
22.615	0.000021
22.620	0.000014
22.625	0.000047
22.630	0.000027
22.635	0.000034
22.640	0.000041
22.645	0.000013
22.650	0.000034
22.655	0.000054
22.660	0.000054
22.665	0.000027
22.670	0.000047
22.675	0.000033
22.680	0.000034
22.685	0.000027
22.690	0.000040
22.695	0.000040
22.700	0.000026
22.705	0.000020
22.710	0.000054
22.715	0.000053
22.720	0.000013
22.725	0.000033
22.730	0.000006
22.735	0.000013
22.740	0.000020
22.745	0.000006
22.750	0.000034
22.755	0.000013
22.760	0.000033
22.765	0.000012
22.770	0.000060
22.775	0.000040
22.780	0.000053
22.785	0.000013
22.790	0.000053
22.795	0.000006
22.800	0.000039
22.805	0.000067
22.810	0.000006
22.815	0.000026
22.820	0.000026
22.825	0.000033
22.830	0.000033
22.835	0.000053
22.840	0.000040
22.845	0.000053
22.850	0.000039
22.855	0.000019
22.860	0.000046
22.865	0.000059
22.870	0.000012
22.875	0.000032
22.880	0.000026
22.885	0.000026
22.890	0.000039
22.895	0.000019
22.900	0.000039
22.905	0.000025
22.910	0.000039
22.915	-0.000009
22.920	0.000032
22.925	0.000053
22.930	0.000019
22.935	0.000046
22.940	0.000032
22.945	0.000012
22.950	0.000026
22.955	0.000019
22.960	0.000052
22.965	0.000045
22.970	0.000005
22.975	0.000025
22.980	0.000018
22.985	0.000025
22.990	0.000011
22.995	0.000018
23.000	-0.000009
23.005	0.000011
23.010	0.000025
23.015	0.000066
23.020	0.000005
23.025	0.000031
23.030	0.000018
23.035	0.000045
23.040	0.000025
23.045	0.000045
23.050	0.000032
23.055	0.000018
23.060	0.000018
23.065	0.000004
23.070	0.000031
23.075	0.000024
23.080	0.000039
23.085	0.000046
23.090	0.000038
23.095	0.000038
23.100	0.000072
23.105	0.000024
23.110	0.000018
23.115	0.000017
23.120	0.000038
23.125	0.000011
23.130	0.000031
23.135	0.000011
23.140	0.000017
23.145	0.000032
23.150	0.000025
23.155	0.000031
23.160	0.000031
23.165	0.000024
23.170	0.000031
23.175	0.000038
23.180	0.000011
23.185	0.000017
23.190	0.000017
23.195	0.000024
23.200	0.000031
23.205	0.000017
23.210	0.000017
23.215	0.000031
23.220	0.000018
23.225	0.000024
23.230	0.000037
23.235	0.000044
23.240	0.000017
23.245	0.000024
23.250	0.000057
23.255	0.000024
23.260	0.000017
23.265	0.000017
23.270	0.000017
23.275	0.000030
23.280	0.000031
23.285	0.000038
23.290	0.000037
23.295	0.000010
23.300	0.000010
23.305	0.000037
23.310	0.000017
23.315	0.000010
23.320	0.000017
23.325	0.000017
23.330	0.000023
23.335	0.000003
23.340	0.000030
23.345	0.000030
23.350	0.000024
23.355	0.000044
23.360	0.000043
23.365	0.000016
23.370	0.000044
23.375	0.000009
23.380	0.000037
23.385	0.000009
23.390	0.000036
23.395	0.000002
23.400	0.000043
23.405	0.000016
23.410	0.000023
23.415	0.000010
23.420	0.000050
23.425	0.000022
23.430	-0.000005
23.435	-0.000005
23.440	0.000030
23.445	0.000009
23.450	0.000036
23.455	-0.000005
23.460	0.000029
23.465	0.000016
23.470	0.000016
23.475	0.000015
23.480	0.000016
23.485	0.000016
23.490	0.000002
23.495	-0.000005
23.500	0.000036
23.505	0.000009
23.510	0.000043
23.515	0.000036
23.520	0.000002
23.525	0.000022
23.530	0.000022
23.535	0.000008
23.540	0.000002
23.545	0.000022
23.550	0.000036
23.555	0.000042
23.560	0.000063
23.565	0.000035
23.570	0.000008
23.575	0.000008
23.580	0.000022
23.585	0.000035
23.590	0.000008
23.595	0.000035
23.600	0.000042
23.605	0.000001
23.610	0.000056
23.615	0.000029
23.620	0.000022
23.625	0.000035
23.630	0.000042
23.635	0.000014
23.640	0.000035
23.645	0.000008
23.650	0.000028
23.655	0.000035
23.660	0.000008
23.665	0.000021
23.670	0.000014
23.675	-0.000006
23.680	0.000022
23.685	0.000022
23.690	0.000028
23.695	0.000028
23.700	0.000028
23.705	0.000041
23.710	0.000007
23.715	0.000035
23.720	0.000008
23.725	0.000008
23.730	0.000014
23.735	0.000014
23.740	0.000034
23.745	0.000008
23.750	0.000035
23.755	0.000042
23.760	0.000021
23.765	0.000041
23.770	0.000014
23.775	0.000027
23.780	0.000034
23.785	0.000014
23.790	0.000027
23.795	0.000020
23.800	0.000007
23.805	0.000000
23.810	0.000021
23.815	0.000001
23.820	-0.000013
23.825	0.000041
23.830	0.000014
23.835	-0.000007
23.840	0.000041
23.845	0.000007
23.850	0.000014
23.855	0.000034
23.860	0.000000
23.865	0.000034
23.870	0.000034
23.875	0.000034
23.880	0.000014
23.885	0.000028
23.890	-0.000000
23.895	0.000033
23.900	0.000013
23.905	0.000020
23.910	0.000020
23.915	0.000034
23.920	0.000054
23.925	0.000013
23.930	0.000020
23.935	0.000020
23.940	0.000027
23.945	0.000034
23.950	0.000027
23.955	0.000013
23.960	0.000033
23.965	0.000013
23.970	0.000013
23.975	0.000020
23.980	-0.000001
23.985	-0.000008
23.990	0.000006
23.995	0.000020
24.000	0.000033
24.005	0.000019
24.010	0.000006
24.015	0.000007
24.020	-0.000000
24.025	-0.000008
24.030	0.000012
24.035	0.000012
24.040	0.000026
24.045	0.000019
24.050	0.000026
24.055	0.000033
24.060	0.000019
24.065	0.000006
24.070	0.000019
24.075	0.000026
24.080	0.000033
24.085	0.000026
24.090	0.000005
24.095	0.000026
24.100	0.000019
24.105	0.000019
24.110	0.000026
24.115	0.000039
24.120	0.000046
24.125	0.000032
24.130	-0.000002
24.135	0.000019
24.140	0.000026
24.145	-0.000001
24.150	-0.000015
24.155	0.000005
24.160	0.000019
24.165	0.000012
24.170	0.000019
24.175	0.000005
24.180	0.000012
24.185	-0.000002
24.190	0.000005
24.195	0.000045
24.200	0.000005
24.205	0.000011
24.210	-0.000008
24.215	0.000046
24.220	-0.000009
24.225	0.000025
24.230	0.000025
24.235	-0.000002
24.240	0.000032
24.245	0.000032
24.250	-0.000002
24.255	0.000032
24.260	0.000011
24.265	0.000005
24.270	-0.000002
24.275	0.000018
24.280	-0.000022
24.285	-0.000002
24.290	0.000025
24.295	-0.000003
24.300	0.000018
24.305	0.000011
24.310	-0.000009
24.315	0.000011
24.320	-0.000003
24.325	0.000038
24.330	0.000018
24.335	-0.000003
24.340	-0.000003
24.345	0.000011
24.350	0.000032
24.355	0.000038
24.360	0.000031
24.365	0.000038
24.370	0.000011
24.375	0.000004
24.380	0.000011
24.385	0.000018
24.390	0.000004
24.395	0.000011
24.400	0.000017
24.405	0.000011
24.410	0.000025
24.415	0.000032
24.420	-0.000009
24.425	0.000024
24.430	0.000024
24.435	-0.000003
24.440	0.000038
24.445	0.000051
24.450	0.000010
24.455	0.000024
24.460	0.000003
24.465	-0.000017
24.470	-0.000017
24.475	-0.000017
24.480	0.000018
24.485	-0.000003
24.490	0.000010
24.495	0.000010
24.500	-0.000017
24.505	0.000024
24.510	0.000010
24.515	0.000037
24.520	0.000024
24.525	0.000010
24.530	0.000010
24.535	-0.000004
24.540	0.000010
24.545	0.000024
24.550	0.000024
24.555	-0.000004
24.560	0.000044
24.565	0.000010
24.570	0.000016
24.575	0.000023
24.580	0.000023
24.585	-0.000004
24.590	0.000023
24.595	0.000016
24.600	0.000010
24.605	0.000030
24.610	0.000010
24.615	0.000003
24.620	0.000003
24.625	0.000030
24.630	0.000030
24.635	0.000009
24.640	0.000009
24.645	0.000030
24.650	0.000030
24.655	0.000023
24.660	0.000016
24.665	0.000023
24.670	0.000016
24.675	0.000009
24.680	-0.000024
24.685	0.000023
24.690	0.000023
24.695	0.000016
24.700	-0.000018
24.705	0.000029
24.710	0.000023
24.715	0.000002
24.720	0.000002
24.725	0.000002
24.730	0.000009
24.735	0.000008
24.740	0.000009
24.745	0.000057
24.750	-0.000011
24.755	0.000015
24.760	0.000009
24.765	0.000015
24.770	0.000002
24.775	0.000029
24.780	-0.000005
24.785	0.000008
24.790	0.000022
24.795	0.000008
24.800	0.000029
24.805	0.000015
24.810	0.000002
24.815	-0.000005
24.820	0.000029
24.825	0.000008
24.830	0.000008
24.835	-0.000012
24.840	0.000001
24.845	0.000001
24.850	0.000028
24.855	-0.000006
24.860	0.000028
24.865	-0.000013
24.870	0.000015
24.875	0.000042
24.880	0.000002
24.885	0.000015
24.890	0.000021
24.895	0.000021
24.900	0.000035
24.905	-0.000026
24.910	0.000008
24.915	0.000021
24.920	0.000008
24.925	0.000021
24.930	0.000008
24.935	0.000028
24.940	0.000014
24.945	0.000022
24.950	0.000022
24.955	0.000021
24.960	0.000021
24.965	0.000021
24.970	0.000021
24.975	0.000021
24.980	0.000014
24.985	0.000041
24.990	-0.000013
24.995	0.000021
25.000	-0.000013
25.005	-0.000013
25.010	0.000028
25.015	0.000001
25.020	0.000007
25.025	0.000034
25.030	-0.000020
25.035	0.000000
25.040	0.000034
25.045	0.000007
25.050	0.000007
25.055	0.000007
25.060	0.000007
25.065	-0.000007
25.070	0.000000
25.075	0.000028
25.080	0.000001
25.085	-0.000006
25.090	-0.000007
25.095	0.000007
25.100	0.000013
25.105	0.000007
25.110	-0.000000
25.115	0.000006
25.120	-0.000000
25.125	0.000006
25.130	0.000006
25.135	-0.000000
25.140	-0.000000
25.145	-0.000007
25.150	0.000007
25.155	0.000027
25.160	0.000006
25.165	0.000020
25.170	-0.000028
25.175	0.000013
25.180	0.000006
25.185	0.000034
25.190	-0.000001
25.195	-0.000014
25.200	-0.000001
25.205	0.000006
25.210	-0.000007
25.215	-0.000014
25.220	-0.000021
25.225	0.000026
25.230	0.000013
25.235	0.000006
25.240	0.000006
25.245	0.000020
25.250	0.000006
25.255	0.000019
25.260	0.000019
25.265	0.000012
25.270	0.000006
25.275	0.000033
25.280	-0.000001
25.285	0.000006
25.290	0.000012
25.295	0.000019
25.300	-0.000001
25.305	0.000033
25.310	-0.000008
25.315	0.000006
25.320	-0.000015
25.325	0.000026
25.330	-0.000008
25.335	-0.000001
25.340	0.000012
25.345	-0.000008
25.350	0.000026
25.355	0.000026
25.360	0.000039
25.365	0.000039
25.370	0.000012
25.375	0.000012
25.380	-0.000002
25.385	0.000018
25.390	0.000012
25.395	0.000005
25.400	0.000025
25.405	0.000005
25.410	-0.000008
25.415	0.000026
25.420	0.000005
25.425	-0.000016
25.430	0.000025
25.435	-0.000002
25.440	0.000005
25.445	0.000012
25.450	0.000012
25.455	0.000011
25.460	0.000018
25.465	0.000011
25.470	0.000025
25.475	0.000039
25.480	0.000005
25.485	0.000025
25.490	-0.000002
25.495	-0.000009
25.500	0.000018
25.505	0.000011
25.510	0.000018
25.515	0.000011
25.520	-0.000003
25.525	0.000018
25.530	-0.000016
25.535	-0.000016
25.540	0.000031
25.545	-0.000009
25.550	-0.000009
25.555	0.000018
25.560	0.000011
25.565	0.000011
25.570	0.000018
25.575	-0.000003
25.580	0.000018
25.585	-0.000003
25.590	0.000024
25.595	-0.000003
25.600	-0.000003
25.605	0.000010
25.610	-0.000016
25.615	-0.000003
25.620	0.000011
25.625	-0.000003
25.630	0.000003
25.635	-0.000024
25.640	-0.000010
25.645	-0.000003
25.650	0.000031
25.655	0.000010
25.660	-0.000024
25.665	0.000010
25.670	0.000010
25.675	-0.000003
25.680	0.000017
25.685	0.000010
25.690	-0.000003
25.695	0.000030
25.700	0.000024
25.705	0.000003
25.710	-0.000017
25.715	0.000024
25.720	-0.000010
25.725	-0.000024
25.730	0.000030
25.735	-0.000017
25.740	0.000003
25.745	0.000010
25.750	0.000031
25.755	0.000030
25.760	0.000010
25.765	0.000009
25.770	0.000023
25.775	0.000010
25.780	0.000009
25.785	0.000023
25.790	-0.000011
25.795	0.000009
25.800	-0.000004
25.805	0.000002
25.810	-0.000017
25.815	-0.000004
25.820	0.000003
25.825	0.000016
25.830	0.000003
25.835	-0.000032
25.840	-0.000032
25.845	0.000003
25.850	0.000002
25.855	-0.000018
25.860	0.000016
25.865	-0.000018
25.870	-0.000011
25.875	-0.000011
25.880	0.000030
25.885	-0.000031
25.890	0.000023
25.895	0.000002
25.900	0.000029
25.905	0.000009
25.910	0.000022
25.915	0.000022
25.920	0.000009
25.925	0.000008
25.930	0.000029
25.935	0.000036
25.940	-0.000012
25.945	0.000009
25.950	0.000009
25.955	0.000015
25.960	-0.000005
25.965	-0.000012
25.970	0.000002
25.975	0.000022
25.980	0.000015
25.985	0.000015
25.990	-0.000026
25.995	0.000008
26.000	0.000001
26.005	0.000029
26.010	0.000002
26.015	0.000002
26.020	0.000009
26.025	-0.000005
26.030	-0.000012
26.035	-0.000006
26.040	-0.000006
26.045	0.000008
26.050	-0.000006
26.055	0.000001
26.060	-0.000013
26.065	0.000001
26.070	0.000028
26.075	0.000001
26.080	0.000015
26.085	0.000008
26.090	-0.000006
26.095	-0.000006
26.100	0.000015
26.105	0.000021
26.110	0.000008
26.115	0.000008
26.120	-0.000006
26.125	0.000001
26.130	0.000021
26.135	-0.000006
26.140	0.000008
26.145	0.000022
26.150	-0.000019
26.155	-0.000006
26.160	0.000014
26.165	0.000014
26.170	0.000007
26.175	0.000007
26.180	0.000000
26.185	0.000014
26.190	-0.000020
26.195	-0.000006
26.200	0.000021
26.205	0.000014
26.210	0.000008
26.215	0.000021
26.220	0.000000
26.225	0.000000
26.230	-0.000020
26.235	0.000021
26.240	0.000007
26.245	0.000007
26.250	0.000007
26.255	0.000007
26.260	0.000014
26.265	0.000021
26.270	-0.000027
26.275	-0.000006
26.280	0.000014
26.285	-0.000041
26.290	0.000027
26.295	0.000007
26.300	0.000027
26.305	0.000020
26.310	0.000007
26.315	-0.000021
26.320	0.000013
26.325	0.000006
26.330	0.000006
26.335	0.000013
