PK2650 Deflection Data
Z Position (mm)	105.000	W Position (deg)	72.00
Preform ID	Diameter (mm)	Time Stamp	Start Time	Operator	Serial Number
Test 1	25	03-Nov-22 18:05:01	03-Nov-22 18:06:49	[no user]	266007708
Radius (mm)	Deflection
-26.370	-0.000005
-26.365	0.000035
-26.360	-0.000006
-26.355	0.000002
-26.350	0.000015
-26.345	-0.000019
-26.340	0.000035
-26.335	-0.000006
-26.330	0.000002
-26.325	0.000015
-26.320	-0.000019
-26.315	0.000001
-26.310	-0.000013
-26.305	0.000014
-26.300	0.000014
-26.295	-0.000006
-26.290	0.000014
-26.285	0.000008
-26.280	0.000008
-26.275	0.000035
-26.270	0.000007
-26.265	0.000014
-26.260	-0.000012
-26.255	0.000001
-26.250	-0.000027
-26.245	0.000000
-26.240	0.000020
-26.235	0.000007
-26.230	0.000007
-26.225	0.000047
-26.220	0.000034
-26.215	0.000027
-26.210	0.000007
-26.205	0.000020
-26.200	0.000007
-26.195	0.000014
-26.190	0.000007
-26.185	0.000027
-26.180	0.000006
-26.175	-0.000001
-26.170	-0.000014
-26.165	-0.000000
-26.160	0.000027
-26.155	0.000034
-26.150	0.000006
-26.145	0.000054
-26.140	0.000020
-26.135	0.000020
-26.130	0.000020
-26.125	-0.000007
-26.120	-0.000014
-26.115	-0.000014
-26.110	-0.000001
-26.105	0.000019
-26.100	0.000012
-26.095	0.000013
-26.090	-0.000008
-26.085	0.000026
-26.080	0.000019
-26.075	0.000019
-26.070	0.000046
-26.065	-0.000001
-26.060	0.000006
-26.055	-0.000014
-26.050	0.000012
-26.045	-0.000001
-26.040	0.000019
-26.035	-0.000008
-26.030	0.000005
-26.025	0.000012
-26.020	-0.000002
-26.015	0.000012
-26.010	0.000012
-26.005	0.000012
-26.000	0.000005
-25.995	-0.000015
-25.990	-0.000001
-25.985	0.000025
-25.980	0.000018
-25.975	0.000005
-25.970	0.000025
-25.965	-0.000002
-25.960	0.000005
-25.955	0.000018
-25.950	0.000025
-25.945	0.000005
-25.940	-0.000002
-25.935	0.000018
-25.930	0.000018
-25.925	-0.000042
-25.920	-0.000016
-25.915	-0.000016
-25.910	-0.000002
-25.905	-0.000002
-25.900	0.000004
-25.895	0.000004
-25.890	0.000004
-25.885	0.000025
-25.880	0.000018
-25.875	0.000011
-25.870	0.000011
-25.865	0.000004
-25.860	-0.000036
-25.855	-0.000002
-25.850	0.000004
-25.845	-0.000030
-25.840	-0.000003
-25.835	0.000004
-25.830	-0.000037
-25.825	0.000004
-25.820	0.000011
-25.815	0.000011
-25.810	0.000031
-25.805	0.000004
-25.800	0.000004
-25.795	-0.000016
-25.790	0.000004
-25.785	-0.000017
-25.780	-0.000037
-25.775	-0.000017
-25.770	-0.000017
-25.765	0.000017
-25.760	0.000017
-25.755	0.000024
-25.750	0.000024
-25.745	-0.000003
-25.740	-0.000004
-25.735	0.000030
-25.730	-0.000023
-25.725	-0.000037
-25.720	0.000003
-25.715	-0.000011
-25.710	-0.000011
-25.705	0.000037
-25.700	-0.000017
-25.695	0.000003
-25.690	0.000030
-25.685	0.000010
-25.680	0.000010
-25.675	0.000003
-25.670	0.000010
-25.665	-0.000010
-25.660	0.000004
-25.655	0.000003
-25.650	-0.000011
-25.645	-0.000018
-25.640	0.000010
-25.635	0.000023
-25.630	0.000003
-25.625	0.000023
-25.620	0.000016
-25.615	0.000023
-25.610	0.000016
-25.605	0.000009
-25.600	0.000010
-25.595	0.000003
-25.590	-0.000010
-25.585	0.000002
-25.580	0.000002
-25.575	-0.000018
-25.570	-0.000018
-25.565	0.000016
-25.560	0.000016
-25.555	0.000023
-25.550	0.000002
-25.545	0.000029
-25.540	0.000009
-25.535	-0.000018
-25.530	0.000009
-25.525	-0.000004
-25.520	-0.000038
-25.515	-0.000018
-25.510	0.000022
-25.505	0.000023
-25.500	-0.000011
-25.495	-0.000011
-25.490	0.000009
-25.485	-0.000005
-25.480	0.000022
-25.475	-0.000005
-25.470	-0.000005
-25.465	0.000016
-25.460	0.000016
-25.455	-0.000005
-25.450	-0.000019
-25.445	0.000008
-25.440	0.000008
-25.435	0.000001
-25.430	0.000015
-25.425	-0.000005
-25.420	-0.000025
-25.415	-0.000012
-25.410	0.000008
-25.405	0.000008
-25.400	0.000002
-25.395	0.000009
-25.390	-0.000045
-25.385	0.000008
-25.380	-0.000019
-25.375	-0.000012
-25.370	-0.000005
-25.365	-0.000039
-25.360	-0.000012
-25.355	0.000001
-25.350	0.000028
-25.345	-0.000026
-25.340	0.000008
-25.335	-0.000013
-25.330	0.000001
-25.325	0.000002
-25.320	-0.000019
-25.315	-0.000019
-25.310	-0.000033
-25.305	-0.000020
-25.300	-0.000006
-25.295	0.000035
-25.290	0.000001
-25.285	0.000008
-25.280	-0.000033
-25.275	0.000001
-25.270	-0.000033
-25.265	-0.000019
-25.260	-0.000005
-25.255	-0.000026
-25.250	-0.000006
-25.245	-0.000033
-25.240	-0.000020
-25.235	-0.000006
-25.230	-0.000026
-25.225	0.000007
-25.220	-0.000033
-25.215	-0.000006
-25.210	-0.000006
-25.205	0.000000
-25.200	-0.000013
-25.195	-0.000019
-25.190	-0.000006
-25.185	0.000000
-25.180	-0.000027
-25.175	-0.000027
-25.170	-0.000027
-25.165	-0.000007
-25.160	-0.000027
-25.155	-0.000027
-25.150	-0.000034
-25.145	-0.000007
-25.140	-0.000013
-25.135	-0.000014
-25.130	-0.000034
-25.125	-0.000006
-25.120	-0.000034
-25.115	-0.000027
-25.110	-0.000007
-25.105	-0.000021
-25.100	-0.000014
-25.095	-0.000027
-25.090	0.000007
-25.085	-0.000021
-25.080	-0.000000
-25.075	-0.000007
-25.070	-0.000021
-25.065	-0.000007
-25.060	-0.000048
-25.055	-0.000027
-25.050	-0.000041
-25.045	-0.000028
-25.040	-0.000035
-25.035	-0.000008
-25.030	-0.000001
-25.025	-0.000014
-25.020	-0.000008
-25.015	-0.000001
-25.010	-0.000021
-25.005	-0.000021
-25.000	-0.000021
-24.995	-0.000020
-24.990	-0.000034
-24.985	-0.000048
-24.980	-0.000015
-24.975	-0.000028
-24.970	-0.000042
-24.965	-0.000035
-24.960	-0.000014
-24.955	-0.000021
-24.950	0.000013
-24.945	-0.000021
-24.940	-0.000001
-24.935	-0.000021
-24.930	-0.000014
-24.925	-0.000021
-24.920	-0.000048
-24.915	-0.000001
-24.910	-0.000001
-24.905	-0.000015
-24.900	-0.000022
-24.895	-0.000035
-24.890	-0.000015
-24.885	-0.000022
-24.880	-0.000015
-24.875	-0.000035
-24.870	-0.000008
-24.865	-0.000021
-24.860	-0.000041
-24.855	-0.000008
-24.850	-0.000062
-24.845	-0.000028
-24.840	-0.000029
-24.835	-0.000035
-24.830	-0.000022
-24.825	-0.000035
-24.820	-0.000001
-24.815	-0.000028
-24.810	-0.000015
-24.805	-0.000022
-24.800	-0.000015
-24.795	-0.000042
-24.790	-0.000028
-24.785	-0.000049
-24.780	-0.000056
-24.775	-0.000042
-24.770	-0.000042
-24.765	-0.000042
-24.760	-0.000036
-24.755	-0.000015
-24.750	-0.000035
-24.745	-0.000015
-24.740	-0.000029
-24.735	-0.000001
-24.730	-0.000028
-24.725	-0.000035
-24.720	-0.000049
-24.715	-0.000015
-24.710	-0.000036
-24.705	-0.000022
-24.700	-0.000022
-24.695	-0.000008
-24.690	-0.000002
-24.685	-0.000029
-24.680	-0.000015
-24.675	-0.000015
-24.670	-0.000009
-24.665	0.000005
-24.660	-0.000022
-24.655	-0.000015
-24.650	-0.000016
-24.645	-0.000016
-24.640	-0.000016
-24.635	-0.000009
-24.630	-0.000029
-24.625	-0.000002
-24.620	0.000012
-24.615	-0.000029
-24.610	-0.000036
-24.605	0.000005
-24.600	-0.000002
-24.595	-0.000022
-24.590	-0.000022
-24.585	-0.000016
-24.580	-0.000009
-24.575	-0.000016
-24.570	-0.000009
-24.565	-0.000002
-24.560	0.000011
-24.555	-0.000009
-24.550	0.000011
-24.545	0.000011
-24.540	-0.000023
-24.535	-0.000002
-24.530	-0.000002
-24.525	-0.000022
-24.520	-0.000023
-24.515	-0.000023
-24.510	-0.000023
-24.505	-0.000016
-24.500	0.000004
-24.495	0.000004
-24.490	-0.000003
-24.485	-0.000003
-24.480	-0.000003
-24.475	0.000011
-24.470	-0.000002
-24.465	-0.000016
-24.460	-0.000008
-24.455	0.000005
-24.450	-0.000009
-24.445	-0.000016
-24.440	-0.000016
-24.435	-0.000030
-24.430	0.000004
-24.425	0.000004
-24.420	-0.000003
-24.415	-0.000003
-24.410	0.000004
-24.405	0.000017
-24.400	0.000024
-24.395	-0.000036
-24.390	-0.000023
-24.385	-0.000003
-24.380	-0.000030
-24.375	0.000004
-24.370	0.000010
-24.365	-0.000010
-24.360	-0.000010
-24.355	0.000017
-24.350	-0.000017
-24.345	-0.000003
-24.340	-0.000017
-24.335	-0.000003
-24.330	0.000011
-24.325	-0.000016
-24.320	-0.000003
-24.315	0.000010
-24.310	-0.000003
-24.305	0.000017
-24.300	0.000010
-24.295	-0.000017
-24.290	0.000024
-24.285	0.000031
-24.280	-0.000017
-24.275	-0.000024
-24.270	-0.000017
-24.265	0.000010
-24.260	-0.000010
-24.255	-0.000010
-24.250	-0.000004
-24.245	-0.000031
-24.240	-0.000024
-24.235	0.000010
-24.230	-0.000017
-24.225	0.000003
-24.220	0.000003
-24.215	0.000017
-24.210	-0.000004
-24.205	0.000003
-24.200	-0.000017
-24.195	-0.000017
-24.190	-0.000010
-24.185	-0.000038
-24.180	-0.000018
-24.175	-0.000017
-24.170	0.000010
-24.165	0.000010
-24.160	0.000010
-24.155	0.000016
-24.150	0.000003
-24.145	-0.000025
-24.140	-0.000004
-24.135	0.000003
-24.130	-0.000004
-24.125	0.000010
-24.120	-0.000004
-24.115	0.000002
-24.110	-0.000011
-24.105	-0.000005
-24.100	0.000002
-24.095	-0.000018
-24.090	-0.000011
-24.085	0.000002
-24.080	-0.000011
-24.075	0.000023
-24.070	-0.000011
-24.065	-0.000024
-24.060	0.000003
-24.055	-0.000038
-24.050	-0.000025
-24.045	0.000029
-24.040	-0.000018
-24.035	-0.000018
-24.030	-0.000005
-24.025	0.000002
-24.020	0.000002
-24.015	-0.000025
-24.010	-0.000005
-24.005	-0.000005
-24.000	0.000002
-23.995	-0.000025
-23.990	-0.000011
-23.985	-0.000019
-23.980	-0.000046
-23.975	-0.000019
-23.970	-0.000005
-23.965	0.000015
-23.960	-0.000012
-23.955	0.000022
-23.950	0.000015
-23.945	0.000008
-23.940	0.000008
-23.935	-0.000005
-23.930	-0.000032
-23.925	0.000002
-23.920	-0.000005
-23.915	0.000001
-23.910	-0.000019
-23.905	0.000022
-23.900	-0.000006
-23.895	0.000001
-23.890	-0.000006
-23.885	0.000015
-23.880	-0.000013
-23.875	0.000014
-23.870	-0.000026
-23.865	-0.000012
-23.860	-0.000005
-23.855	0.000008
-23.850	-0.000026
-23.845	0.000001
-23.840	0.000021
-23.835	-0.000006
-23.830	-0.000006
-23.825	-0.000013
-23.820	-0.000026
-23.815	0.000001
-23.810	-0.000013
-23.805	-0.000013
-23.800	-0.000013
-23.795	-0.000012
-23.790	-0.000026
-23.785	0.000007
-23.780	-0.000027
-23.775	0.000034
-23.770	0.000007
-23.765	0.000034
-23.760	0.000007
-23.755	0.000014
-23.750	-0.000007
-23.745	0.000007
-23.740	-0.000007
-23.735	0.000007
-23.730	0.000000
-23.725	-0.000019
-23.720	-0.000020
-23.715	-0.000021
-23.710	0.000006
-23.705	-0.000014
-23.700	-0.000000
-23.695	0.000027
-23.690	-0.000014
-23.685	0.000007
-23.680	-0.000000
-23.675	-0.000000
-23.670	-0.000020
-23.665	-0.000027
-23.660	-0.000027
-23.655	-0.000027
-23.650	-0.000048
-23.645	-0.000014
-23.640	-0.000014
-23.635	0.000027
-23.630	-0.000014
-23.625	0.000027
-23.620	-0.000007
-23.615	0.000006
-23.610	0.000019
-23.605	-0.000008
-23.600	-0.000021
-23.595	0.000007
-23.590	-0.000041
-23.585	-0.000035
-23.580	-0.000015
-23.575	-0.000035
-23.570	-0.000008
-23.565	-0.000008
-23.560	-0.000001
-23.555	-0.000014
-23.550	-0.000008
-23.545	-0.000015
-23.540	-0.000015
-23.535	-0.000014
-23.530	-0.000014
-23.525	-0.000034
-23.520	-0.000015
-23.515	-0.000042
-23.510	-0.000035
-23.505	-0.000042
-23.500	-0.000062
-23.495	-0.000042
-23.490	-0.000035
-23.485	-0.000022
-23.480	-0.000049
-23.475	-0.000029
-23.470	-0.000036
-23.465	-0.000042
-23.460	-0.000069
-23.455	-0.000069
-23.450	-0.000056
-23.445	-0.000056
-23.440	-0.000016
-23.435	-0.000070
-23.430	-0.000029
-23.425	-0.000016
-23.420	-0.000022
-23.415	-0.000016
-23.410	-0.000036
-23.405	-0.000029
-23.400	-0.000022
-23.395	-0.000015
-23.390	-0.000056
-23.385	-0.000036
-23.380	-0.000030
-23.375	-0.000016
-23.370	-0.000030
-23.365	-0.000043
-23.360	-0.000043
-23.355	-0.000002
-23.350	-0.000030
-23.345	-0.000036
-23.340	-0.000016
-23.335	-0.000023
-23.330	-0.000029
-23.325	-0.000016
-23.320	-0.000030
-23.315	-0.000023
-23.310	-0.000030
-23.305	-0.000037
-23.300	-0.000023
-23.295	-0.000023
-23.290	-0.000023
-23.285	0.000004
-23.280	-0.000023
-23.275	0.000010
-23.270	-0.000044
-23.265	-0.000036
-23.260	-0.000030
-23.255	-0.000017
-23.250	-0.000024
-23.245	-0.000037
-23.240	-0.000003
-23.235	-0.000024
-23.230	-0.000030
-23.225	-0.000037
-23.220	-0.000003
-23.215	-0.000037
-23.210	-0.000038
-23.205	-0.000010
-23.200	-0.000024
-23.195	-0.000010
-23.190	-0.000064
-23.185	-0.000038
-23.180	-0.000017
-23.175	-0.000051
-23.170	-0.000031
-23.165	-0.000031
-23.160	-0.000017
-23.155	-0.000038
-23.150	-0.000011
-23.145	-0.000031
-23.140	-0.000038
-23.135	-0.000017
-23.130	-0.000031
-23.125	-0.000031
-23.120	-0.000045
-23.115	-0.000024
-23.110	-0.000018
-23.105	-0.000018
-23.100	0.000003
-23.095	-0.000038
-23.090	-0.000031
-23.085	-0.000018
-23.080	0.000009
-23.075	-0.000032
-23.070	-0.000018
-23.065	-0.000031
-23.060	-0.000017
-23.055	-0.000079
-23.050	-0.000032
-23.045	-0.000018
-23.040	-0.000018
-23.035	-0.000005
-23.030	-0.000018
-23.025	-0.000004
-23.020	0.000002
-23.015	-0.000004
-23.010	-0.000025
-23.005	-0.000005
-23.000	-0.000031
-22.995	-0.000038
-22.990	-0.000059
-22.985	-0.000038
-22.980	-0.000039
-22.975	-0.000011
-22.970	-0.000052
-22.965	-0.000025
-22.960	-0.000012
-22.955	-0.000039
-22.950	-0.000032
-22.945	-0.000005
-22.940	-0.000032
-22.935	-0.000018
-22.930	-0.000059
-22.925	-0.000038
-22.920	-0.000032
-22.915	-0.000032
-22.910	-0.000039
-22.905	-0.000026
-22.900	-0.000026
-22.895	-0.000012
-22.890	-0.000012
-22.885	0.000001
-22.880	0.000001
-22.875	-0.000019
-22.870	-0.000039
-22.865	-0.000032
-22.860	-0.000039
-22.855	-0.000039
-22.850	-0.000039
-22.845	-0.000033
-22.840	-0.000026
-22.835	-0.000026
-22.830	-0.000019
-22.825	-0.000012
-22.820	-0.000033
-22.815	-0.000019
-22.810	-0.000006
-22.805	-0.000013
-22.800	-0.000026
-22.795	-0.000025
-22.790	-0.000039
-22.785	-0.000026
-22.780	0.000001
-22.775	-0.000006
-22.770	-0.000026
-22.765	0.000014
-22.760	-0.000020
-22.755	-0.000013
-22.750	0.000007
-22.745	-0.000026
-22.740	-0.000033
-22.735	-0.000019
-22.730	-0.000033
-22.725	-0.000026
-22.720	-0.000040
-22.715	-0.000013
-22.710	-0.000040
-22.705	-0.000027
-22.700	-0.000040
-22.695	-0.000040
-22.690	-0.000027
-22.685	0.000008
-22.680	-0.000006
-22.675	-0.000027
-22.670	0.000000
-22.665	-0.000033
-22.660	-0.000020
-22.655	-0.000027
-22.650	-0.000034
-22.645	-0.000027
-22.640	-0.000054
-22.635	0.000014
-22.630	-0.000034
-22.625	-0.000027
-22.620	-0.000007
-22.615	-0.000020
-22.610	-0.000027
-22.605	-0.000027
-22.600	-0.000047
-22.595	-0.000054
-22.590	-0.000013
-22.585	-0.000014
-22.580	-0.000027
-22.575	-0.000047
-22.570	-0.000041
-22.565	0.000006
-22.560	-0.000034
-22.555	-0.000000
-22.550	-0.000014
-22.545	-0.000034
-22.540	-0.000014
-22.535	-0.000027
-22.530	-0.000041
-22.525	-0.000027
-22.520	-0.000021
-22.515	-0.000028
-22.510	-0.000014
-22.505	-0.000041
-22.500	-0.000021
-22.495	-0.000014
-22.490	-0.000008
-22.485	-0.000028
-22.480	-0.000021
-22.475	-0.000007
-22.470	-0.000021
-22.465	-0.000034
-22.460	-0.000041
-22.455	-0.000035
-22.450	-0.000042
-22.445	0.000012
-22.440	-0.000021
-22.435	-0.000028
-22.430	-0.000035
-22.425	-0.000021
-22.420	-0.000021
-22.415	0.000006
-22.410	-0.000022
-22.405	-0.000008
-22.400	-0.000042
-22.395	-0.000048
-22.390	-0.000021
-22.385	-0.000049
-22.380	-0.000056
-22.375	-0.000049
-22.370	-0.000069
-22.365	-0.000015
-22.360	-0.000022
-22.355	-0.000015
-22.350	-0.000008
-22.345	-0.000008
-22.340	-0.000042
-22.335	-0.000028
-22.330	-0.000015
-22.325	-0.000062
-22.320	-0.000049
-22.315	-0.000042
-22.310	-0.000049
-22.305	-0.000042
-22.300	-0.000049
-22.295	-0.000022
-22.290	-0.000022
-22.285	-0.000015
-22.280	-0.000009
-22.275	-0.000043
-22.270	-0.000029
-22.265	-0.000015
-22.260	-0.000022
-22.255	-0.000022
-22.250	-0.000022
-22.245	-0.000056
-22.240	-0.000023
-22.235	-0.000043
-22.230	-0.000022
-22.225	0.000005
-22.220	-0.000022
-22.215	-0.000002
-22.210	-0.000016
-22.205	-0.000002
-22.200	-0.000049
-22.195	-0.000015
-22.190	-0.000036
-22.185	-0.000030
-22.180	-0.000050
-22.175	-0.000050
-22.170	-0.000022
-22.165	-0.000022
-22.160	-0.000016
-22.155	-0.000016
-22.150	-0.000050
-22.145	-0.000009
-22.140	-0.000030
-22.135	-0.000022
-22.130	-0.000029
-22.125	-0.000042
-22.120	-0.000057
-22.115	-0.000043
-22.110	-0.000010
-22.105	-0.000009
-22.100	-0.000009
-22.095	-0.000030
-22.090	-0.000023
-22.085	-0.000016
-22.080	-0.000016
-22.075	-0.000030
-22.070	-0.000016
-22.065	-0.000029
-22.060	-0.000049
-22.055	-0.000030
-22.050	-0.000050
-22.045	-0.000030
-22.040	-0.000043
-22.035	-0.000023
-22.030	-0.000057
-22.025	-0.000003
-22.020	-0.000030
-22.015	-0.000010
-22.010	-0.000030
-22.005	-0.000030
-22.000	-0.000030
-21.995	-0.000036
-21.990	-0.000057
-21.985	-0.000023
-21.980	-0.000010
-21.975	-0.000044
-21.970	-0.000024
-21.965	-0.000017
-21.960	-0.000051
-21.955	-0.000017
-21.950	-0.000010
-21.945	-0.000023
-21.940	-0.000044
-21.935	0.000018
-21.930	-0.000030
-21.925	-0.000030
-21.920	-0.000058
-21.915	-0.000037
-21.910	-0.000024
-21.905	-0.000024
-21.900	-0.000024
-21.895	-0.000044
-21.890	-0.000037
-21.885	-0.000037
-21.880	-0.000017
-21.875	-0.000024
-21.870	-0.000010
-21.865	-0.000044
-21.860	-0.000057
-21.855	-0.000037
-21.850	-0.000038
-21.845	-0.000044
-21.840	-0.000031
-21.835	-0.000031
-21.830	-0.000017
-21.825	-0.000051
-21.820	-0.000044
-21.815	-0.000017
-21.810	-0.000018
-21.805	-0.000038
-21.800	0.000010
-21.795	-0.000003
-21.790	-0.000051
-21.785	-0.000045
-21.780	-0.000038
-21.775	-0.000017
-21.770	-0.000031
-21.765	-0.000031
-21.760	-0.000017
-21.755	-0.000031
-21.750	-0.000024
-21.745	-0.000004
-21.740	-0.000031
-21.735	-0.000004
-21.730	-0.000044
-21.725	-0.000051
-21.720	-0.000038
-21.715	-0.000038
-21.710	-0.000038
-21.705	-0.000045
-21.700	-0.000031
-21.695	-0.000025
-21.690	-0.000004
-21.685	-0.000004
-21.680	-0.000025
-21.675	-0.000025
-21.670	-0.000045
-21.665	-0.000024
-21.660	-0.000017
-21.655	-0.000045
-21.650	-0.000052
-21.645	-0.000004
-21.640	-0.000018
-21.635	-0.000031
-21.630	-0.000032
-21.625	-0.000031
-21.620	-0.000032
-21.615	-0.000018
-21.610	-0.000011
-21.605	-0.000018
-21.600	-0.000045
-21.595	-0.000011
-21.590	-0.000011
-21.585	-0.000018
-21.580	-0.000032
-21.575	0.000008
-21.570	-0.000012
-21.565	-0.000025
-21.560	0.000002
-21.555	-0.000025
-21.550	0.000002
-21.545	-0.000005
-21.540	-0.000025
-21.535	-0.000011
-21.530	-0.000025
-21.525	0.000002
-21.520	-0.000032
-21.515	-0.000005
-21.510	-0.000025
-21.505	-0.000019
-21.500	0.000008
-21.495	0.000002
-21.490	-0.000005
-21.485	0.000022
-21.480	0.000036
-21.475	0.000035
-21.470	0.000029
-21.465	0.000023
-21.460	0.000036
-21.455	0.000029
-21.450	0.000090
-21.445	0.000124
-21.440	0.000186
-21.435	0.000336
-21.430	0.000561
-21.425	0.000835
-21.420	0.001240
-21.415	0.001770
-21.410	0.002476
-21.405	0.003471
-21.400	0.004686
-21.395	0.006078
-21.390	0.007809
-21.385	0.009748
-21.380	0.012087
-21.375	0.014797
-21.370	0.017768
-21.365	0.020939
-21.360	0.024371
-21.355	0.027950
-21.350	0.031587
-21.345	0.035200
-21.340	0.038856
-21.335	0.042575
-21.330	0.046088
-21.325	0.049324
-21.320	0.050484
-21.315	0.049603
-21.310	0.048834
-21.305	0.047437
-21.300	0.045470
-21.295	0.044483
-21.290	0.043640
-21.285	0.042728
-21.280	0.041829
-21.275	0.041344
-21.270	0.040275
-21.265	0.039000
-21.260	0.038064
-21.255	0.037036
-21.250	0.036115
-21.245	0.035819
-21.240	0.034967
-21.235	0.034160
-21.230	0.034032
-21.225	0.033374
-21.220	0.032789
-21.215	0.032268
-21.210	0.031816
-21.205	0.031371
-21.200	0.031023
-21.195	0.030770
-21.190	0.030399
-21.185	0.030391
-21.180	0.030113
-21.175	0.029207
-21.170	0.028457
-21.165	0.028220
-21.160	0.027977
-21.155	0.027545
-21.150	0.027160
-21.145	0.026994
-21.140	0.026894
-21.135	0.027127
-21.130	0.027176
-21.125	0.026386
-21.120	0.025670
-21.115	0.025480
-21.110	0.025283
-21.105	0.025094
-21.100	0.024935
-21.095	0.024850
-21.090	0.024564
-21.085	0.024297
-21.080	0.023981
-21.075	0.023816
-21.070	0.023624
-21.065	0.023379
-21.060	0.023116
-21.055	0.022874
-21.050	0.022700
-21.045	0.022573
-21.040	0.022482
-21.035	0.022358
-21.030	0.022170
-21.025	0.022052
-21.020	0.021887
-21.015	0.021798
-21.010	0.021672
-21.005	0.021567
-21.000	0.021484
-20.995	0.021469
-20.990	0.021282
-20.985	0.021049
-20.980	0.020830
-20.975	0.020722
-20.970	0.020622
-20.965	0.020462
-20.960	0.020374
-20.955	0.020230
-20.950	0.020091
-20.945	0.020000
-20.940	0.019863
-20.935	0.019755
-20.930	0.019614
-20.925	0.019542
-20.920	0.019422
-20.915	0.019283
-20.910	0.019179
-20.905	0.019082
-20.900	0.019004
-20.895	0.018850
-20.890	0.018795
-20.885	0.018698
-20.880	0.018592
-20.875	0.018530
-20.870	0.018448
-20.865	0.018354
-20.860	0.018278
-20.855	0.018178
-20.850	0.018072
-20.845	0.017930
-20.840	0.017886
-20.835	0.017769
-20.830	0.017652
-20.825	0.017577
-20.820	0.017460
-20.815	0.017381
-20.810	0.017289
-20.805	0.017176
-20.800	0.017126
-20.795	0.017051
-20.790	0.017019
-20.785	0.016898
-20.780	0.016863
-20.775	0.016832
-20.770	0.016774
-20.765	0.016717
-20.760	0.016619
-20.755	0.016546
-20.750	0.016429
-20.745	0.016370
-20.740	0.016283
-20.735	0.016185
-20.730	0.016124
-20.725	0.016075
-20.720	0.016026
-20.715	0.015956
-20.710	0.015868
-20.705	0.015814
-20.700	0.015735
-20.695	0.015737
-20.690	0.015601
-20.685	0.015557
-20.680	0.015500
-20.675	0.015456
-20.670	0.015408
-20.665	0.015347
-20.660	0.015319
-20.655	0.015263
-20.650	0.015196
-20.645	0.015115
-20.640	0.015064
-20.635	0.015045
-20.630	0.015001
-20.625	0.014949
-20.620	0.014905
-20.615	0.014889
-20.610	0.014794
-20.605	0.014708
-20.600	0.014683
-20.595	0.014681
-20.590	0.014604
-20.585	0.014551
-20.580	0.014505
-20.575	0.014467
-20.570	0.014427
-20.565	0.014356
-20.560	0.014336
-20.555	0.014247
-20.550	0.014188
-20.545	0.014122
-20.540	0.014106
-20.535	0.014073
-20.530	0.014032
-20.525	0.014008
-20.520	0.013949
-20.515	0.013892
-20.510	0.013854
-20.505	0.013831
-20.500	0.013790
-20.495	0.013746
-20.490	0.013723
-20.485	0.013718
-20.480	0.013655
-20.475	0.013631
-20.470	0.013604
-20.465	0.013547
-20.460	0.013502
-20.455	0.013433
-20.450	0.013388
-20.445	0.013377
-20.440	0.013304
-20.435	0.013291
-20.430	0.013210
-20.425	0.013202
-20.420	0.013178
-20.415	0.013132
-20.410	0.013077
-20.405	0.013041
-20.400	0.013003
-20.395	0.012971
-20.390	0.012943
-20.385	0.012891
-20.380	0.012847
-20.375	0.012855
-20.370	0.012816
-20.365	0.012793
-20.360	0.012770
-20.355	0.012735
-20.350	0.012687
-20.345	0.012655
-20.340	0.012615
-20.335	0.012592
-20.330	0.012551
-20.325	0.012485
-20.320	0.012462
-20.315	0.012451
-20.310	0.012356
-20.305	0.012353
-20.300	0.012328
-20.295	0.012291
-20.290	0.012261
-20.285	0.012236
-20.280	0.012212
-20.275	0.012157
-20.270	0.012138
-20.265	0.012105
-20.260	0.012072
-20.255	0.012079
-20.250	0.012009
-20.245	0.011997
-20.240	0.011996
-20.235	0.011952
-20.230	0.011934
-20.225	0.011887
-20.220	0.011877
-20.215	0.011861
-20.210	0.011819
-20.205	0.011810
-20.200	0.011792
-20.195	0.011733
-20.190	0.011683
-20.185	0.011687
-20.180	0.011664
-20.175	0.011637
-20.170	0.011607
-20.165	0.011600
-20.160	0.011579
-20.155	0.011514
-20.150	0.011548
-20.145	0.011484
-20.140	0.011475
-20.135	0.011435
-20.130	0.011436
-20.125	0.011358
-20.120	0.011374
-20.115	0.011313
-20.110	0.011297
-20.105	0.011280
-20.100	0.011270
-20.095	0.011248
-20.090	0.011212
-20.085	0.011194
-20.080	0.011156
-20.075	0.011141
-20.070	0.011109
-20.065	0.011084
-20.060	0.011055
-20.055	0.011018
-20.050	0.010997
-20.045	0.010976
-20.040	0.010939
-20.035	0.010953
-20.030	0.010924
-20.025	0.010904
-20.020	0.010897
-20.015	0.010849
-20.010	0.010848
-20.005	0.010793
-20.000	0.010788
-19.995	0.010768
-19.990	0.010748
-19.985	0.010732
-19.980	0.010669
-19.975	0.010689
-19.970	0.010659
-19.965	0.010646
-19.960	0.010608
-19.955	0.010581
-19.950	0.010589
-19.945	0.010556
-19.940	0.010550
-19.935	0.010512
-19.930	0.010478
-19.925	0.010455
-19.920	0.010447
-19.915	0.010458
-19.910	0.010399
-19.905	0.010422
-19.900	0.010383
-19.895	0.010392
-19.890	0.010357
-19.885	0.010319
-19.880	0.010325
-19.875	0.010307
-19.870	0.010262
-19.865	0.010246
-19.860	0.010252
-19.855	0.010215
-19.850	0.010175
-19.845	0.010144
-19.840	0.010154
-19.835	0.010129
-19.830	0.010108
-19.825	0.010100
-19.820	0.010104
-19.815	0.010085
-19.810	0.010066
-19.805	0.010034
-19.800	0.009985
-19.795	0.009969
-19.790	0.009915
-19.785	0.009922
-19.780	0.009906
-19.775	0.009880
-19.770	0.009867
-19.765	0.009866
-19.760	0.009824
-19.755	0.009818
-19.750	0.009804
-19.745	0.009783
-19.740	0.009769
-19.735	0.009736
-19.730	0.009689
-19.725	0.009672
-19.720	0.009669
-19.715	0.009629
-19.710	0.009628
-19.705	0.009612
-19.700	0.009587
-19.695	0.009540
-19.690	0.009541
-19.685	0.009556
-19.680	0.009536
-19.675	0.009479
-19.670	0.009446
-19.665	0.009439
-19.660	0.009414
-19.655	0.009405
-19.650	0.009393
-19.645	0.009389
-19.640	0.009327
-19.635	0.009342
-19.630	0.009341
-19.625	0.009329
-19.620	0.009315
-19.615	0.009281
-19.610	0.009306
-19.605	0.009244
-19.600	0.009250
-19.595	0.009242
-19.590	0.009213
-19.585	0.009199
-19.580	0.009188
-19.575	0.009157
-19.570	0.009173
-19.565	0.009225
-19.560	0.009181
-19.555	0.009155
-19.550	0.009134
-19.545	0.009141
-19.540	0.009103
-19.535	0.009092
-19.530	0.009102
-19.525	0.009064
-19.520	0.009039
-19.515	0.009069
-19.510	0.009045
-19.505	0.009021
-19.500	0.009046
-19.495	0.009043
-19.490	0.009029
-19.485	0.009006
-19.480	0.008997
-19.475	0.008977
-19.470	0.008947
-19.465	0.008976
-19.460	0.008898
-19.455	0.008897
-19.450	0.008862
-19.445	0.008891
-19.440	0.008870
-19.435	0.008831
-19.430	0.008847
-19.425	0.008826
-19.420	0.008815
-19.415	0.008826
-19.410	0.008777
-19.405	0.008788
-19.400	0.008727
-19.395	0.008705
-19.390	0.008729
-19.385	0.008738
-19.380	0.008730
-19.375	0.008698
-19.370	0.008687
-19.365	0.008675
-19.360	0.008676
-19.355	0.008648
-19.350	0.008625
-19.345	0.008643
-19.340	0.008626
-19.335	0.008625
-19.330	0.008592
-19.325	0.008588
-19.320	0.008561
-19.315	0.008558
-19.310	0.008563
-19.305	0.008555
-19.300	0.008555
-19.295	0.008547
-19.290	0.008515
-19.285	0.008519
-19.280	0.008506
-19.275	0.008510
-19.270	0.008427
-19.265	0.008426
-19.260	0.008428
-19.255	0.008431
-19.250	0.008443
-19.245	0.008401
-19.240	0.008421
-19.235	0.008372
-19.230	0.008369
-19.225	0.008375
-19.220	0.008365
-19.215	0.008330
-19.210	0.008343
-19.205	0.008317
-19.200	0.008312
-19.195	0.008286
-19.190	0.008275
-19.185	0.008256
-19.180	0.008249
-19.175	0.008228
-19.170	0.008243
-19.165	0.008238
-19.160	0.008239
-19.155	0.008240
-19.150	0.008221
-19.145	0.008224
-19.140	0.008204
-19.135	0.008217
-19.130	0.008147
-19.125	0.008179
-19.120	0.008160
-19.115	0.008141
-19.110	0.008120
-19.105	0.008130
-19.100	0.008111
-19.095	0.008110
-19.090	0.008122
-19.085	0.008093
-19.080	0.008097
-19.075	0.008089
-19.070	0.008064
-19.065	0.008066
-19.060	0.008052
-19.055	0.008016
-19.050	0.008035
-19.045	0.008028
-19.040	0.008028
-19.035	0.008000
-19.030	0.007993
-19.025	0.008007
-19.020	0.007985
-19.015	0.007957
-19.010	0.007964
-19.005	0.007952
-19.000	0.007927
-18.995	0.007900
-18.990	0.007843
-18.985	0.007911
-18.980	0.007857
-18.975	0.007879
-18.970	0.007831
-18.965	0.007866
-18.960	0.007816
-18.955	0.007824
-18.950	0.007796
-18.945	0.007759
-18.940	0.007745
-18.935	0.007753
-18.930	0.007734
-18.925	0.007718
-18.920	0.007705
-18.915	0.007720
-18.910	0.007678
-18.905	0.007686
-18.900	0.007664
-18.895	0.007679
-18.890	0.007636
-18.885	0.007626
-18.880	0.007647
-18.875	0.007628
-18.870	0.007610
-18.865	0.007617
-18.860	0.007601
-18.855	0.007570
-18.850	0.007554
-18.845	0.007574
-18.840	0.007561
-18.835	0.007514
-18.830	0.007527
-18.825	0.007521
-18.820	0.007548
-18.815	0.007533
-18.810	0.007498
-18.805	0.007491
-18.800	0.007492
-18.795	0.007462
-18.790	0.007450
-18.785	0.007456
-18.780	0.007440
-18.775	0.007444
-18.770	0.007447
-18.765	0.007397
-18.760	0.007410
-18.755	0.007402
-18.750	0.007393
-18.745	0.007406
-18.740	0.007371
-18.735	0.007372
-18.730	0.007365
-18.725	0.007355
-18.720	0.007341
-18.715	0.007340
-18.710	0.007326
-18.705	0.007353
-18.700	0.007364
-18.695	0.007309
-18.690	0.007308
-18.685	0.007301
-18.680	0.007299
-18.675	0.007265
-18.670	0.007233
-18.665	0.007260
-18.660	0.007195
-18.655	0.007234
-18.650	0.007198
-18.645	0.007225
-18.640	0.007225
-18.635	0.007198
-18.630	0.007211
-18.625	0.007204
-18.620	0.007175
-18.615	0.007189
-18.610	0.007194
-18.605	0.007183
-18.600	0.007150
-18.595	0.007162
-18.590	0.007137
-18.585	0.007124
-18.580	0.007125
-18.575	0.007152
-18.570	0.007091
-18.565	0.007105
-18.560	0.007090
-18.555	0.007083
-18.550	0.007096
-18.545	0.007068
-18.540	0.007076
-18.535	0.007078
-18.530	0.007029
-18.525	0.007020
-18.520	0.007012
-18.515	0.007041
-18.510	0.007033
-18.505	0.007006
-18.500	0.007006
-18.495	0.007028
-18.490	0.006992
-18.485	0.007001
-18.480	0.006980
-18.475	0.006959
-18.470	0.006982
-18.465	0.006949
-18.460	0.006953
-18.455	0.006925
-18.450	0.006938
-18.445	0.006938
-18.440	0.006910
-18.435	0.006924
-18.430	0.006895
-18.425	0.006902
-18.420	0.006922
-18.415	0.006888
-18.410	0.006880
-18.405	0.006869
-18.400	0.006849
-18.395	0.006883
-18.390	0.006866
-18.385	0.006817
-18.380	0.006837
-18.375	0.006811
-18.370	0.006811
-18.365	0.006792
-18.360	0.006832
-18.355	0.006805
-18.350	0.006797
-18.345	0.006791
-18.340	0.006792
-18.335	0.006787
-18.330	0.006758
-18.325	0.006769
-18.320	0.006740
-18.315	0.006754
-18.310	0.006727
-18.305	0.006699
-18.300	0.006740
-18.295	0.006726
-18.290	0.006706
-18.285	0.006712
-18.280	0.006704
-18.275	0.006663
-18.270	0.006686
-18.265	0.006653
-18.260	0.006629
-18.255	0.006627
-18.250	0.006620
-18.245	0.006669
-18.240	0.006635
-18.235	0.006636
-18.230	0.006624
-18.225	0.006619
-18.220	0.006605
-18.215	0.006599
-18.210	0.006612
-18.205	0.006609
-18.200	0.006578
-18.195	0.006576
-18.190	0.006582
-18.185	0.006527
-18.180	0.006563
-18.175	0.006544
-18.170	0.006544
-18.165	0.006573
-18.160	0.006552
-18.155	0.006575
-18.150	0.006560
-18.145	0.006540
-18.140	0.006506
-18.135	0.006530
-18.130	0.006529
-18.125	0.006493
-18.120	0.006500
-18.115	0.006488
-18.110	0.006503
-18.105	0.006485
-18.100	0.006479
-18.095	0.006521
-18.090	0.006522
-18.085	0.006486
-18.080	0.006493
-18.075	0.006473
-18.070	0.006483
-18.065	0.006456
-18.060	0.006488
-18.055	0.006397
-18.050	0.006431
-18.045	0.006451
-18.040	0.006464
-18.035	0.006422
-18.030	0.006427
-18.025	0.006427
-18.020	0.006454
-18.015	0.006419
-18.010	0.006409
-18.005	0.006405
-18.000	0.006350
-17.995	0.006362
-17.990	0.006351
-17.985	0.006364
-17.980	0.006329
-17.975	0.006321
-17.970	0.006328
-17.965	0.006342
-17.960	0.006348
-17.955	0.006307
-17.950	0.006313
-17.945	0.006340
-17.940	0.006293
-17.935	0.006294
-17.930	0.006264
-17.925	0.006276
-17.920	0.006276
-17.915	0.006284
-17.910	0.006269
-17.905	0.006262
-17.900	0.006255
-17.895	0.006255
-17.890	0.006247
-17.885	0.006234
-17.880	0.006268
-17.875	0.006247
-17.870	0.006235
-17.865	0.006264
-17.860	0.006221
-17.855	0.006225
-17.850	0.006211
-17.845	0.006211
-17.840	0.006175
-17.835	0.006204
-17.830	0.006196
-17.825	0.006197
-17.820	0.006183
-17.815	0.006175
-17.810	0.006176
-17.805	0.006158
-17.800	0.006172
-17.795	0.006177
-17.790	0.006168
-17.785	0.006159
-17.780	0.006125
-17.775	0.006139
-17.770	0.006125
-17.765	0.006139
-17.760	0.006138
-17.755	0.006130
-17.750	0.006108
-17.745	0.006122
-17.740	0.006122
-17.735	0.006082
-17.730	0.006068
-17.725	0.006078
-17.720	0.006036
-17.715	0.006030
-17.710	0.006029
-17.705	0.006030
-17.700	0.006049
-17.695	0.006037
-17.690	0.005988
-17.685	0.006016
-17.680	0.006021
-17.675	0.006009
-17.670	0.006004
-17.665	0.005983
-17.660	0.005974
-17.655	0.005960
-17.650	0.005952
-17.645	0.005967
-17.640	0.005954
-17.635	0.005941
-17.630	0.005927
-17.625	0.005914
-17.620	0.005956
-17.615	0.005935
-17.610	0.005934
-17.605	0.005908
-17.600	0.005882
-17.595	0.005889
-17.590	0.005866
-17.585	0.005887
-17.580	0.005873
-17.575	0.005885
-17.570	0.005866
-17.565	0.005860
-17.560	0.005866
-17.555	0.005886
-17.550	0.005865
-17.545	0.005845
-17.540	0.005875
-17.535	0.005840
-17.530	0.005826
-17.525	0.005822
-17.520	0.005829
-17.515	0.005809
-17.510	0.005810
-17.505	0.005803
-17.500	0.005789
-17.495	0.005802
-17.490	0.005782
-17.485	0.005802
-17.480	0.005801
-17.475	0.005765
-17.470	0.005752
-17.465	0.005725
-17.460	0.005735
-17.455	0.005734
-17.450	0.005735
-17.445	0.005755
-17.440	0.005743
-17.435	0.005722
-17.430	0.005714
-17.425	0.005721
-17.420	0.005721
-17.415	0.005715
-17.410	0.005707
-17.405	0.005682
-17.400	0.005682
-17.395	0.005694
-17.390	0.005685
-17.385	0.005686
-17.380	0.005658
-17.375	0.005651
-17.370	0.005672
-17.365	0.005699
-17.360	0.005685
-17.355	0.005657
-17.350	0.005662
-17.345	0.005661
-17.340	0.005627
-17.335	0.005622
-17.330	0.005628
-17.325	0.005605
-17.320	0.005604
-17.315	0.005638
-17.310	0.005591
-17.305	0.005618
-17.300	0.005603
-17.295	0.005596
-17.290	0.005603
-17.285	0.005602
-17.280	0.005588
-17.275	0.005616
-17.270	0.005576
-17.265	0.005592
-17.260	0.005554
-17.255	0.005540
-17.250	0.005554
-17.245	0.005540
-17.240	0.005547
-17.235	0.005528
-17.230	0.005519
-17.225	0.005527
-17.220	0.005533
-17.215	0.005533
-17.210	0.005518
-17.205	0.005514
-17.200	0.005501
-17.195	0.005514
-17.190	0.005499
-17.185	0.005500
-17.180	0.005466
-17.175	0.005501
-17.170	0.005481
-17.165	0.005488
-17.160	0.005460
-17.155	0.005474
-17.150	0.005493
-17.145	0.005465
-17.140	0.005440
-17.135	0.005469
-17.130	0.005447
-17.125	0.005439
-17.120	0.005404
-17.115	0.005444
-17.110	0.005438
-17.105	0.005431
-17.100	0.005438
-17.095	0.005437
-17.090	0.005410
-17.085	0.005423
-17.080	0.005415
-17.075	0.005416
-17.070	0.005404
-17.065	0.005397
-17.060	0.005388
-17.055	0.005402
-17.050	0.005380
-17.045	0.005386
-17.040	0.005393
-17.035	0.005372
-17.030	0.005393
-17.025	0.005400
-17.020	0.005386
-17.015	0.005393
-17.010	0.005372
-17.005	0.005340
-17.000	0.005341
-16.995	0.005325
-16.990	0.005338
-16.985	0.005337
-16.980	0.005311
-16.975	0.005325
-16.970	0.005318
-16.965	0.005298
-16.960	0.005326
-16.955	0.005340
-16.950	0.005297
-16.945	0.005312
-16.940	0.005292
-16.935	0.005286
-16.930	0.005250
-16.925	0.005276
-16.920	0.005256
-16.915	0.005275
-16.910	0.005256
-16.905	0.005291
-16.900	0.005277
-16.895	0.005264
-16.890	0.005257
-16.885	0.005263
-16.880	0.005277
-16.875	0.005251
-16.870	0.005239
-16.865	0.005227
-16.860	0.005225
-16.855	0.005225
-16.850	0.005219
-16.845	0.005233
-16.840	0.005240
-16.835	0.005234
-16.830	0.005228
-16.825	0.005250
-16.820	0.005215
-16.815	0.005215
-16.810	0.005194
-16.805	0.005204
-16.800	0.005176
-16.795	0.005201
-16.790	0.005186
-16.785	0.005207
-16.780	0.005153
-16.775	0.005153
-16.770	0.005153
-16.765	0.005181
-16.760	0.005167
-16.755	0.005174
-16.750	0.005160
-16.745	0.005146
-16.740	0.005127
-16.735	0.005121
-16.730	0.005113
-16.725	0.005119
-16.720	0.005091
-16.715	0.005119
-16.710	0.005106
-16.705	0.005134
-16.700	0.005098
-16.695	0.005106
-16.690	0.005098
-16.685	0.005125
-16.680	0.005076
-16.675	0.005057
-16.670	0.005050
-16.665	0.005079
-16.660	0.005069
-16.655	0.005063
-16.650	0.005044
-16.645	0.005036
-16.640	0.005023
-16.635	0.005058
-16.630	0.005045
-16.625	0.005011
-16.620	0.005024
-16.615	0.005038
-16.610	0.005045
-16.605	0.004998
-16.600	0.005000
-16.595	0.004998
-16.590	0.004976
-16.585	0.004970
-16.580	0.004977
-16.575	0.004964
-16.570	0.004970
-16.565	0.004984
-16.560	0.004970
-16.555	0.004990
-16.550	0.004989
-16.545	0.004969
-16.540	0.004943
-16.535	0.004931
-16.530	0.004950
-16.525	0.004928
-16.520	0.004927
-16.515	0.004949
-16.510	0.004914
-16.505	0.004922
-16.500	0.004957
-16.495	0.004902
-16.490	0.004915
-16.485	0.004922
-16.480	0.004907
-16.475	0.004942
-16.470	0.004908
-16.465	0.004921
-16.460	0.004849
-16.455	0.004898
-16.450	0.004898
-16.445	0.004878
-16.440	0.004899
-16.435	0.004878
-16.430	0.004905
-16.425	0.004904
-16.420	0.004890
-16.415	0.004903
-16.410	0.004875
-16.405	0.004897
-16.400	0.004863
-16.395	0.004868
-16.390	0.004839
-16.385	0.004833
-16.380	0.004839
-16.375	0.004847
-16.370	0.004840
-16.365	0.004861
-16.360	0.004860
-16.355	0.004846
-16.350	0.004839
-16.345	0.004859
-16.340	0.004832
-16.335	0.004840
-16.330	0.004824
-16.325	0.004857
-16.320	0.004795
-16.315	0.004810
-16.310	0.004796
-16.305	0.004797
-16.300	0.004804
-16.295	0.004804
-16.290	0.004810
-16.285	0.004817
-16.280	0.004769
-16.275	0.004804
-16.270	0.004784
-16.265	0.004764
-16.260	0.004761
-16.255	0.004768
-16.250	0.004768
-16.245	0.004740
-16.240	0.004781
-16.235	0.004742
-16.230	0.004750
-16.225	0.004757
-16.220	0.004777
-16.215	0.004757
-16.210	0.004744
-16.205	0.004732
-16.200	0.004725
-16.195	0.004737
-16.190	0.004730
-16.185	0.004703
-16.180	0.004696
-16.175	0.004718
-16.170	0.004705
-16.165	0.004720
-16.160	0.004728
-16.155	0.004714
-16.150	0.004719
-16.145	0.004692
-16.140	0.004701
-16.135	0.004663
-16.130	0.004697
-16.125	0.004675
-16.120	0.004702
-16.115	0.004661
-16.110	0.004661
-16.105	0.004663
-16.100	0.004677
-16.095	0.004700
-16.090	0.004679
-16.085	0.004658
-16.080	0.004664
-16.075	0.004652
-16.070	0.004646
-16.065	0.004666
-16.060	0.004629
-16.055	0.004615
-16.050	0.004642
-16.045	0.004629
-16.040	0.004663
-16.035	0.004650
-16.030	0.004635
-16.025	0.004629
-16.020	0.004635
-16.015	0.004621
-16.010	0.004635
-16.005	0.004623
-16.000	0.004609
-15.995	0.004580
-15.990	0.004607
-15.985	0.004620
-15.980	0.004626
-15.975	0.004612
-15.970	0.004590
-15.965	0.004597
-15.960	0.004590
-15.955	0.004618
-15.950	0.004611
-15.945	0.004583
-15.940	0.004604
-15.935	0.004577
-15.930	0.004561
-15.925	0.004567
-15.920	0.004607
-15.915	0.004559
-15.910	0.004531
-15.905	0.004532
-15.900	0.004545
-15.895	0.004558
-15.890	0.004578
-15.885	0.004543
-15.880	0.004514
-15.875	0.004536
-15.870	0.004502
-15.865	0.004515
-15.860	0.004505
-15.855	0.004505
-15.850	0.004518
-15.845	0.004525
-15.840	0.004511
-15.835	0.004504
-15.830	0.004496
-15.825	0.004483
-15.820	0.004489
-15.815	0.004461
-15.810	0.004488
-15.805	0.004497
-15.800	0.004490
-15.795	0.004467
-15.790	0.004473
-15.785	0.004474
-15.780	0.004439
-15.775	0.004488
-15.770	0.004481
-15.765	0.004487
-15.760	0.004440
-15.755	0.004447
-15.750	0.004466
-15.745	0.004432
-15.740	0.004419
-15.735	0.004420
-15.730	0.004412
-15.725	0.004451
-15.720	0.004424
-15.715	0.004418
-15.710	0.004404
-15.705	0.004433
-15.700	0.004405
-15.695	0.004419
-15.690	0.004418
-15.685	0.004405
-15.680	0.004405
-15.675	0.004407
-15.670	0.004360
-15.665	0.004401
-15.660	0.004350
-15.655	0.004385
-15.650	0.004358
-15.645	0.004372
-15.640	0.004393
-15.635	0.004380
-15.630	0.004373
-15.625	0.004394
-15.620	0.004360
-15.615	0.004373
-15.610	0.004345
-15.605	0.004341
-15.600	0.004355
-15.595	0.004340
-15.590	0.004311
-15.585	0.004352
-15.580	0.004353
-15.575	0.004312
-15.570	0.004318
-15.565	0.004325
-15.560	0.004352
-15.555	0.004353
-15.550	0.004325
-15.545	0.004326
-15.540	0.004301
-15.535	0.004335
-15.530	0.004313
-15.525	0.004318
-15.520	0.004290
-15.515	0.004291
-15.510	0.004298
-15.505	0.004312
-15.500	0.004312
-15.495	0.004306
-15.490	0.004299
-15.485	0.004285
-15.480	0.004278
-15.475	0.004299
-15.470	0.004273
-15.465	0.004259
-15.460	0.004264
-15.455	0.004263
-15.450	0.004256
-15.445	0.004256
-15.440	0.004277
-15.435	0.004263
-15.430	0.004262
-15.425	0.004312
-15.420	0.004235
-15.415	0.004263
-15.410	0.004250
-15.405	0.004252
-15.400	0.004230
-15.395	0.004228
-15.390	0.004221
-15.385	0.004201
-15.380	0.004221
-15.375	0.004228
-15.370	0.004193
-15.365	0.004254
-15.360	0.004219
-15.355	0.004219
-15.350	0.004206
-15.345	0.004192
-15.340	0.004201
-15.335	0.004194
-15.330	0.004152
-15.325	0.004178
-15.320	0.004205
-15.315	0.004179
-15.310	0.004171
-15.305	0.004172
-15.300	0.004165
-15.295	0.004165
-15.290	0.004150
-15.285	0.004158
-15.280	0.004165
-15.275	0.004139
-15.270	0.004133
-15.265	0.004134
-15.260	0.004146
-15.255	0.004153
-15.250	0.004119
-15.245	0.004128
-15.240	0.004135
-15.235	0.004114
-15.230	0.004107
-15.225	0.004121
-15.220	0.004142
-15.215	0.004129
-15.210	0.004150
-15.205	0.004125
-15.200	0.004099
-15.195	0.004069
-15.190	0.004098
-15.185	0.004078
-15.180	0.004093
-15.175	0.004109
-15.170	0.004096
-15.165	0.004083
-15.160	0.004097
-15.155	0.004085
-15.150	0.004065
-15.145	0.004095
-15.140	0.004049
-15.135	0.004092
-15.130	0.004077
-15.125	0.004042
-15.120	0.004090
-15.115	0.004098
-15.110	0.004078
-15.105	0.004084
-15.100	0.004071
-15.095	0.004098
-15.090	0.004085
-15.085	0.004078
-15.080	0.004070
-15.075	0.004051
-15.070	0.004065
-15.065	0.004058
-15.060	0.004056
-15.055	0.004070
-15.050	0.004057
-15.045	0.004050
-15.040	0.004057
-15.035	0.004051
-15.030	0.004070
-15.025	0.004049
-15.020	0.004070
-15.015	0.004056
-15.010	0.004050
-15.005	0.004016
-15.000	0.004029
-14.995	0.004039
-14.990	0.004046
-14.985	0.004011
-14.980	0.004024
-14.975	0.004017
-14.970	0.004023
-14.965	0.004015
-14.960	0.004021
-14.955	0.004027
-14.950	0.004032
-14.945	0.004045
-14.940	0.004004
-14.935	0.003985
-14.930	0.004010
-14.925	0.004001
-14.920	0.004021
-14.915	0.003973
-14.910	0.004006
-14.905	0.004013
-14.900	0.003985
-14.895	0.004026
-14.890	0.003984
-14.885	0.003991
-14.880	0.003962
-14.875	0.003977
-14.870	0.003950
-14.865	0.003949
-14.860	0.003966
-14.855	0.003960
-14.850	0.003939
-14.845	0.004007
-14.840	0.003952
-14.835	0.003945
-14.830	0.003931
-14.825	0.003958
-14.820	0.003909
-14.815	0.003923
-14.810	0.003923
-14.805	0.003939
-14.800	0.003918
-14.795	0.003895
-14.790	0.003908
-14.785	0.003867
-14.780	0.003874
-14.775	0.003888
-14.770	0.003874
-14.765	0.003902
-14.760	0.003909
-14.755	0.003916
-14.750	0.003902
-14.745	0.003875
-14.740	0.003884
-14.735	0.003884
-14.730	0.003897
-14.725	0.003896
-14.720	0.003862
-14.715	0.003897
-14.710	0.003862
-14.705	0.003877
-14.700	0.003876
-14.695	0.003862
-14.690	0.003848
-14.685	0.003861
-14.680	0.003855
-14.675	0.003863
-14.670	0.003844
-14.665	0.003802
-14.660	0.003821
-14.655	0.003800
-14.650	0.003827
-14.645	0.003841
-14.640	0.003862
-14.635	0.003856
-14.630	0.003835
-14.625	0.003856
-14.620	0.003815
-14.615	0.003828
-14.610	0.003828
-14.605	0.003871
-14.600	0.003821
-14.595	0.003820
-14.590	0.003827
-14.585	0.003806
-14.580	0.003799
-14.575	0.003805
-14.570	0.003826
-14.565	0.003812
-14.560	0.003778
-14.555	0.003798
-14.550	0.003790
-14.545	0.003783
-14.540	0.003777
-14.535	0.003778
-14.530	0.003797
-14.525	0.003789
-14.520	0.003788
-14.515	0.003782
-14.510	0.003768
-14.505	0.003768
-14.500	0.003762
-14.495	0.003789
-14.490	0.003768
-14.485	0.003768
-14.480	0.003761
-14.475	0.003755
-14.470	0.003783
-14.465	0.003747
-14.460	0.003746
-14.455	0.003725
-14.450	0.003745
-14.445	0.003766
-14.440	0.003711
-14.435	0.003739
-14.430	0.003758
-14.425	0.003744
-14.420	0.003743
-14.415	0.003708
-14.410	0.003695
-14.405	0.003724
-14.400	0.003731
-14.395	0.003722
-14.390	0.003714
-14.385	0.003721
-14.380	0.003714
-14.375	0.003700
-14.370	0.003721
-14.365	0.003728
-14.360	0.003694
-14.355	0.003701
-14.350	0.003721
-14.345	0.003681
-14.340	0.003681
-14.335	0.003702
-14.330	0.003639
-14.325	0.003659
-14.320	0.003693
-14.315	0.003652
-14.310	0.003652
-14.305	0.003652
-14.300	0.003672
-14.295	0.003679
-14.290	0.003638
-14.285	0.003685
-14.280	0.003665
-14.275	0.003666
-14.270	0.003667
-14.265	0.003639
-14.260	0.003630
-14.255	0.003644
-14.250	0.003637
-14.245	0.003630
-14.240	0.003651
-14.235	0.003651
-14.230	0.003645
-14.225	0.003665
-14.220	0.003652
-14.215	0.003645
-14.210	0.003619
-14.205	0.003606
-14.200	0.003619
-14.195	0.003610
-14.190	0.003589
-14.185	0.003630
-14.180	0.003617
-14.175	0.003611
-14.170	0.003603
-14.165	0.003610
-14.160	0.003603
-14.155	0.003630
-14.150	0.003602
-14.145	0.003609
-14.140	0.003617
-14.135	0.003570
-14.130	0.003575
-14.125	0.003595
-14.120	0.003582
-14.115	0.003575
-14.110	0.003609
-14.105	0.003595
-14.100	0.003581
-14.095	0.003581
-14.090	0.003567
-14.085	0.003560
-14.080	0.003588
-14.075	0.003569
-14.070	0.003535
-14.065	0.003561
-14.060	0.003526
-14.055	0.003546
-14.050	0.003560
-14.045	0.003519
-14.040	0.003560
-14.035	0.003553
-14.030	0.003560
-14.025	0.003580
-14.020	0.003545
-14.015	0.003524
-14.010	0.003553
-14.005	0.003512
-14.000	0.003492
-13.995	0.003504
-13.990	0.003511
-13.985	0.003511
-13.980	0.003504
-13.975	0.003484
-13.970	0.003510
-13.965	0.003538
-13.960	0.003490
-13.955	0.003504
-13.950	0.003476
-13.945	0.003497
-13.940	0.003499
-13.935	0.003478
-13.930	0.003483
-13.925	0.003463
-13.920	0.003470
-13.915	0.003463
-13.910	0.003469
-13.905	0.003497
-13.900	0.003497
-13.895	0.003497
-13.890	0.003449
-13.885	0.003490
-13.880	0.003497
-13.875	0.003464
-13.870	0.003464
-13.865	0.003423
-13.860	0.003469
-13.855	0.003456
-13.850	0.003421
-13.845	0.003434
-13.840	0.003441
-13.835	0.003441
-13.830	0.003476
-13.825	0.003454
-13.820	0.003482
-13.815	0.003434
-13.810	0.003470
-13.805	0.003470
-13.800	0.003429
-13.795	0.003406
-13.790	0.003420
-13.785	0.003447
-13.780	0.003461
-13.775	0.003440
-13.770	0.003433
-13.765	0.003453
-13.760	0.003426
-13.755	0.003425
-13.750	0.003459
-13.745	0.003433
-13.740	0.003426
-13.735	0.003420
-13.730	0.003405
-13.725	0.003417
-13.720	0.003417
-13.715	0.003411
-13.710	0.003417
-13.705	0.003404
-13.700	0.003424
-13.695	0.003398
-13.690	0.003382
-13.685	0.003404
-13.680	0.003403
-13.675	0.003384
-13.670	0.003391
-13.665	0.003390
-13.660	0.003389
-13.655	0.003396
-13.650	0.003375
-13.645	0.003382
-13.640	0.003382
-13.635	0.003410
-13.630	0.003410
-13.625	0.003403
-13.620	0.003368
-13.615	0.003382
-13.610	0.003369
-13.605	0.003351
-13.600	0.003350
-13.595	0.003328
-13.590	0.003321
-13.585	0.003356
-13.580	0.003342
-13.575	0.003343
-13.570	0.003363
-13.565	0.003363
-13.560	0.003378
-13.555	0.003329
-13.550	0.003322
-13.545	0.003316
-13.540	0.003338
-13.535	0.003318
-13.530	0.003302
-13.525	0.003344
-13.520	0.003310
-13.515	0.003290
-13.510	0.003277
-13.505	0.003311
-13.500	0.003305
-13.495	0.003319
-13.490	0.003339
-13.485	0.003325
-13.480	0.003298
-13.475	0.003321
-13.470	0.003294
-13.465	0.003280
-13.460	0.003279
-13.455	0.003272
-13.450	0.003273
-13.445	0.003287
-13.440	0.003302
-13.435	0.003275
-13.430	0.003289
-13.425	0.003304
-13.420	0.003317
-13.415	0.003310
-13.410	0.003257
-13.405	0.003272
-13.400	0.003250
-13.395	0.003290
-13.390	0.003283
-13.385	0.003262
-13.380	0.003269
-13.375	0.003263
-13.370	0.003249
-13.365	0.003235
-13.360	0.003289
-13.355	0.003255
-13.350	0.003269
-13.345	0.003234
-13.340	0.003277
-13.335	0.003263
-13.330	0.003234
-13.325	0.003234
-13.320	0.003213
-13.315	0.003247
-13.310	0.003206
-13.305	0.003261
-13.300	0.003254
-13.295	0.003219
-13.290	0.003246
-13.285	0.003247
-13.280	0.003253
-13.275	0.003206
-13.270	0.003235
-13.265	0.003198
-13.260	0.003217
-13.255	0.003245
-13.250	0.003204
-13.245	0.003245
-13.240	0.003232
-13.235	0.003225
-13.230	0.003204
-13.225	0.003252
-13.220	0.003216
-13.215	0.003230
-13.210	0.003197
-13.205	0.003197
-13.200	0.003204
-13.195	0.003196
-13.190	0.003215
-13.185	0.003201
-13.180	0.003194
-13.175	0.003160
-13.170	0.003222
-13.165	0.003215
-13.160	0.003187
-13.155	0.003201
-13.150	0.003146
-13.145	0.003160
-13.140	0.003161
-13.135	0.003181
-13.130	0.003138
-13.125	0.003159
-13.120	0.003145
-13.115	0.003166
-13.110	0.003159
-13.105	0.003165
-13.100	0.003172
-13.095	0.003152
-13.090	0.003138
-13.085	0.003152
-13.080	0.003145
-13.075	0.003140
-13.070	0.003147
-13.065	0.003152
-13.060	0.003124
-13.055	0.003104
-13.050	0.003124
-13.045	0.003138
-13.040	0.003111
-13.035	0.003145
-13.030	0.003091
-13.025	0.003139
-13.020	0.003125
-13.015	0.003105
-13.010	0.003113
-13.005	0.003114
-13.000	0.003092
-12.995	0.003084
-12.990	0.003098
-12.985	0.003112
-12.980	0.003084
-12.975	0.003119
-12.970	0.003084
-12.965	0.003112
-12.960	0.003105
-12.955	0.003118
-12.950	0.003090
-12.945	0.003098
-12.940	0.003099
-12.935	0.003072
-12.930	0.003064
-12.925	0.003071
-12.920	0.003070
-12.915	0.003049
-12.910	0.003077
-12.905	0.003077
-12.900	0.003085
-12.895	0.003057
-12.890	0.003098
-12.885	0.003105
-12.880	0.003064
-12.875	0.003065
-12.870	0.003024
-12.865	0.003050
-12.860	0.003070
-12.855	0.003043
-12.850	0.003042
-12.845	0.003070
-12.840	0.003022
-12.835	0.003035
-12.830	0.003042
-12.825	0.003063
-12.820	0.003062
-12.815	0.003075
-12.810	0.003028
-12.805	0.003049
-12.800	0.003007
-12.795	0.003020
-12.790	0.003019
-12.785	0.003026
-12.780	0.003026
-12.775	0.003040
-12.770	0.003033
-12.765	0.003047
-12.760	0.003012
-12.755	0.003033
-12.750	0.002998
-12.745	0.003013
-12.740	0.003000
-12.735	0.003020
-12.730	0.002977
-12.725	0.003012
-12.720	0.002992
-12.715	0.002998
-12.710	0.002998
-12.705	0.003027
-12.700	0.003012
-12.695	0.003019
-12.690	0.002984
-12.685	0.003025
-12.680	0.002963
-12.675	0.003019
-12.670	0.002992
-12.665	0.002977
-12.660	0.002983
-12.655	0.002997
-12.650	0.002983
-12.645	0.002976
-12.640	0.002975
-12.635	0.002996
-12.630	0.002975
-12.625	0.003003
-12.620	0.003010
-12.615	0.002962
-12.610	0.002970
-12.605	0.002971
-12.600	0.002956
-12.595	0.002955
-12.590	0.002983
-12.585	0.002927
-12.580	0.002968
-12.575	0.002955
-12.570	0.002955
-12.565	0.002961
-12.560	0.003010
-12.555	0.002982
-12.550	0.002947
-12.545	0.002934
-12.540	0.002942
-12.535	0.002949
-12.530	0.002961
-12.525	0.002954
-12.520	0.002940
-12.515	0.002926
-12.510	0.002933
-12.505	0.002933
-12.500	0.002974
-12.495	0.002961
-12.490	0.002953
-12.485	0.002926
-12.480	0.002920
-12.475	0.002914
-12.470	0.002908
-12.465	0.002920
-12.460	0.002912
-12.455	0.002919
-12.450	0.002906
-12.445	0.002940
-12.440	0.002953
-12.435	0.002933
-12.430	0.002919
-12.425	0.002912
-12.420	0.002898
-12.415	0.002904
-12.410	0.002898
-12.405	0.002892
-12.400	0.002919
-12.395	0.002911
-12.390	0.002918
-12.385	0.002938
-12.380	0.002890
-12.375	0.002911
-12.370	0.002883
-12.365	0.002904
-12.360	0.002890
-12.355	0.002904
-12.350	0.002876
-12.345	0.002871
-12.340	0.002899
-12.335	0.002885
-12.330	0.002863
-12.325	0.002869
-12.320	0.002889
-12.315	0.002876
-12.310	0.002848
-12.305	0.002869
-12.300	0.002896
-12.295	0.002876
-12.290	0.002889
-12.285	0.002882
-12.280	0.002861
-12.275	0.002862
-12.270	0.002821
-12.265	0.002847
-12.260	0.002860
-12.255	0.002839
-12.250	0.002846
-12.245	0.002860
-12.240	0.002888
-12.235	0.002867
-12.230	0.002860
-12.225	0.002847
-12.220	0.002846
-12.215	0.002839
-12.210	0.002868
-12.205	0.002827
-12.200	0.002819
-12.195	0.002846
-12.190	0.002818
-12.185	0.002832
-12.180	0.002810
-12.175	0.002832
-12.170	0.002797
-12.165	0.002859
-12.160	0.002852
-12.155	0.002838
-12.150	0.002851
-12.145	0.002817
-12.140	0.002818
-12.135	0.002797
-12.130	0.002802
-12.125	0.002830
-12.120	0.002802
-12.115	0.002789
-12.110	0.002830
-12.105	0.002809
-12.100	0.002810
-12.095	0.002802
-12.090	0.002823
-12.085	0.002788
-12.080	0.002809
-12.075	0.002803
-12.070	0.002803
-12.065	0.002795
-12.060	0.002767
-12.055	0.002801
-12.050	0.002780
-12.045	0.002822
-12.040	0.002787
-12.035	0.002794
-12.030	0.002794
-12.025	0.002794
-12.020	0.002807
-12.015	0.002793
-12.010	0.002773
-12.005	0.002768
-12.000	0.002759
-11.995	0.002752
-11.990	0.002758
-11.985	0.002779
-11.980	0.002751
-11.975	0.002793
-11.970	0.002772
-11.965	0.002765
-11.960	0.002779
-11.955	0.002772
-11.950	0.002737
-11.945	0.002766
-11.940	0.002767
-11.935	0.002719
-11.930	0.002738
-11.925	0.002738
-11.920	0.002710
-11.915	0.002779
-11.910	0.002731
-11.905	0.002731
-11.900	0.002723
-11.895	0.002744
-11.890	0.002744
-11.885	0.002730
-11.880	0.002703
-11.875	0.002745
-11.870	0.002718
-11.865	0.002709
-11.860	0.002771
-11.855	0.002737
-11.850	0.002730
-11.845	0.002709
-11.840	0.002730
-11.835	0.002744
-11.830	0.002723
-11.825	0.002736
-11.820	0.002736
-11.815	0.002729
-11.810	0.002689
-11.805	0.002724
-11.800	0.002717
-11.795	0.002737
-11.790	0.002703
-11.785	0.002682
-11.780	0.002716
-11.775	0.002709
-11.770	0.002681
-11.765	0.002696
-11.760	0.002723
-11.755	0.002758
-11.750	0.002695
-11.745	0.002696
-11.740	0.002711
-11.735	0.002676
-11.730	0.002675
-11.725	0.002682
-11.720	0.002661
-11.715	0.002689
-11.710	0.002668
-11.705	0.002710
-11.700	0.002683
-11.695	0.002710
-11.690	0.002696
-11.685	0.002689
-11.680	0.002683
-11.675	0.002650
-11.670	0.002684
-11.665	0.002649
-11.660	0.002641
-11.655	0.002648
-11.650	0.002648
-11.645	0.002649
-11.640	0.002676
-11.635	0.002676
-11.630	0.002628
-11.625	0.002663
-11.620	0.002642
-11.615	0.002662
-11.610	0.002615
-11.605	0.002616
-11.600	0.002663
-11.595	0.002628
-11.590	0.002634
-11.585	0.002634
-11.580	0.002648
-11.575	0.002635
-11.570	0.002641
-11.565	0.002649
-11.560	0.002662
-11.555	0.002628
-11.550	0.002614
-11.545	0.002629
-11.540	0.002630
-11.535	0.002643
-11.530	0.002628
-11.525	0.002622
-11.520	0.002615
-11.515	0.002629
-11.510	0.002629
-11.505	0.002643
-11.500	0.002615
-11.495	0.002609
-11.490	0.002615
-11.485	0.002615
-11.480	0.002622
-11.475	0.002616
-11.470	0.002596
-11.465	0.002594
-11.460	0.002600
-11.455	0.002614
-11.450	0.002628
-11.445	0.002615
-11.440	0.002594
-11.435	0.002595
-11.430	0.002608
-11.425	0.002601
-11.420	0.002601
-11.415	0.002622
-11.410	0.002595
-11.405	0.002569
-11.400	0.002567
-11.395	0.002594
-11.390	0.002566
-11.385	0.002580
-11.380	0.002601
-11.375	0.002573
-11.370	0.002573
-11.365	0.002573
-11.360	0.002566
-11.355	0.002600
-11.350	0.002579
-11.345	0.002573
-11.340	0.002574
-11.335	0.002574
-11.330	0.002552
-11.325	0.002586
-11.320	0.002545
-11.315	0.002552
-11.310	0.002587
-11.305	0.002566
-11.300	0.002552
-11.295	0.002552
-11.290	0.002552
-11.285	0.002566
-11.280	0.002560
-11.275	0.002560
-11.270	0.002533
-11.265	0.002545
-11.260	0.002538
-11.255	0.002545
-11.250	0.002552
-11.245	0.002518
-11.240	0.002553
-11.235	0.002539
-11.230	0.002539
-11.225	0.002545
-11.220	0.002572
-11.215	0.002538
-11.210	0.002532
-11.205	0.002532
-11.200	0.002517
-11.195	0.002503
-11.190	0.002503
-11.185	0.002510
-11.180	0.002503
-11.175	0.002537
-11.170	0.002531
-11.165	0.002544
-11.160	0.002523
-11.155	0.002545
-11.150	0.002510
-11.145	0.002512
-11.140	0.002505
-11.135	0.002497
-11.130	0.002489
-11.125	0.002496
-11.120	0.002489
-11.115	0.002497
-11.110	0.002490
-11.105	0.002517
-11.100	0.002490
-11.095	0.002510
-11.090	0.002496
-11.085	0.002489
-11.080	0.002496
-11.075	0.002491
-11.070	0.002470
-11.065	0.002468
-11.060	0.002482
-11.055	0.002468
-11.050	0.002468
-11.045	0.002468
-11.040	0.002454
-11.035	0.002455
-11.030	0.002455
-11.025	0.002461
-11.020	0.002489
-11.015	0.002441
-11.010	0.002463
-11.005	0.002470
-11.000	0.002420
-10.995	0.002475
-10.990	0.002440
-10.985	0.002427
-10.980	0.002434
-10.975	0.002454
-10.970	0.002461
-10.965	0.002454
-10.960	0.002454
-10.955	0.002447
-10.950	0.002433
-10.945	0.002434
-10.940	0.002427
-10.935	0.002440
-10.930	0.002398
-10.925	0.002411
-10.920	0.002431
-10.915	0.002425
-10.910	0.002404
-10.905	0.002418
-10.900	0.002439
-10.895	0.002446
-10.890	0.002418
-10.885	0.002424
-10.880	0.002411
-10.875	0.002405
-10.870	0.002405
-10.865	0.002383
-10.860	0.002397
-10.855	0.002397
-10.850	0.002417
-10.845	0.002396
-10.840	0.002410
-10.835	0.002410
-10.830	0.002389
-10.825	0.002410
-10.820	0.002416
-10.815	0.002416
-10.810	0.002376
-10.805	0.002390
-10.800	0.002381
-10.795	0.002361
-10.790	0.002381
-10.785	0.002381
-10.780	0.002381
-10.775	0.002408
-10.770	0.002381
-10.765	0.002409
-10.760	0.002381
-10.755	0.002374
-10.750	0.002367
-10.745	0.002368
-10.740	0.002383
-10.735	0.002347
-10.730	0.002360
-10.725	0.002360
-10.720	0.002367
-10.715	0.002340
-10.710	0.002353
-10.705	0.002388
-10.700	0.002374
-10.695	0.002347
-10.690	0.002353
-10.685	0.002353
-10.680	0.002340
-10.675	0.002347
-10.670	0.002361
-10.665	0.002340
-10.660	0.002347
-10.655	0.002319
-10.650	0.002347
-10.645	0.002367
-10.640	0.002354
-10.635	0.002326
-10.630	0.002325
-10.625	0.002333
-10.620	0.002298
-10.615	0.002306
-10.610	0.002341
-10.605	0.002328
-10.600	0.002354
-10.595	0.002326
-10.590	0.002299
-10.585	0.002327
-10.580	0.002327
-10.575	0.002299
-10.570	0.002327
-10.565	0.002348
-10.560	0.002314
-10.555	0.002321
-10.550	0.002306
-10.545	0.002322
-10.540	0.002295
-10.535	0.002307
-10.530	0.002320
-10.525	0.002299
-10.520	0.002299
-10.515	0.002313
-10.510	0.002300
-10.505	0.002321
-10.500	0.002328
-10.495	0.002314
-10.490	0.002300
-10.485	0.002300
-10.480	0.002308
-10.475	0.002302
-10.470	0.002288
-10.465	0.002280
-10.460	0.002259
-10.455	0.002273
-10.450	0.002307
-10.445	0.002293
-10.440	0.002286
-10.435	0.002259
-10.430	0.002300
-10.425	0.002306
-10.420	0.002258
-10.415	0.002286
-10.410	0.002259
-10.405	0.002287
-10.400	0.002258
-10.395	0.002251
-10.390	0.002271
-10.385	0.002251
-10.380	0.002278
-10.375	0.002265
-10.370	0.002279
-10.365	0.002251
-10.360	0.002258
-10.355	0.002245
-10.350	0.002272
-10.345	0.002281
-10.340	0.002246
-10.335	0.002231
-10.330	0.002244
-10.325	0.002258
-10.320	0.002279
-10.315	0.002231
-10.310	0.002258
-10.305	0.002230
-10.300	0.002244
-10.295	0.002230
-10.290	0.002284
-10.285	0.002236
-10.280	0.002257
-10.275	0.002244
-10.270	0.002237
-10.265	0.002236
-10.260	0.002229
-10.255	0.002221
-10.250	0.002222
-10.245	0.002236
-10.240	0.002229
-10.235	0.002250
-10.230	0.002243
-10.225	0.002229
-10.220	0.002243
-10.215	0.002222
-10.210	0.002216
-10.205	0.002209
-10.200	0.002222
-10.195	0.002201
-10.190	0.002208
-10.185	0.002194
-10.180	0.002229
-10.175	0.002195
-10.170	0.002215
-10.165	0.002222
-10.160	0.002187
-10.155	0.002207
-10.150	0.002208
-10.145	0.002175
-10.140	0.002148
-10.135	0.002188
-10.130	0.002200
-10.125	0.002139
-10.120	0.002179
-10.115	0.002200
-10.110	0.002186
-10.105	0.002214
-10.100	0.002194
-10.095	0.002214
-10.090	0.002200
-10.085	0.002200
-10.080	0.002188
-10.075	0.002174
-10.070	0.002160
-10.065	0.002159
-10.060	0.002173
-10.055	0.002159
-10.050	0.002173
-10.045	0.002173
-10.040	0.002166
-10.035	0.002159
-10.030	0.002165
-10.025	0.002138
-10.020	0.002185
-10.015	0.002186
-10.010	0.002152
-10.005	0.002174
-10.000	0.002151
-9.995	0.002151
-9.990	0.002172
-9.985	0.002171
-9.980	0.002158
-9.975	0.002165
-9.970	0.002166
-9.965	0.002152
-9.960	0.002165
-9.955	0.002145
-9.950	0.002131
-9.945	0.002167
-9.940	0.002126
-9.935	0.002152
-9.930	0.002124
-9.925	0.002165
-9.920	0.002144
-9.915	0.002145
-9.910	0.002138
-9.905	0.002145
-9.900	0.002138
-9.895	0.002152
-9.890	0.002144
-9.885	0.002151
-9.880	0.002173
-9.875	0.002153
-9.870	0.002146
-9.865	0.002110
-9.860	0.002097
-9.855	0.002118
-9.850	0.002117
-9.845	0.002131
-9.840	0.002145
-9.835	0.002152
-9.830	0.002124
-9.825	0.002124
-9.820	0.002131
-9.815	0.002111
-9.810	0.002119
-9.805	0.002098
-9.800	0.002117
-9.795	0.002103
-9.790	0.002117
-9.785	0.002103
-9.780	0.002096
-9.775	0.002145
-9.770	0.002117
-9.765	0.002096
-9.760	0.002116
-9.755	0.002089
-9.750	0.002123
-9.745	0.002090
-9.740	0.002104
-9.735	0.002097
-9.730	0.002055
-9.725	0.002082
-9.720	0.002088
-9.715	0.002076
-9.710	0.002041
-9.705	0.002110
-9.700	0.002075
-9.695	0.002062
-9.690	0.002096
-9.685	0.002075
-9.680	0.002090
-9.675	0.002091
-9.670	0.002069
-9.665	0.002054
-9.660	0.002027
-9.655	0.002048
-9.650	0.002048
-9.645	0.002048
-9.640	0.002046
-9.635	0.002067
-9.630	0.002061
-9.625	0.002046
-9.620	0.002039
-9.615	0.002018
-9.610	0.002038
-9.605	0.002025
-9.600	0.001991
-9.595	0.002011
-9.590	0.001984
-9.585	0.001935
-9.580	0.001908
-9.575	0.001792
-9.570	0.001587
-9.565	0.001230
-9.560	0.000708
-9.555	-0.000117
-9.550	-0.001229
-9.545	-0.002769
-9.540	-0.004758
-9.535	-0.007204
-9.530	-0.009949
-9.525	-0.013125
-9.520	-0.016503
-9.515	-0.020162
-9.510	-0.024302
-9.505	-0.028678
-9.500	-0.033141
-9.495	-0.037576
-9.490	-0.041779
-9.485	-0.045644
-9.480	-0.049353
-9.475	-0.052274
-9.470	-0.053430
-9.465	-0.052237
-9.460	-0.049012
-9.455	-0.044718
-9.450	-0.040522
-9.445	-0.036916
-9.440	-0.033987
-9.435	-0.031622
-9.430	-0.029819
-9.425	-0.028304
-9.420	-0.027124
-9.415	-0.026054
-9.410	-0.025151
-9.405	-0.024330
-9.400	-0.023603
-9.395	-0.022950
-9.390	-0.022347
-9.385	-0.021810
-9.380	-0.021298
-9.375	-0.020767
-9.370	-0.020323
-9.365	-0.019907
-9.360	-0.019512
-9.355	-0.019097
-9.350	-0.018772
-9.345	-0.018429
-9.340	-0.018079
-9.335	-0.017751
-9.330	-0.017421
-9.325	-0.017123
-9.320	-0.016844
-9.315	-0.016584
-9.310	-0.016329
-9.305	-0.016093
-9.300	-0.015825
-9.295	-0.015567
-9.290	-0.015321
-9.285	-0.015060
-9.280	-0.014859
-9.275	-0.014637
-9.270	-0.014435
-9.265	-0.014274
-9.260	-0.014098
-9.255	-0.013915
-9.250	-0.013756
-9.245	-0.013566
-9.240	-0.013374
-9.235	-0.013197
-9.230	-0.013074
-9.225	-0.012932
-9.220	-0.012747
-9.215	-0.012600
-9.210	-0.012450
-9.205	-0.012313
-9.200	-0.012157
-9.195	-0.012050
-9.190	-0.011906
-9.185	-0.011784
-9.180	-0.011676
-9.175	-0.011546
-9.170	-0.011444
-9.165	-0.011312
-9.160	-0.011238
-9.155	-0.011125
-9.150	-0.011023
-9.145	-0.010949
-9.140	-0.010819
-9.135	-0.010699
-9.130	-0.010632
-9.125	-0.010562
-9.120	-0.010460
-9.115	-0.010427
-9.110	-0.010344
-9.105	-0.010212
-9.100	-0.010138
-9.095	-0.010061
-9.090	-0.010012
-9.085	-0.009930
-9.080	-0.009868
-9.075	-0.009768
-9.070	-0.009659
-9.065	-0.009614
-9.060	-0.009491
-9.055	-0.009375
-9.050	-0.009275
-9.045	-0.009204
-9.040	-0.009143
-9.035	-0.009062
-9.030	-0.008966
-9.025	-0.008930
-9.020	-0.008885
-9.015	-0.008782
-9.010	-0.008747
-9.005	-0.008646
-9.000	-0.008581
-8.995	-0.008526
-8.990	-0.008460
-8.985	-0.008408
-8.980	-0.008387
-8.975	-0.008311
-8.970	-0.008274
-8.965	-0.008214
-8.960	-0.008193
-8.955	-0.008156
-8.950	-0.008072
-8.945	-0.007996
-8.940	-0.007997
-8.935	-0.007906
-8.930	-0.007870
-8.925	-0.007833
-8.920	-0.007776
-8.915	-0.007701
-8.910	-0.007724
-8.905	-0.007691
-8.900	-0.007632
-8.895	-0.007557
-8.890	-0.007496
-8.885	-0.007466
-8.880	-0.007429
-8.875	-0.007365
-8.870	-0.007302
-8.865	-0.007287
-8.860	-0.007217
-8.855	-0.007193
-8.850	-0.007115
-8.845	-0.007092
-8.840	-0.007002
-8.835	-0.006989
-8.830	-0.006968
-8.825	-0.006938
-8.820	-0.006841
-8.815	-0.006827
-8.810	-0.006793
-8.805	-0.006745
-8.800	-0.006733
-8.795	-0.006700
-8.790	-0.006662
-8.785	-0.006634
-8.780	-0.006592
-8.775	-0.006585
-8.770	-0.006531
-8.765	-0.006490
-8.760	-0.006433
-8.755	-0.006432
-8.750	-0.006365
-8.745	-0.006365
-8.740	-0.006303
-8.735	-0.006268
-8.730	-0.006226
-8.725	-0.006218
-8.720	-0.006183
-8.715	-0.006176
-8.710	-0.006149
-8.705	-0.006088
-8.700	-0.006047
-8.695	-0.006059
-8.690	-0.005981
-8.685	-0.005987
-8.680	-0.005911
-8.675	-0.005897
-8.670	-0.005911
-8.665	-0.005849
-8.660	-0.005843
-8.655	-0.005774
-8.650	-0.005767
-8.645	-0.005752
-8.640	-0.005718
-8.635	-0.005669
-8.630	-0.005674
-8.625	-0.005630
-8.620	-0.005594
-8.615	-0.005572
-8.610	-0.005530
-8.605	-0.005496
-8.600	-0.005467
-8.595	-0.005439
-8.590	-0.005377
-8.585	-0.005377
-8.580	-0.005336
-8.575	-0.005322
-8.570	-0.005338
-8.565	-0.005317
-8.560	-0.005261
-8.555	-0.005219
-8.550	-0.005192
-8.545	-0.005165
-8.540	-0.005144
-8.535	-0.005124
-8.530	-0.005069
-8.525	-0.005076
-8.520	-0.005028
-8.515	-0.005008
-8.510	-0.004960
-8.505	-0.005002
-8.500	-0.004955
-8.495	-0.004927
-8.490	-0.004927
-8.485	-0.004879
-8.480	-0.004872
-8.475	-0.004852
-8.470	-0.004818
-8.465	-0.004804
-8.460	-0.004743
-8.455	-0.004742
-8.450	-0.004722
-8.445	-0.004708
-8.440	-0.004716
-8.435	-0.004703
-8.430	-0.004689
-8.425	-0.004688
-8.420	-0.004620
-8.415	-0.004634
-8.410	-0.004572
-8.405	-0.004579
-8.400	-0.004558
-8.395	-0.004531
-8.390	-0.004531
-8.385	-0.004517
-8.380	-0.004503
-8.375	-0.004489
-8.370	-0.004470
-8.365	-0.004442
-8.360	-0.004462
-8.355	-0.004448
-8.350	-0.004442
-8.345	-0.004366
-8.340	-0.004360
-8.335	-0.004319
-8.330	-0.004313
-8.325	-0.004307
-8.320	-0.004300
-8.315	-0.004272
-8.310	-0.004264
-8.305	-0.004215
-8.300	-0.004250
-8.295	-0.004235
-8.290	-0.004186
-8.285	-0.004185
-8.280	-0.004220
-8.275	-0.004157
-8.270	-0.004151
-8.265	-0.004130
-8.260	-0.004082
-8.255	-0.004089
-8.250	-0.004061
-8.245	-0.004054
-8.240	-0.004062
-8.235	-0.004035
-8.230	-0.004042
-8.225	-0.004028
-8.220	-0.003987
-8.215	-0.003973
-8.210	-0.003967
-8.205	-0.003946
-8.200	-0.003954
-8.195	-0.003906
-8.190	-0.003899
-8.185	-0.003892
-8.180	-0.003899
-8.175	-0.003851
-8.170	-0.003893
-8.165	-0.003832
-8.160	-0.003832
-8.155	-0.003818
-8.150	-0.003804
-8.145	-0.003825
-8.140	-0.003770
-8.135	-0.003784
-8.130	-0.003770
-8.125	-0.003749
-8.120	-0.003750
-8.115	-0.003715
-8.110	-0.003735
-8.105	-0.003694
-8.100	-0.003687
-8.095	-0.003687
-8.090	-0.003694
-8.085	-0.003666
-8.080	-0.003645
-8.075	-0.003645
-8.070	-0.003604
-8.065	-0.003611
-8.060	-0.003604
-8.055	-0.003597
-8.050	-0.003597
-8.045	-0.003555
-8.040	-0.003562
-8.035	-0.003534
-8.030	-0.003479
-8.025	-0.003492
-8.020	-0.003506
-8.015	-0.003444
-8.010	-0.003471
-8.005	-0.003423
-8.000	-0.003402
-7.995	-0.003409
-7.990	-0.003402
-7.985	-0.003402
-7.980	-0.003368
-7.975	-0.003361
-7.970	-0.003382
-7.965	-0.003375
-7.960	-0.003361
-7.955	-0.003333
-7.950	-0.003333
-7.945	-0.003313
-7.940	-0.003292
-7.935	-0.003292
-7.930	-0.003292
-7.925	-0.003285
-7.920	-0.003244
-7.915	-0.003258
-7.910	-0.003223
-7.905	-0.003231
-7.900	-0.003210
-7.895	-0.003210
-7.890	-0.003203
-7.885	-0.003210
-7.880	-0.003189
-7.875	-0.003169
-7.870	-0.003169
-7.865	-0.003141
-7.860	-0.003141
-7.855	-0.003134
-7.850	-0.003128
-7.845	-0.003086
-7.840	-0.003121
-7.835	-0.003128
-7.830	-0.003087
-7.825	-0.003155
-7.820	-0.003093
-7.815	-0.003086
-7.810	-0.003080
-7.805	-0.003066
-7.800	-0.003073
-7.795	-0.003032
-7.790	-0.003018
-7.785	-0.003032
-7.780	-0.002997
-7.775	-0.003018
-7.770	-0.003005
-7.765	-0.003012
-7.760	-0.002998
-7.755	-0.002984
-7.750	-0.002998
-7.745	-0.002984
-7.740	-0.002957
-7.735	-0.002963
-7.730	-0.002957
-7.725	-0.002950
-7.720	-0.002936
-7.715	-0.002922
-7.710	-0.002936
-7.705	-0.002930
-7.700	-0.002944
-7.695	-0.002929
-7.690	-0.002943
-7.685	-0.002929
-7.680	-0.002909
-7.675	-0.002881
-7.670	-0.002909
-7.665	-0.002902
-7.660	-0.002875
-7.655	-0.002874
-7.650	-0.002881
-7.645	-0.002888
-7.640	-0.002882
-7.635	-0.002834
-7.630	-0.002834
-7.625	-0.002847
-7.620	-0.002799
-7.615	-0.002813
-7.610	-0.002799
-7.605	-0.002792
-7.600	-0.002785
-7.595	-0.002751
-7.590	-0.002772
-7.585	-0.002806
-7.580	-0.002717
-7.575	-0.002752
-7.570	-0.002731
-7.565	-0.002738
-7.560	-0.002724
-7.555	-0.002738
-7.550	-0.002690
-7.545	-0.002662
-7.540	-0.002669
-7.535	-0.002662
-7.530	-0.002621
-7.525	-0.002635
-7.520	-0.002594
-7.515	-0.002614
-7.510	-0.002607
-7.505	-0.002566
-7.500	-0.002580
-7.495	-0.002573
-7.490	-0.002546
-7.485	-0.002518
-7.480	-0.002532
-7.475	-0.002518
-7.470	-0.002498
-7.465	-0.002477
-7.460	-0.002470
-7.455	-0.002450
-7.450	-0.002484
-7.445	-0.002491
-7.440	-0.002484
-7.435	-0.002478
-7.430	-0.002498
-7.425	-0.002505
-7.420	-0.002505
-7.415	-0.002505
-7.410	-0.002505
-7.405	-0.002491
-7.400	-0.002478
-7.395	-0.002478
-7.390	-0.002464
-7.385	-0.002423
-7.380	-0.002491
-7.375	-0.002450
-7.370	-0.002430
-7.365	-0.002423
-7.360	-0.002402
-7.355	-0.002402
-7.350	-0.002416
-7.345	-0.002388
-7.340	-0.002368
-7.335	-0.002361
-7.330	-0.002381
-7.325	-0.002354
-7.320	-0.002368
-7.315	-0.002340
-7.310	-0.002340
-7.305	-0.002361
-7.300	-0.002347
-7.295	-0.002361
-7.290	-0.002340
-7.285	-0.002354
-7.280	-0.002361
-7.275	-0.002361
-7.270	-0.002354
-7.265	-0.002340
-7.260	-0.002368
-7.255	-0.002375
-7.250	-0.002333
-7.245	-0.002313
-7.240	-0.002334
-7.235	-0.002334
-7.230	-0.002320
-7.225	-0.002327
-7.220	-0.002285
-7.215	-0.002299
-7.210	-0.002279
-7.205	-0.002286
-7.200	-0.002258
-7.195	-0.002258
-7.190	-0.002231
-7.185	-0.002217
-7.180	-0.002190
-7.175	-0.002203
-7.170	-0.002190
-7.165	-0.002190
-7.160	-0.002203
-7.155	-0.002190
-7.150	-0.002176
-7.145	-0.002183
-7.140	-0.002162
-7.135	-0.002156
-7.130	-0.002162
-7.125	-0.002163
-7.120	-0.002176
-7.115	-0.002156
-7.110	-0.002149
-7.105	-0.002163
-7.100	-0.002149
-7.095	-0.002149
-7.090	-0.002183
-7.085	-0.002183
-7.080	-0.002176
-7.075	-0.002129
-7.070	-0.002135
-7.065	-0.002115
-7.060	-0.002122
-7.055	-0.002101
-7.050	-0.002136
-7.045	-0.002142
-7.040	-0.002115
-7.035	-0.002156
-7.030	-0.002122
-7.025	-0.002115
-7.020	-0.002101
-7.015	-0.002108
-7.010	-0.002101
-7.005	-0.002101
-7.000	-0.002047
-6.995	-0.002053
-6.990	-0.002067
-6.985	-0.002040
-6.980	-0.002060
-6.975	-0.002054
-6.970	-0.002061
-6.965	-0.002054
-6.960	-0.002047
-6.955	-0.002026
-6.950	-0.002013
-6.945	-0.002033
-6.940	-0.002033
-6.935	-0.002006
-6.930	-0.001999
-6.925	-0.002006
-6.920	-0.001992
-6.915	-0.001972
-6.910	-0.001985
-6.905	-0.001985
-6.900	-0.001999
-6.895	-0.001979
-6.890	-0.001979
-6.885	-0.001972
-6.880	-0.001972
-6.875	-0.001965
-6.870	-0.001958
-6.865	-0.001979
-6.860	-0.001999
-6.855	-0.001999
-6.850	-0.001993
-6.845	-0.002034
-6.840	-0.001979
-6.835	-0.002027
-6.830	-0.002013
-6.825	-0.002041
-6.820	-0.002020
-6.815	-0.002041
-6.810	-0.002027
-6.805	-0.002007
-6.800	-0.002034
-6.795	-0.002027
-6.790	-0.002034
-6.785	-0.002041
-6.780	-0.002041
-6.775	-0.002034
-6.770	-0.002041
-6.765	-0.002028
-6.760	-0.002034
-6.755	-0.001986
-6.750	-0.001980
-6.745	-0.002014
-6.740	-0.001986
-6.735	-0.001973
-6.730	-0.001938
-6.725	-0.001945
-6.720	-0.001945
-6.715	-0.001904
-6.710	-0.001952
-6.705	-0.001925
-6.700	-0.001918
-6.695	-0.001925
-6.690	-0.001918
-6.685	-0.001863
-6.680	-0.001870
-6.675	-0.001877
-6.670	-0.001863
-6.665	-0.001870
-6.660	-0.001863
-6.655	-0.001850
-6.650	-0.001795
-6.645	-0.001850
-6.640	-0.001822
-6.635	-0.001822
-6.630	-0.001822
-6.625	-0.001843
-6.620	-0.001809
-6.615	-0.001822
-6.610	-0.001836
-6.605	-0.001816
-6.600	-0.001816
-6.595	-0.001781
-6.590	-0.001802
-6.585	-0.001843
-6.580	-0.001823
-6.575	-0.001809
-6.570	-0.001823
-6.565	-0.001843
-6.560	-0.001816
-6.555	-0.001816
-6.550	-0.001823
-6.545	-0.001795
-6.540	-0.001802
-6.535	-0.001809
-6.530	-0.001768
-6.525	-0.001816
-6.520	-0.001789
-6.515	-0.001789
-6.510	-0.001775
-6.505	-0.001802
-6.500	-0.001796
-6.495	-0.001816
-6.490	-0.001789
-6.485	-0.001796
-6.480	-0.001768
-6.475	-0.001741
-6.470	-0.001755
-6.465	-0.001775
-6.460	-0.001755
-6.455	-0.001761
-6.450	-0.001741
-6.445	-0.001727
-6.440	-0.001762
-6.435	-0.001734
-6.430	-0.001755
-6.425	-0.001741
-6.420	-0.001734
-6.415	-0.001734
-6.410	-0.001707
-6.405	-0.001707
-6.400	-0.001727
-6.395	-0.001700
-6.390	-0.001693
-6.385	-0.001686
-6.380	-0.001707
-6.375	-0.001707
-6.370	-0.001686
-6.365	-0.001700
-6.360	-0.001714
-6.355	-0.001686
-6.350	-0.001700
-6.345	-0.001652
-6.340	-0.001687
-6.335	-0.001693
-6.330	-0.001680
-6.325	-0.001659
-6.320	-0.001687
-6.315	-0.001673
-6.310	-0.001646
-6.305	-0.001652
-6.300	-0.001694
-6.295	-0.001646
-6.290	-0.001673
-6.285	-0.001659
-6.280	-0.001659
-6.275	-0.001646
-6.270	-0.001632
-6.265	-0.001611
-6.260	-0.001611
-6.255	-0.001632
-6.250	-0.001625
-6.245	-0.001618
-6.240	-0.001653
-6.235	-0.001653
-6.230	-0.001605
-6.225	-0.001612
-6.220	-0.001619
-6.215	-0.001625
-6.210	-0.001598
-6.205	-0.001591
-6.200	-0.001591
-6.195	-0.001543
-6.190	-0.001591
-6.185	-0.001578
-6.180	-0.001591
-6.175	-0.001571
-6.170	-0.001591
-6.165	-0.001598
-6.160	-0.001564
-6.155	-0.001571
-6.150	-0.001550
-6.145	-0.001578
-6.140	-0.001564
-6.135	-0.001530
-6.130	-0.001530
-6.125	-0.001537
-6.120	-0.001571
-6.115	-0.001557
-6.110	-0.001578
-6.105	-0.001557
-6.100	-0.001530
-6.095	-0.001543
-6.090	-0.001564
-6.085	-0.001557
-6.080	-0.001523
-6.075	-0.001543
-6.070	-0.001557
-6.065	-0.001529
-6.060	-0.001509
-6.055	-0.001495
-6.050	-0.001474
-6.045	-0.001509
-6.040	-0.001509
-6.035	-0.001495
-6.030	-0.001481
-6.025	-0.001481
-6.020	-0.001468
-6.015	-0.001454
-6.010	-0.001427
-6.005	-0.001447
-6.000	-0.001427
-5.995	-0.001461
-5.990	-0.001427
-5.985	-0.001448
-5.980	-0.001407
-5.975	-0.001400
-5.970	-0.001400
-5.965	-0.001421
-5.960	-0.001393
-5.955	-0.001373
-5.950	-0.001387
-5.945	-0.001394
-5.940	-0.001346
-5.935	-0.001332
-5.930	-0.001325
-5.925	-0.001332
-5.920	-0.001332
-5.915	-0.001339
-5.910	-0.001318
-5.905	-0.001291
-5.900	-0.001325
-5.895	-0.001318
-5.890	-0.001298
-5.885	-0.001318
-5.880	-0.001270
-5.875	-0.001277
-5.870	-0.001250
-5.865	-0.001284
-5.860	-0.001236
-5.855	-0.001223
-5.850	-0.001250
-5.845	-0.001229
-5.840	-0.001257
-5.835	-0.001257
-5.830	-0.001271
-5.825	-0.001271
-5.820	-0.001291
-5.815	-0.001284
-5.810	-0.001278
-5.805	-0.001278
-5.800	-0.001332
-5.795	-0.001394
-5.790	-0.001415
-5.785	-0.001449
-5.780	-0.001525
-5.775	-0.001587
-5.770	-0.001655
-5.765	-0.001738
-5.760	-0.001841
-5.755	-0.001964
-5.750	-0.002019
-5.745	-0.002129
-5.740	-0.002232
-5.735	-0.002329
-5.730	-0.002418
-5.725	-0.002480
-5.720	-0.002542
-5.715	-0.002590
-5.710	-0.002611
-5.705	-0.002611
-5.700	-0.002542
-5.695	-0.002466
-5.690	-0.002398
-5.685	-0.002281
-5.680	-0.002171
-5.675	-0.002006
-5.670	-0.001876
-5.665	-0.001766
-5.660	-0.001587
-5.655	-0.001470
-5.650	-0.001346
-5.645	-0.001291
-5.640	-0.001207
-5.635	-0.001145
-5.630	-0.001124
-5.625	-0.001103
-5.620	-0.001076
-5.615	-0.001082
-5.610	-0.001096
-5.605	-0.001068
-5.600	-0.001068
-5.595	-0.001088
-5.590	-0.001040
-5.585	-0.001061
-5.580	-0.001047
-5.575	-0.001019
-5.570	-0.001095
-5.565	-0.001047
-5.560	-0.001054
-5.555	-0.001082
-5.550	-0.001068
-5.545	-0.001034
-5.540	-0.001041
-5.535	-0.001049
-5.530	-0.001056
-5.525	-0.001049
-5.520	-0.001050
-5.515	-0.001057
-5.510	-0.001064
-5.505	-0.001064
-5.500	-0.001071
-5.495	-0.001099
-5.490	-0.001044
-5.485	-0.001079
-5.480	-0.001086
-5.475	-0.001079
-5.470	-0.001072
-5.465	-0.001079
-5.460	-0.001017
-5.455	-0.000893
-5.450	-0.000563
-5.445	0.000049
-5.440	0.000939
-5.435	0.002138
-5.430	0.003983
-5.425	0.006375
-5.420	0.009400
-5.415	0.013071
-5.410	0.016816
-5.405	0.021405
-5.400	0.026473
-5.395	0.031530
-5.390	0.037330
-5.385	0.043925
-5.380	0.049917
-5.375	0.055194
-5.370	0.060754
-5.365	0.066918
-5.360	0.071981
-5.355	0.073982
-5.350	0.072720
-5.345	0.069420
-5.340	0.065214
-5.335	0.060900
-5.330	0.057059
-5.325	0.053649
-5.320	0.050823
-5.315	0.048479
-5.310	0.046391
-5.305	0.044579
-5.300	0.042937
-5.295	0.041420
-5.290	0.040070
-5.285	0.038891
-5.280	0.037774
-5.275	0.036783
-5.270	0.035929
-5.265	0.035100
-5.260	0.034374
-5.255	0.033747
-5.250	0.033109
-5.245	0.032525
-5.240	0.031953
-5.235	0.031315
-5.230	0.030720
-5.225	0.030100
-5.220	0.029533
-5.215	0.029039
-5.210	0.028610
-5.205	0.028174
-5.200	0.027679
-5.195	0.027224
-5.190	0.026754
-5.185	0.026362
-5.180	0.025971
-5.175	0.025520
-5.170	0.025138
-5.165	0.024796
-5.160	0.024460
-5.155	0.024160
-5.150	0.023828
-5.145	0.023574
-5.140	0.023310
-5.135	0.022990
-5.130	0.022730
-5.125	0.022499
-5.120	0.022262
-5.115	0.022112
-5.110	0.021917
-5.105	0.021702
-5.100	0.021545
-5.095	0.021323
-5.090	0.021148
-5.085	0.020955
-5.080	0.020735
-5.075	0.020599
-5.070	0.020411
-5.065	0.020268
-5.060	0.020115
-5.055	0.019922
-5.050	0.019780
-5.045	0.019595
-5.040	0.019348
-5.035	0.019133
-5.030	0.018883
-5.025	0.018730
-5.020	0.018655
-5.015	0.018544
-5.010	0.018443
-5.005	0.018315
-5.000	0.018127
-4.995	0.017879
-4.990	0.017687
-4.985	0.017488
-4.980	0.017384
-4.975	0.017220
-4.970	0.017108
-4.965	0.016952
-4.960	0.016829
-4.955	0.016684
-4.950	0.016576
-4.945	0.016472
-4.940	0.016356
-4.935	0.016242
-4.930	0.016102
-4.925	0.015936
-4.920	0.015786
-4.915	0.015688
-4.910	0.015678
-4.905	0.015603
-4.900	0.015545
-4.895	0.015519
-4.890	0.015535
-4.885	0.015510
-4.880	0.015470
-4.875	0.015400
-4.870	0.015270
-4.865	0.015164
-4.860	0.015077
-4.855	0.015006
-4.850	0.014879
-4.845	0.014839
-4.840	0.014803
-4.835	0.014771
-4.830	0.014690
-4.825	0.014562
-4.820	0.014457
-4.815	0.014337
-4.810	0.014253
-4.805	0.014131
-4.800	0.014012
-4.795	0.013908
-4.790	0.013800
-4.785	0.013692
-4.780	0.013715
-4.775	0.013604
-4.770	0.013508
-4.765	0.013434
-4.760	0.013331
-4.755	0.013271
-4.750	0.013210
-4.745	0.013167
-4.740	0.013141
-4.735	0.013153
-4.730	0.013105
-4.725	0.013069
-4.720	0.012995
-4.715	0.012945
-4.710	0.012928
-4.705	0.012891
-4.700	0.012860
-4.695	0.012772
-4.690	0.012710
-4.685	0.012645
-4.680	0.012618
-4.675	0.012557
-4.670	0.012491
-4.665	0.012449
-4.660	0.012394
-4.655	0.012285
-4.650	0.012094
-4.645	0.011966
-4.640	0.011814
-4.635	0.011684
-4.630	0.011548
-4.625	0.011522
-4.620	0.011487
-4.615	0.011495
-4.610	0.011450
-4.605	0.011444
-4.600	0.011429
-4.595	0.011575
-4.590	0.011622
-4.585	0.011615
-4.580	0.011563
-4.575	0.011485
-4.570	0.011438
-4.565	0.011374
-4.560	0.011391
-4.555	0.011461
-4.550	0.011623
-4.545	0.011539
-4.540	0.011060
-4.535	0.010763
-4.530	0.010848
-4.525	0.010983
-4.520	0.010995
-4.515	0.010789
-4.510	0.010712
-4.505	0.010660
-4.500	0.010578
-4.495	0.010514
-4.490	0.010444
-4.485	0.010424
-4.480	0.010459
-4.475	0.010445
-4.470	0.010424
-4.465	0.010376
-4.460	0.010302
-4.455	0.010267
-4.450	0.010199
-4.445	0.010193
-4.440	0.010187
-4.435	0.010181
-4.430	0.010203
-4.425	0.010164
-4.420	0.010074
-4.415	0.010042
-4.410	0.010061
-4.405	0.010025
-4.400	0.009973
-4.395	0.009917
-4.390	0.009842
-4.385	0.009776
-4.380	0.009697
-4.375	0.009613
-4.370	0.009661
-4.365	0.009702
-4.360	0.009733
-4.355	0.009692
-4.350	0.009687
-4.345	0.009591
-4.340	0.009572
-4.335	0.009559
-4.330	0.009529
-4.325	0.009509
-4.320	0.009517
-4.315	0.009475
-4.310	0.009377
-4.305	0.009255
-4.300	0.009207
-4.295	0.009108
-4.290	0.009060
-4.285	0.009051
-4.280	0.008990
-4.275	0.008977
-4.270	0.008964
-4.265	0.008957
-4.260	0.008983
-4.255	0.008990
-4.250	0.008973
-4.245	0.009030
-4.240	0.009021
-4.235	0.008966
-4.230	0.008921
-4.225	0.008847
-4.220	0.008819
-4.215	0.008806
-4.210	0.008822
-4.205	0.008821
-4.200	0.008821
-4.195	0.008753
-4.190	0.008738
-4.185	0.008690
-4.180	0.008602
-4.175	0.008524
-4.170	0.008416
-4.165	0.008325
-4.160	0.008214
-4.155	0.008008
-4.150	0.007735
-4.145	0.007248
-4.140	0.006605
-4.135	0.005637
-4.130	0.004335
-4.125	0.002565
-4.120	0.000335
-4.115	-0.002455
-4.110	-0.005750
-4.105	-0.009610
-4.100	-0.013930
-4.095	-0.018843
-4.090	-0.024125
-4.085	-0.029859
-4.080	-0.035940
-4.075	-0.042137
-4.070	-0.048288
-4.065	-0.054448
-4.060	-0.060140
-4.055	-0.064927
-4.050	-0.068405
-4.045	-0.070269
-4.040	-0.070250
-4.035	-0.068317
-4.030	-0.064893
-4.025	-0.060776
-4.020	-0.056545
-4.015	-0.052648
-4.010	-0.049256
-4.005	-0.046422
-4.000	-0.043997
-3.995	-0.041895
-3.990	-0.040064
-3.985	-0.038439
-3.980	-0.036961
-3.975	-0.035669
-3.970	-0.034445
-3.965	-0.033411
-3.960	-0.032474
-3.955	-0.031616
-3.950	-0.030826
-3.945	-0.030057
-3.940	-0.029332
-3.935	-0.028653
-3.930	-0.028099
-3.925	-0.027530
-3.920	-0.026977
-3.915	-0.026478
-3.910	-0.025962
-3.905	-0.025545
-3.900	-0.025101
-3.895	-0.024621
-3.890	-0.024179
-3.885	-0.023791
-3.880	-0.023364
-3.875	-0.023009
-3.870	-0.022613
-3.865	-0.022273
-3.860	-0.021871
-3.855	-0.021506
-3.850	-0.021181
-3.845	-0.020817
-3.840	-0.020523
-3.835	-0.020207
-3.830	-0.019877
-3.825	-0.019562
-3.820	-0.019229
-3.815	-0.018960
-3.810	-0.018679
-3.805	-0.018475
-3.800	-0.018197
-3.795	-0.017958
-3.790	-0.017737
-3.785	-0.017530
-3.780	-0.017243
-3.775	-0.017042
-3.770	-0.016816
-3.765	-0.016619
-3.760	-0.016437
-3.755	-0.016225
-3.750	-0.016047
-3.745	-0.015836
-3.740	-0.015684
-3.735	-0.015513
-3.730	-0.015290
-3.725	-0.015165
-3.720	-0.014999
-3.715	-0.014815
-3.710	-0.014668
-3.705	-0.014497
-3.700	-0.014392
-3.695	-0.014222
-3.690	-0.014114
-3.685	-0.013923
-3.680	-0.013737
-3.675	-0.013566
-3.670	-0.013430
-3.665	-0.013294
-3.660	-0.013157
-3.655	-0.013039
-3.650	-0.012896
-3.645	-0.012796
-3.640	-0.012718
-3.635	-0.012646
-3.630	-0.012552
-3.625	-0.012469
-3.620	-0.012304
-3.615	-0.012118
-3.610	-0.011921
-3.605	-0.011796
-3.600	-0.011638
-3.595	-0.011469
-3.590	-0.011282
-3.585	-0.011109
-3.580	-0.010884
-3.575	-0.010660
-3.570	-0.010385
-3.565	-0.010100
-3.560	-0.009742
-3.555	-0.009410
-3.550	-0.008995
-3.545	-0.008592
-3.540	-0.008111
-3.535	-0.007638
-3.530	-0.007003
-3.525	-0.006268
-3.520	-0.005604
-3.515	-0.005021
-3.510	-0.004460
-3.505	-0.003830
-3.500	-0.003253
-3.495	-0.002670
-3.490	-0.002066
-3.485	-0.001530
-3.480	-0.001009
-3.475	-0.000522
-3.470	-0.000131
-3.465	0.000171
-3.460	0.000445
-3.455	0.000596
-3.450	0.000705
-3.445	0.000768
-3.440	0.000831
-3.435	0.000769
-3.430	0.000748
-3.425	0.000782
-3.420	0.000850
-3.415	0.000945
-3.410	0.001047
-3.405	0.001328
-3.400	0.001707
-3.395	0.002163
-3.390	0.002685
-3.385	0.003359
-3.380	0.004183
-3.375	0.004961
-3.370	0.005887
-3.365	0.006920
-3.360	0.007932
-3.355	0.008990
-3.350	0.010057
-3.345	0.011077
-3.340	0.011918
-3.335	0.012332
-3.330	0.012280
-3.325	0.011918
-3.320	0.011430
-3.315	0.010921
-3.310	0.010405
-3.305	0.010027
-3.300	0.009662
-3.295	0.009462
-3.290	0.009294
-3.285	0.009219
-3.280	0.009069
-3.275	0.008939
-3.270	0.008862
-3.265	0.008774
-3.260	0.008744
-3.255	0.008707
-3.250	0.008622
-3.245	0.008757
-3.240	0.008931
-3.235	0.009064
-3.230	0.009173
-3.225	0.009156
-3.220	0.009238
-3.215	0.009281
-3.210	0.009345
-3.205	0.009371
-3.200	0.009406
-3.195	0.009500
-3.190	0.009595
-3.185	0.009654
-3.180	0.009840
-3.175	0.010047
-3.170	0.010171
-3.165	0.010261
-3.160	0.010392
-3.155	0.010462
-3.150	0.010548
-3.145	0.010625
-3.140	0.010689
-3.135	0.010728
-3.130	0.010812
-3.125	0.010933
-3.120	0.011049
-3.115	0.011136
-3.110	0.011208
-3.105	0.011250
-3.100	0.011289
-3.095	0.011328
-3.090	0.011301
-3.085	0.011444
-3.080	0.011547
-3.075	0.011569
-3.070	0.011611
-3.065	0.011682
-3.060	0.011832
-3.055	0.011938
-3.050	0.012040
-3.045	0.012078
-3.040	0.012054
-3.035	0.012107
-3.030	0.012085
-3.025	0.012181
-3.020	0.012334
-3.015	0.012527
-3.010	0.012603
-3.005	0.012679
-3.000	0.012814
-2.995	0.012938
-2.990	0.013006
-2.985	0.012984
-2.980	0.013045
-2.975	0.013151
-2.970	0.013263
-2.965	0.013337
-2.960	0.013390
-2.955	0.013478
-2.950	0.013541
-2.945	0.013618
-2.940	0.013617
-2.935	0.013658
-2.930	0.013807
-2.925	0.013984
-2.920	0.014183
-2.915	0.014291
-2.910	0.014402
-2.905	0.014523
-2.900	0.014652
-2.895	0.014748
-2.890	0.014763
-2.885	0.014747
-2.880	0.014761
-2.875	0.014877
-2.870	0.015024
-2.865	0.015132
-2.860	0.015220
-2.855	0.015282
-2.850	0.015390
-2.845	0.015523
-2.840	0.015569
-2.835	0.015582
-2.830	0.015545
-2.825	0.015559
-2.820	0.015593
-2.815	0.015564
-2.810	0.015575
-2.805	0.015585
-2.800	0.015703
-2.795	0.015691
-2.790	0.015727
-2.785	0.015728
-2.780	0.015686
-2.775	0.015661
-2.770	0.015703
-2.765	0.015673
-2.760	0.015776
-2.755	0.015921
-2.750	0.016082
-2.745	0.016131
-2.740	0.016144
-2.735	0.016206
-2.730	0.016215
-2.725	0.016296
-2.720	0.016350
-2.715	0.016440
-2.710	0.016542
-2.705	0.016698
-2.700	0.016833
-2.695	0.016982
-2.690	0.017084
-2.685	0.017150
-2.680	0.017239
-2.675	0.017313
-2.670	0.017395
-2.665	0.017448
-2.660	0.017543
-2.655	0.017723
-2.650	0.017863
-2.645	0.017945
-2.640	0.017963
-2.635	0.018045
-2.630	0.018072
-2.625	0.018114
-2.620	0.018089
-2.615	0.018105
-2.610	0.018055
-2.605	0.017978
-2.600	0.017942
-2.595	0.017997
-2.590	0.018008
-2.585	0.018050
-2.580	0.018043
-2.575	0.018083
-2.570	0.018064
-2.565	0.017962
-2.560	0.018024
-2.555	0.018141
-2.550	0.018185
-2.545	0.018313
-2.540	0.018403
-2.535	0.018476
-2.530	0.018516
-2.525	0.018562
-2.520	0.018574
-2.515	0.018622
-2.510	0.018636
-2.505	0.018651
-2.500	0.018663
-2.495	0.018616
-2.490	0.018556
-2.485	0.018563
-2.480	0.018599
-2.475	0.018586
-2.470	0.018607
-2.465	0.018615
-2.460	0.018662
-2.455	0.018706
-2.450	0.018792
-2.445	0.018842
-2.440	0.018836
-2.435	0.018909
-2.430	0.018942
-2.425	0.018929
-2.420	0.018963
-2.415	0.019008
-2.410	0.019091
-2.405	0.019212
-2.400	0.019268
-2.395	0.019337
-2.390	0.019364
-2.385	0.019419
-2.380	0.019462
-2.375	0.019516
-2.370	0.019589
-2.365	0.019647
-2.360	0.019675
-2.355	0.019699
-2.350	0.019774
-2.345	0.019794
-2.340	0.019834
-2.335	0.019797
-2.330	0.019791
-2.325	0.019828
-2.320	0.019837
-2.315	0.019819
-2.310	0.019826
-2.305	0.019849
-2.300	0.019835
-2.295	0.019776
-2.290	0.019708
-2.285	0.019704
-2.280	0.019616
-2.275	0.019577
-2.270	0.019523
-2.265	0.019481
-2.260	0.019505
-2.255	0.019570
-2.250	0.019664
-2.245	0.019746
-2.240	0.019767
-2.235	0.019706
-2.230	0.019662
-2.225	0.019620
-2.220	0.019571
-2.215	0.019541
-2.210	0.019544
-2.205	0.019525
-2.200	0.019551
-2.195	0.019554
-2.190	0.019653
-2.185	0.019615
-2.180	0.019605
-2.175	0.019610
-2.170	0.019583
-2.165	0.019570
-2.160	0.019499
-2.155	0.019456
-2.150	0.019399
-2.145	0.019282
-2.140	0.019175
-2.135	0.019111
-2.130	0.019095
-2.125	0.019106
-2.120	0.019268
-2.115	0.019356
-2.110	0.019479
-2.105	0.019612
-2.100	0.019818
-2.095	0.020027
-2.090	0.020183
-2.085	0.020225
-2.080	0.020249
-2.075	0.020261
-2.070	0.020309
-2.065	0.020355
-2.060	0.020349
-2.055	0.020319
-2.050	0.020245
-2.045	0.020226
-2.040	0.020128
-2.035	0.020042
-2.030	0.019938
-2.025	0.019829
-2.020	0.019751
-2.015	0.019687
-2.010	0.019633
-2.005	0.019603
-2.000	0.019584
-1.995	0.019574
-1.990	0.019505
-1.985	0.019448
-1.980	0.019460
-1.975	0.019537
-1.970	0.019600
-1.965	0.019719
-1.960	0.019787
-1.955	0.019886
-1.950	0.019928
-1.945	0.019997
-1.940	0.020003
-1.935	0.020002
-1.930	0.020018
-1.925	0.019981
-1.920	0.019957
-1.915	0.019857
-1.910	0.019849
-1.905	0.019787
-1.900	0.019762
-1.895	0.019760
-1.890	0.019712
-1.885	0.019660
-1.880	0.019587
-1.875	0.019491
-1.870	0.019405
-1.865	0.019311
-1.860	0.019175
-1.855	0.019075
-1.850	0.018923
-1.845	0.018827
-1.840	0.018679
-1.835	0.018627
-1.830	0.018601
-1.825	0.018508
-1.820	0.018405
-1.815	0.018300
-1.810	0.018325
-1.805	0.018369
-1.800	0.018472
-1.795	0.018601
-1.790	0.018751
-1.785	0.018909
-1.780	0.019112
-1.775	0.019296
-1.770	0.019402
-1.765	0.019401
-1.760	0.019387
-1.755	0.019337
-1.750	0.019325
-1.745	0.019257
-1.740	0.019218
-1.735	0.019216
-1.730	0.019162
-1.725	0.019095
-1.720	0.019069
-1.715	0.018963
-1.710	0.018849
-1.705	0.018723
-1.700	0.018614
-1.695	0.018484
-1.690	0.018337
-1.685	0.018246
-1.680	0.018126
-1.675	0.018026
-1.670	0.017968
-1.665	0.017878
-1.660	0.017831
-1.655	0.017807
-1.650	0.017837
-1.645	0.017790
-1.640	0.017816
-1.635	0.017837
-1.630	0.017835
-1.625	0.017845
-1.620	0.017875
-1.615	0.017922
-1.610	0.017946
-1.605	0.018032
-1.600	0.018083
-1.595	0.018182
-1.590	0.018245
-1.585	0.018303
-1.580	0.018320
-1.575	0.018365
-1.570	0.018331
-1.565	0.018302
-1.560	0.018207
-1.555	0.018172
-1.550	0.018136
-1.545	0.018120
-1.540	0.018085
-1.535	0.018077
-1.530	0.018049
-1.525	0.018016
-1.520	0.017929
-1.515	0.017834
-1.510	0.017734
-1.505	0.017605
-1.500	0.017508
-1.495	0.017375
-1.490	0.017267
-1.485	0.017144
-1.480	0.017009
-1.475	0.016820
-1.470	0.016752
-1.465	0.016606
-1.460	0.016463
-1.455	0.016269
-1.450	0.016133
-1.445	0.015994
-1.440	0.015904
-1.435	0.015811
-1.430	0.015738
-1.425	0.015675
-1.420	0.015674
-1.415	0.015734
-1.410	0.015759
-1.405	0.015823
-1.400	0.015859
-1.395	0.015922
-1.390	0.015954
-1.385	0.016018
-1.380	0.016028
-1.375	0.016030
-1.370	0.016036
-1.365	0.016015
-1.360	0.016007
-1.355	0.015950
-1.350	0.015929
-1.345	0.015862
-1.340	0.015807
-1.335	0.015778
-1.330	0.015757
-1.325	0.015699
-1.320	0.015728
-1.315	0.015734
-1.310	0.015732
-1.305	0.015739
-1.300	0.015728
-1.295	0.015681
-1.290	0.015662
-1.285	0.015608
-1.280	0.015528
-1.275	0.015494
-1.270	0.015439
-1.265	0.015322
-1.260	0.015239
-1.255	0.015089
-1.250	0.014963
-1.245	0.014846
-1.240	0.014762
-1.235	0.014663
-1.230	0.014568
-1.225	0.014500
-1.220	0.014457
-1.215	0.014381
-1.210	0.014303
-1.205	0.014240
-1.200	0.014144
-1.195	0.014088
-1.190	0.014042
-1.185	0.014020
-1.180	0.013929
-1.175	0.013951
-1.170	0.013991
-1.165	0.014025
-1.160	0.014033
-1.155	0.014122
-1.150	0.014165
-1.145	0.014263
-1.140	0.014277
-1.135	0.014317
-1.130	0.014360
-1.125	0.014363
-1.120	0.014349
-1.115	0.014270
-1.110	0.014264
-1.105	0.014156
-1.100	0.014076
-1.095	0.013959
-1.090	0.013851
-1.085	0.013719
-1.080	0.013570
-1.075	0.013453
-1.070	0.013364
-1.065	0.013247
-1.060	0.013106
-1.055	0.012985
-1.050	0.012904
-1.045	0.012833
-1.040	0.012813
-1.035	0.012821
-1.030	0.012847
-1.025	0.012938
-1.020	0.012963
-1.015	0.012915
-1.010	0.012740
-1.005	0.012652
-1.000	0.012661
-0.995	0.012758
-0.990	0.012767
-0.985	0.012792
-0.980	0.012757
-0.975	0.012754
-0.970	0.012692
-0.965	0.012585
-0.960	0.012543
-0.955	0.012467
-0.950	0.012309
-0.945	0.012190
-0.940	0.012032
-0.935	0.011964
-0.930	0.011814
-0.925	0.011702
-0.920	0.011592
-0.915	0.011478
-0.910	0.011394
-0.905	0.011315
-0.900	0.011282
-0.895	0.011183
-0.890	0.011149
-0.885	0.011142
-0.880	0.011102
-0.875	0.011095
-0.870	0.011075
-0.865	0.011014
-0.860	0.011047
-0.855	0.011033
-0.850	0.011066
-0.845	0.010976
-0.840	0.010973
-0.835	0.010870
-0.830	0.010863
-0.825	0.010796
-0.820	0.010759
-0.815	0.010719
-0.810	0.010685
-0.805	0.010595
-0.800	0.010507
-0.795	0.010402
-0.790	0.010340
-0.785	0.010265
-0.780	0.010145
-0.775	0.010028
-0.770	0.009908
-0.765	0.009821
-0.760	0.009738
-0.755	0.009653
-0.750	0.009530
-0.745	0.009426
-0.740	0.009323
-0.735	0.009253
-0.730	0.009150
-0.725	0.009051
-0.720	0.008988
-0.715	0.008901
-0.710	0.008883
-0.705	0.008829
-0.700	0.008784
-0.695	0.008713
-0.690	0.008673
-0.685	0.008613
-0.680	0.008622
-0.675	0.008658
-0.670	0.008646
-0.665	0.008728
-0.660	0.008817
-0.655	0.008773
-0.650	0.008725
-0.645	0.008735
-0.640	0.008687
-0.635	0.008663
-0.630	0.008658
-0.625	0.008636
-0.620	0.008607
-0.615	0.008543
-0.610	0.008500
-0.605	0.008422
-0.600	0.008381
-0.595	0.008324
-0.590	0.008227
-0.585	0.008144
-0.580	0.008080
-0.575	0.007973
-0.570	0.007850
-0.565	0.007732
-0.560	0.007609
-0.555	0.007492
-0.550	0.007398
-0.545	0.007309
-0.540	0.007167
-0.535	0.007075
-0.530	0.006999
-0.525	0.006915
-0.520	0.006833
-0.515	0.006718
-0.510	0.006610
-0.505	0.006528
-0.500	0.006443
-0.495	0.006400
-0.490	0.006319
-0.485	0.006250
-0.480	0.006210
-0.475	0.006140
-0.470	0.006099
-0.465	0.006070
-0.460	0.005987
-0.455	0.005918
-0.450	0.005855
-0.445	0.005829
-0.440	0.005795
-0.435	0.005690
-0.430	0.005663
-0.425	0.005560
-0.420	0.005528
-0.415	0.005480
-0.410	0.005419
-0.405	0.005358
-0.400	0.005291
-0.395	0.005228
-0.390	0.005208
-0.385	0.005154
-0.380	0.005128
-0.375	0.005113
-0.370	0.005091
-0.365	0.005087
-0.360	0.005024
-0.355	0.005010
-0.350	0.004948
-0.345	0.004976
-0.340	0.004977
-0.335	0.004930
-0.330	0.004856
-0.325	0.004829
-0.320	0.004733
-0.315	0.004699
-0.310	0.004652
-0.305	0.004590
-0.300	0.004553
-0.295	0.004497
-0.290	0.004449
-0.285	0.004374
-0.280	0.004333
-0.275	0.004257
-0.270	0.004169
-0.265	0.004053
-0.260	0.003923
-0.255	0.003820
-0.250	0.003764
-0.245	0.003683
-0.240	0.003648
-0.235	0.003557
-0.230	0.003455
-0.225	0.003359
-0.220	0.003310
-0.215	0.003234
-0.210	0.003146
-0.205	0.003076
-0.200	0.002980
-0.195	0.002871
-0.190	0.002714
-0.185	0.002611
-0.180	0.002556
-0.175	0.002508
-0.170	0.002432
-0.165	0.002390
-0.160	0.002254
-0.155	0.002172
-0.150	0.002056
-0.145	0.002022
-0.140	0.001967
-0.135	0.001864
-0.130	0.001810
-0.125	0.001734
-0.120	0.001753
-0.115	0.001754
-0.110	0.001781
-0.105	0.001760
-0.100	0.001745
-0.095	0.001718
-0.090	0.001799
-0.085	0.001928
-0.080	0.002113
-0.075	0.002332
-0.070	0.002484
-0.065	0.002588
-0.060	0.002692
-0.055	0.002794
-0.050	0.002870
-0.045	0.002952
-0.040	0.002885
-0.035	0.002699
-0.030	0.002384
-0.025	0.001958
-0.020	0.001375
-0.015	0.000655
-0.010	-0.000238
-0.005	-0.001268
0.000	-0.002360
0.005	-0.003479
0.010	-0.004497
0.015	-0.005235
0.020	-0.005659
0.025	-0.005672
0.030	-0.005143
0.035	-0.004179
0.040	-0.002806
0.045	-0.001206
0.050	0.000606
0.055	0.002461
0.060	0.004213
0.065	0.005588
0.070	0.006350
0.075	0.006571
0.080	0.006322
0.085	0.005436
0.090	0.004157
0.095	0.002563
0.100	0.000830
0.105	-0.000869
0.110	-0.002340
0.115	-0.003486
0.120	-0.004131
0.125	-0.004469
0.130	-0.004484
0.135	-0.004265
0.140	-0.003867
0.145	-0.003440
0.150	-0.003014
0.155	-0.002704
0.160	-0.002464
0.165	-0.002299
0.170	-0.002175
0.175	-0.002168
0.180	-0.002196
0.185	-0.002306
0.190	-0.002299
0.195	-0.002320
0.200	-0.002382
0.205	-0.002485
0.210	-0.002546
0.215	-0.002553
0.220	-0.002602
0.225	-0.002698
0.230	-0.002698
0.235	-0.002725
0.240	-0.002760
0.245	-0.002835
0.250	-0.002897
0.255	-0.002993
0.260	-0.003041
0.265	-0.003041
0.270	-0.003061
0.275	-0.003069
0.280	-0.003158
0.285	-0.003186
0.290	-0.003269
0.295	-0.003364
0.300	-0.003371
0.305	-0.003494
0.310	-0.003549
0.315	-0.003617
0.320	-0.003678
0.325	-0.003741
0.330	-0.003803
0.335	-0.003824
0.340	-0.003914
0.345	-0.003962
0.350	-0.004017
0.355	-0.004100
0.360	-0.004196
0.365	-0.004277
0.370	-0.004346
0.375	-0.004441
0.380	-0.004489
0.385	-0.004545
0.390	-0.004567
0.395	-0.004636
0.400	-0.004663
0.405	-0.004752
0.410	-0.004752
0.415	-0.004856
0.420	-0.004940
0.425	-0.004981
0.430	-0.005077
0.435	-0.005165
0.440	-0.005233
0.445	-0.005329
0.450	-0.005377
0.455	-0.005419
0.460	-0.005488
0.465	-0.005578
0.470	-0.005619
0.475	-0.005667
0.480	-0.005707
0.485	-0.005797
0.490	-0.005872
0.495	-0.005927
0.500	-0.005995
0.505	-0.006070
0.510	-0.006125
0.515	-0.006194
0.520	-0.006236
0.525	-0.006339
0.530	-0.006387
0.535	-0.006538
0.540	-0.006572
0.545	-0.006682
0.550	-0.006771
0.555	-0.006854
0.560	-0.006965
0.565	-0.007079
0.570	-0.007162
0.575	-0.007273
0.580	-0.007383
0.585	-0.007474
0.590	-0.007579
0.595	-0.007663
0.600	-0.007719
0.605	-0.007829
0.610	-0.007911
0.615	-0.007992
0.620	-0.008081
0.625	-0.008089
0.630	-0.008151
0.635	-0.008204
0.640	-0.008225
0.645	-0.008300
0.650	-0.008300
0.655	-0.008362
0.660	-0.008349
0.665	-0.008418
0.670	-0.008419
0.675	-0.008433
0.680	-0.008439
0.685	-0.008414
0.690	-0.008463
0.695	-0.008440
0.700	-0.008452
0.705	-0.008445
0.710	-0.008473
0.715	-0.008500
0.720	-0.008529
0.725	-0.008549
0.730	-0.008575
0.735	-0.008546
0.740	-0.008526
0.745	-0.008580
0.750	-0.008609
0.755	-0.008624
0.760	-0.008666
0.765	-0.008692
0.770	-0.008705
0.775	-0.008761
0.780	-0.008817
0.785	-0.008873
0.790	-0.008949
0.795	-0.009018
0.800	-0.009149
0.805	-0.009258
0.810	-0.009341
0.815	-0.009486
0.820	-0.009653
0.825	-0.009819
0.830	-0.009976
0.835	-0.010160
0.840	-0.010271
0.845	-0.010430
0.850	-0.010554
0.855	-0.010726
0.860	-0.010856
0.865	-0.010987
0.870	-0.011048
0.875	-0.011172
0.880	-0.011220
0.885	-0.011291
0.890	-0.011357
0.895	-0.011390
0.900	-0.011417
0.905	-0.011436
0.910	-0.011444
0.915	-0.011478
0.920	-0.011471
0.925	-0.011506
0.930	-0.011491
0.935	-0.011513
0.940	-0.011546
0.945	-0.011573
0.950	-0.011617
0.955	-0.011660
0.960	-0.011728
0.965	-0.011827
0.970	-0.011901
0.975	-0.012037
0.980	-0.012166
0.985	-0.012246
0.990	-0.012364
0.995	-0.012473
1.000	-0.012598
1.005	-0.012674
1.010	-0.012748
1.015	-0.012830
1.020	-0.012848
1.025	-0.012912
1.030	-0.012966
1.035	-0.012971
1.040	-0.012981
1.045	-0.012925
1.050	-0.012912
1.055	-0.012857
1.060	-0.012871
1.065	-0.012815
1.070	-0.012753
1.075	-0.012717
1.080	-0.012669
1.085	-0.012645
1.090	-0.012681
1.095	-0.012671
1.100	-0.012731
1.105	-0.012787
1.110	-0.012822
1.115	-0.012857
1.120	-0.012981
1.125	-0.013051
1.130	-0.013181
1.135	-0.013340
1.140	-0.013476
1.145	-0.013626
1.150	-0.013767
1.155	-0.013922
1.160	-0.014101
1.165	-0.014164
1.170	-0.014297
1.175	-0.014393
1.180	-0.014435
1.185	-0.014482
1.190	-0.014565
1.195	-0.014576
1.200	-0.014625
1.205	-0.014685
1.210	-0.014678
1.215	-0.014665
1.220	-0.014697
1.225	-0.014738
1.230	-0.014727
1.235	-0.014747
1.240	-0.014765
1.245	-0.014785
1.250	-0.014787
1.255	-0.014795
1.260	-0.014836
1.265	-0.014860
1.270	-0.014894
1.275	-0.014938
1.280	-0.014984
1.285	-0.015012
1.290	-0.015078
1.295	-0.015118
1.300	-0.015156
1.305	-0.015284
1.310	-0.015326
1.315	-0.015362
1.320	-0.015383
1.325	-0.015389
1.330	-0.015334
1.335	-0.015344
1.340	-0.015321
1.345	-0.015272
1.350	-0.015227
1.355	-0.015209
1.360	-0.015206
1.365	-0.015219
1.370	-0.015212
1.375	-0.015246
1.380	-0.015279
1.385	-0.015334
1.390	-0.015424
1.395	-0.015532
1.400	-0.015623
1.405	-0.015752
1.410	-0.015862
1.415	-0.015943
1.420	-0.016056
1.425	-0.016166
1.430	-0.016222
1.435	-0.016253
1.440	-0.016349
1.445	-0.016359
1.450	-0.016414
1.455	-0.016537
1.460	-0.016572
1.465	-0.016620
1.470	-0.016640
1.475	-0.016661
1.480	-0.016681
1.485	-0.016764
1.490	-0.016796
1.495	-0.016826
1.500	-0.016893
1.505	-0.016925
1.510	-0.016946
1.515	-0.016972
1.520	-0.017073
1.525	-0.017132
1.530	-0.017202
1.535	-0.017302
1.540	-0.017367
1.545	-0.017414
1.550	-0.017433
1.555	-0.017394
1.560	-0.017374
1.565	-0.017321
1.570	-0.017281
1.575	-0.017254
1.580	-0.017240
1.585	-0.017248
1.590	-0.017324
1.595	-0.017361
1.600	-0.017451
1.605	-0.017585
1.610	-0.017681
1.615	-0.017834
1.620	-0.017973
1.625	-0.018080
1.630	-0.018220
1.635	-0.018309
1.640	-0.018428
1.645	-0.018527
1.650	-0.018581
1.655	-0.018628
1.660	-0.018672
1.665	-0.018704
1.670	-0.018764
1.675	-0.018795
1.680	-0.018765
1.685	-0.018761
1.690	-0.018717
1.695	-0.018732
1.700	-0.018746
1.705	-0.018705
1.710	-0.018601
1.715	-0.018504
1.720	-0.018427
1.725	-0.018328
1.730	-0.018307
1.735	-0.018269
1.740	-0.018304
1.745	-0.018352
1.750	-0.018400
1.755	-0.018443
1.760	-0.018437
1.765	-0.018432
1.770	-0.018412
1.775	-0.018418
1.780	-0.018417
1.785	-0.018453
1.790	-0.018543
1.795	-0.018620
1.800	-0.018764
1.805	-0.018850
1.810	-0.018950
1.815	-0.019024
1.820	-0.019050
1.825	-0.019108
1.830	-0.019153
1.835	-0.019226
1.840	-0.019221
1.845	-0.019257
1.850	-0.019272
1.855	-0.019287
1.860	-0.019335
1.865	-0.019299
1.870	-0.019325
1.875	-0.019350
1.880	-0.019400
1.885	-0.019514
1.890	-0.019576
1.895	-0.019615
1.900	-0.019598
1.905	-0.019606
1.910	-0.019600
1.915	-0.019569
1.920	-0.019539
1.925	-0.019494
1.930	-0.019470
1.935	-0.019391
1.940	-0.019365
1.945	-0.019255
1.950	-0.019198
1.955	-0.019162
1.960	-0.019191
1.965	-0.019256
1.970	-0.019303
1.975	-0.019391
1.980	-0.019478
1.985	-0.019557
1.990	-0.019640
1.995	-0.019776
2.000	-0.019860
2.005	-0.019910
2.010	-0.019959
2.015	-0.019915
2.020	-0.019984
2.025	-0.020060
2.030	-0.020153
2.035	-0.020195
2.040	-0.020173
2.045	-0.020151
2.050	-0.020092
2.055	-0.020082
2.060	-0.020059
2.065	-0.020021
2.070	-0.020092
2.075	-0.020108
2.080	-0.020068
2.085	-0.020092
2.090	-0.020084
2.095	-0.020116
2.100	-0.020060
2.105	-0.019937
2.110	-0.019824
2.115	-0.019710
2.120	-0.019638
2.125	-0.019659
2.130	-0.019592
2.135	-0.019539
2.140	-0.019516
2.145	-0.019572
2.150	-0.019618
2.155	-0.019614
2.160	-0.019558
2.165	-0.019469
2.170	-0.019435
2.175	-0.019429
2.180	-0.019484
2.185	-0.019587
2.190	-0.019691
2.195	-0.019783
2.200	-0.019860
2.205	-0.019925
2.210	-0.019969
2.215	-0.020027
2.220	-0.019998
2.225	-0.019978
2.230	-0.019891
2.235	-0.019853
2.240	-0.019777
2.245	-0.019655
2.250	-0.019551
2.255	-0.019443
2.260	-0.019329
2.265	-0.019261
2.270	-0.019288
2.275	-0.019262
2.280	-0.019331
2.285	-0.019347
2.290	-0.019454
2.295	-0.019552
2.300	-0.019569
2.305	-0.019616
2.310	-0.019665
2.315	-0.019727
2.320	-0.019769
2.325	-0.019853
2.330	-0.019942
2.335	-0.019990
2.340	-0.020047
2.345	-0.020139
2.350	-0.020203
2.355	-0.020315
2.360	-0.020327
2.365	-0.020290
2.370	-0.020231
2.375	-0.020187
2.380	-0.020077
2.385	-0.019897
2.390	-0.019696
2.395	-0.019601
2.400	-0.019500
2.405	-0.019426
2.410	-0.019394
2.415	-0.019340
2.420	-0.019297
2.425	-0.019265
2.430	-0.019186
2.435	-0.019109
2.440	-0.019039
2.445	-0.018962
2.450	-0.018856
2.455	-0.018808
2.460	-0.018852
2.465	-0.018905
2.470	-0.018936
2.475	-0.018968
2.480	-0.019008
2.485	-0.019010
2.490	-0.019066
2.495	-0.018983
2.500	-0.018946
2.505	-0.018957
2.510	-0.018957
2.515	-0.018969
2.520	-0.018884
2.525	-0.018748
2.530	-0.018665
2.535	-0.018595
2.540	-0.018497
2.545	-0.018396
2.550	-0.018402
2.555	-0.018381
2.560	-0.018420
2.565	-0.018418
2.570	-0.018343
2.575	-0.018283
2.580	-0.018201
2.585	-0.018166
2.590	-0.018242
2.595	-0.018240
2.600	-0.018160
2.605	-0.018106
2.610	-0.018116
2.615	-0.018184
2.620	-0.018234
2.625	-0.018302
2.630	-0.018353
2.635	-0.018430
2.640	-0.018436
2.645	-0.018339
2.650	-0.018266
2.655	-0.018154
2.660	-0.018072
2.665	-0.017973
2.670	-0.017829
2.675	-0.017627
2.680	-0.017546
2.685	-0.017542
2.690	-0.017452
2.695	-0.017347
2.700	-0.017206
2.705	-0.017069
2.710	-0.016965
2.715	-0.016953
2.720	-0.016948
2.725	-0.016914
2.730	-0.016838
2.735	-0.016918
2.740	-0.016990
2.745	-0.016983
2.750	-0.016793
2.755	-0.016661
2.760	-0.016489
2.765	-0.016310
2.770	-0.016156
2.775	-0.016022
2.780	-0.015875
2.785	-0.015697
2.790	-0.015568
2.795	-0.015572
2.800	-0.015630
2.805	-0.015648
2.810	-0.015578
2.815	-0.015511
2.820	-0.015451
2.825	-0.015452
2.830	-0.015468
2.835	-0.015521
2.840	-0.015638
2.845	-0.015803
2.850	-0.015814
2.855	-0.015815
2.860	-0.015751
2.865	-0.015746
2.870	-0.015657
2.875	-0.015603
2.880	-0.015442
2.885	-0.015283
2.890	-0.015147
2.895	-0.014976
2.900	-0.014782
2.905	-0.014639
2.910	-0.014560
2.915	-0.014450
2.920	-0.014311
2.925	-0.014157
2.930	-0.014030
2.935	-0.013921
2.940	-0.013918
2.945	-0.013961
2.950	-0.014023
2.955	-0.013962
2.960	-0.013901
2.965	-0.013742
2.970	-0.013638
2.975	-0.013560
2.980	-0.013469
2.985	-0.013297
2.990	-0.013189
2.995	-0.013068
3.000	-0.012983
3.005	-0.012936
3.010	-0.012895
3.015	-0.012813
3.020	-0.012696
3.025	-0.012633
3.030	-0.012485
3.035	-0.012306
3.040	-0.012211
3.045	-0.012148
3.050	-0.012142
3.055	-0.012142
3.060	-0.012053
3.065	-0.011932
3.070	-0.011828
3.075	-0.011767
3.080	-0.011719
3.085	-0.011617
3.090	-0.011569
3.095	-0.011564
3.100	-0.011550
3.105	-0.011384
3.110	-0.011253
3.115	-0.011116
3.120	-0.010994
3.125	-0.010946
3.130	-0.010862
3.135	-0.010766
3.140	-0.010668
3.145	-0.010612
3.150	-0.010587
3.155	-0.010573
3.160	-0.010580
3.165	-0.010516
3.170	-0.010379
3.175	-0.010269
3.180	-0.010193
3.185	-0.010098
3.190	-0.009996
3.195	-0.009873
3.200	-0.009770
3.205	-0.009645
3.210	-0.009526
3.215	-0.009383
3.220	-0.009267
3.225	-0.009144
3.230	-0.008971
3.235	-0.008841
3.240	-0.008775
3.245	-0.008741
3.250	-0.008679
3.255	-0.008676
3.260	-0.008729
3.265	-0.008727
3.270	-0.008775
3.275	-0.008769
3.280	-0.008771
3.285	-0.008794
3.290	-0.008858
3.295	-0.008923
3.300	-0.008983
3.305	-0.009139
3.310	-0.009441
3.315	-0.009729
3.320	-0.010004
3.325	-0.010217
3.330	-0.010441
3.335	-0.010662
3.340	-0.010784
3.345	-0.010891
3.350	-0.010853
3.355	-0.010712
3.360	-0.010508
3.365	-0.010205
3.370	-0.009718
3.375	-0.009069
3.380	-0.008309
3.385	-0.007403
3.390	-0.006269
3.395	-0.004862
3.400	-0.003332
3.405	-0.002007
3.410	-0.001026
3.415	-0.000451
3.420	-0.000176
3.425	-0.000059
3.430	-0.000080
3.435	-0.000238
3.440	-0.000409
3.445	-0.000491
3.450	-0.000560
3.455	-0.000594
3.460	-0.000526
3.465	-0.000471
3.470	-0.000368
3.475	-0.000197
3.480	0.000064
3.485	0.000400
3.490	0.000785
3.495	0.001250
3.500	0.001799
3.505	0.002354
3.510	0.002951
3.515	0.003576
3.520	0.004249
3.525	0.004934
3.530	0.005621
3.535	0.006253
3.540	0.006904
3.545	0.007534
3.550	0.008134
3.555	0.008658
3.560	0.009107
3.565	0.009600
3.570	0.010011
3.575	0.010370
3.580	0.010681
3.585	0.010948
3.590	0.011215
3.595	0.011427
3.600	0.011660
3.605	0.011844
3.610	0.012024
3.615	0.012187
3.620	0.012351
3.625	0.012466
3.630	0.012560
3.635	0.012717
3.640	0.012846
3.645	0.013006
3.650	0.013134
3.655	0.013242
3.660	0.013372
3.665	0.013482
3.670	0.013562
3.675	0.013685
3.680	0.013818
3.685	0.014006
3.690	0.014132
3.695	0.014284
3.700	0.014419
3.705	0.014517
3.710	0.014637
3.715	0.014830
3.720	0.014960
3.725	0.015116
3.730	0.015286
3.735	0.015510
3.740	0.015703
3.745	0.015901
3.750	0.016037
3.755	0.016219
3.760	0.016424
3.765	0.016620
3.770	0.016805
3.775	0.017014
3.780	0.017219
3.785	0.017467
3.790	0.017688
3.795	0.017897
3.800	0.018142
3.805	0.018405
3.810	0.018622
3.815	0.018905
3.820	0.019177
3.825	0.019442
3.830	0.019723
3.835	0.020045
3.840	0.020362
3.845	0.020701
3.850	0.021006
3.855	0.021370
3.860	0.021760
3.865	0.022057
3.870	0.022427
3.875	0.022763
3.880	0.023134
3.885	0.023515
3.890	0.023939
3.895	0.024363
3.900	0.024778
3.905	0.025255
3.910	0.025652
3.915	0.026125
3.920	0.026610
3.925	0.027123
3.930	0.027673
3.935	0.028273
3.940	0.028883
3.945	0.029539
3.950	0.030279
3.955	0.031034
3.960	0.031852
3.965	0.032710
3.970	0.033636
3.975	0.034723
3.980	0.035937
3.985	0.037325
3.990	0.038870
3.995	0.040577
4.000	0.042537
4.005	0.044768
4.010	0.047368
4.015	0.050122
4.020	0.053043
4.025	0.055936
4.030	0.058738
4.035	0.061294
4.040	0.063391
4.045	0.064969
4.050	0.066069
4.055	0.066335
4.060	0.065648
4.065	0.063834
4.070	0.061133
4.075	0.057405
4.080	0.052297
4.085	0.045659
4.090	0.037978
4.095	0.029609
4.100	0.021206
4.105	0.013330
4.110	0.006687
4.115	0.001692
4.120	-0.001812
4.125	-0.004021
4.130	-0.005362
4.135	-0.006283
4.140	-0.006861
4.145	-0.007233
4.150	-0.007503
4.155	-0.007752
4.160	-0.007971
4.165	-0.008120
4.170	-0.008223
4.175	-0.008312
4.180	-0.008395
4.185	-0.008476
4.190	-0.008519
4.195	-0.008623
4.200	-0.008659
4.205	-0.008673
4.210	-0.008722
4.215	-0.008758
4.220	-0.008855
4.225	-0.008833
4.230	-0.008844
4.235	-0.008886
4.240	-0.008906
4.245	-0.008857
4.250	-0.008810
4.255	-0.008747
4.260	-0.008657
4.265	-0.008594
4.270	-0.008664
4.275	-0.008731
4.280	-0.008814
4.285	-0.008899
4.290	-0.008949
4.295	-0.008954
4.300	-0.009120
4.305	-0.009168
4.310	-0.009243
4.315	-0.009339
4.320	-0.009402
4.325	-0.009400
4.330	-0.009414
4.335	-0.009406
4.340	-0.009377
4.345	-0.009418
4.350	-0.009448
4.355	-0.009516
4.360	-0.009514
4.365	-0.009507
4.370	-0.009514
4.375	-0.009562
4.380	-0.009631
4.385	-0.009670
4.390	-0.009724
4.395	-0.009829
4.400	-0.009871
4.405	-0.009884
4.410	-0.009830
4.415	-0.009785
4.420	-0.009799
4.425	-0.009812
4.430	-0.009893
4.435	-0.009927
4.440	-0.010071
4.445	-0.010092
4.450	-0.010079
4.455	-0.010092
4.460	-0.010191
4.465	-0.010288
4.470	-0.010391
4.475	-0.010424
4.480	-0.010432
4.485	-0.010461
4.490	-0.010469
4.495	-0.010457
4.500	-0.010477
4.505	-0.010550
4.510	-0.010625
4.515	-0.010722
4.520	-0.010722
4.525	-0.010689
4.530	-0.010732
4.535	-0.010829
4.540	-0.010931
4.545	-0.011056
4.550	-0.011183
4.555	-0.011252
4.560	-0.011318
4.565	-0.011337
4.570	-0.011302
4.575	-0.011301
4.580	-0.011317
4.585	-0.011310
4.590	-0.011318
4.595	-0.011304
4.600	-0.011263
4.605	-0.011306
4.610	-0.011342
4.615	-0.011421
4.620	-0.011525
4.625	-0.011628
4.630	-0.011745
4.635	-0.011750
4.640	-0.011746
4.645	-0.011741
4.650	-0.011834
4.655	-0.011975
4.660	-0.012096
4.665	-0.012241
4.670	-0.012290
4.675	-0.012409
4.680	-0.012531
4.685	-0.012700
4.690	-0.012739
4.695	-0.012740
4.700	-0.012743
4.705	-0.012761
4.710	-0.012775
4.715	-0.012788
4.720	-0.012781
4.725	-0.012822
4.730	-0.012875
4.735	-0.012914
4.740	-0.012919
4.745	-0.012973
4.750	-0.013017
4.755	-0.013060
4.760	-0.013178
4.765	-0.013323
4.770	-0.013453
4.775	-0.013541
4.780	-0.013616
4.785	-0.013658
4.790	-0.013843
4.795	-0.013951
4.800	-0.014035
4.805	-0.014153
4.810	-0.014152
4.815	-0.014165
4.820	-0.014206
4.825	-0.014268
4.830	-0.014349
4.835	-0.014502
4.840	-0.014681
4.845	-0.014838
4.850	-0.014991
4.855	-0.015082
4.860	-0.015122
4.865	-0.015150
4.870	-0.015195
4.875	-0.015249
4.880	-0.015261
4.885	-0.015298
4.890	-0.015291
4.895	-0.015364
4.900	-0.015460
4.905	-0.015592
4.910	-0.015697
4.915	-0.015800
4.920	-0.015882
4.925	-0.015958
4.930	-0.016053
4.935	-0.016196
4.940	-0.016292
4.945	-0.016406
4.950	-0.016539
4.955	-0.016642
4.960	-0.016746
4.965	-0.016883
4.970	-0.017021
4.975	-0.017214
4.980	-0.017407
4.985	-0.017555
4.990	-0.017728
4.995	-0.017893
5.000	-0.018082
5.005	-0.018254
5.010	-0.018434
5.015	-0.018627
5.020	-0.018802
5.025	-0.018935
5.030	-0.019032
5.035	-0.019163
5.040	-0.019341
5.045	-0.019504
5.050	-0.019690
5.055	-0.019851
5.060	-0.020052
5.065	-0.020323
5.070	-0.020634
5.075	-0.020882
5.080	-0.021051
5.085	-0.021240
5.090	-0.021347
5.095	-0.021473
5.100	-0.021582
5.105	-0.021694
5.110	-0.021906
5.115	-0.022141
5.120	-0.022355
5.125	-0.022650
5.130	-0.022936
5.135	-0.023230
5.140	-0.023493
5.145	-0.023833
5.150	-0.024115
5.155	-0.024385
5.160	-0.024729
5.165	-0.025072
5.170	-0.025472
5.175	-0.025889
5.180	-0.026309
5.185	-0.026761
5.190	-0.027204
5.195	-0.027624
5.200	-0.028085
5.205	-0.028578
5.210	-0.029082
5.215	-0.029636
5.220	-0.030232
5.225	-0.030837
5.230	-0.031441
5.235	-0.032011
5.240	-0.032637
5.245	-0.033251
5.250	-0.033915
5.255	-0.034641
5.260	-0.035466
5.265	-0.036393
5.270	-0.037361
5.275	-0.038348
5.280	-0.039523
5.285	-0.040772
5.290	-0.042193
5.295	-0.043938
5.300	-0.045959
5.305	-0.048211
5.310	-0.050675
5.315	-0.053236
5.320	-0.055959
5.325	-0.058409
5.330	-0.060801
5.335	-0.062609
5.340	-0.063844
5.345	-0.064840
5.350	-0.064783
5.355	-0.063992
5.360	-0.062952
5.365	-0.060457
5.370	-0.056195
5.375	-0.051446
5.380	-0.046365
5.385	-0.039682
5.390	-0.030849
5.395	-0.020963
5.400	-0.012470
5.405	-0.006409
5.410	-0.002624
5.415	-0.000478
5.420	0.000607
5.425	0.001065
5.430	0.001223
5.435	0.001339
5.440	0.001366
5.445	0.001387
5.450	0.001415
5.455	0.001442
5.460	0.001415
5.465	0.001415
5.470	0.001380
5.475	0.001359
5.480	0.001388
5.485	0.001389
5.490	0.001388
5.495	0.001346
5.500	0.001353
5.505	0.001346
5.510	0.001339
5.515	0.001353
5.520	0.001353
5.525	0.001366
5.530	0.001353
5.535	0.001346
5.540	0.001339
5.545	0.001373
5.550	0.001353
5.555	0.001319
5.560	0.001338
5.565	0.001331
5.570	0.001353
5.575	0.001325
5.580	0.001318
5.585	0.001304
5.590	0.001332
5.595	0.001318
5.600	0.001325
5.605	0.001338
5.610	0.001352
5.615	0.001408
5.620	0.001408
5.625	0.001428
5.630	0.001510
5.635	0.001599
5.640	0.001682
5.645	0.001798
5.650	0.001907
5.655	0.002052
5.660	0.002189
5.665	0.002340
5.670	0.002478
5.675	0.002573
5.680	0.002684
5.685	0.002782
5.690	0.002892
5.695	0.002939
5.700	0.002980
5.705	0.002966
5.710	0.002938
5.715	0.002890
5.720	0.002794
5.725	0.002718
5.730	0.002581
5.735	0.002444
5.740	0.002328
5.745	0.002199
5.750	0.002097
5.755	0.001974
5.760	0.001891
5.765	0.001815
5.770	0.001788
5.775	0.001705
5.780	0.001664
5.785	0.001643
5.790	0.001582
5.795	0.001608
5.800	0.001574
5.805	0.001581
5.810	0.001553
5.815	0.001595
5.820	0.001534
5.825	0.001547
5.830	0.001533
5.835	0.001532
5.840	0.001539
5.845	0.001532
5.850	0.001553
5.855	0.001567
5.860	0.001560
5.865	0.001533
5.870	0.001574
5.875	0.001567
5.880	0.001569
5.885	0.001582
5.890	0.001582
5.895	0.001587
5.900	0.001615
5.905	0.001635
5.910	0.001642
5.915	0.001641
5.920	0.001655
5.925	0.001647
5.930	0.001681
5.935	0.001702
5.940	0.001709
5.945	0.001695
5.950	0.001696
5.955	0.001689
5.960	0.001674
5.965	0.001694
5.970	0.001708
5.975	0.001756
5.980	0.001729
5.985	0.001750
5.990	0.001764
5.995	0.001750
6.000	0.001757
6.005	0.001763
6.010	0.001757
6.015	0.001757
6.020	0.001765
6.025	0.001784
6.030	0.001763
6.035	0.001791
6.040	0.001743
6.045	0.001751
6.050	0.001799
6.055	0.001785
6.060	0.001785
6.065	0.001792
6.070	0.001826
6.075	0.001784
6.080	0.001779
6.085	0.001800
6.090	0.001800
6.095	0.001792
6.100	0.001792
6.105	0.001805
6.110	0.001812
6.115	0.001798
6.120	0.001846
6.125	0.001847
6.130	0.001860
6.135	0.001833
6.140	0.001860
6.145	0.001841
6.150	0.001855
6.155	0.001861
6.160	0.001860
6.165	0.001846
6.170	0.001874
6.175	0.001895
6.180	0.001881
6.185	0.001853
6.190	0.001874
6.195	0.001887
6.200	0.001887
6.205	0.001887
6.210	0.001880
6.215	0.001874
6.220	0.001909
6.225	0.001873
6.230	0.001866
6.235	0.001886
6.240	0.001873
6.245	0.001873
6.250	0.001893
6.255	0.001886
6.260	0.001921
6.265	0.001921
6.270	0.001893
6.275	0.001906
6.280	0.001873
6.285	0.001901
6.290	0.001894
6.295	0.001913
6.300	0.001920
6.305	0.001934
6.310	0.001941
6.315	0.001962
6.320	0.001968
6.325	0.001940
6.330	0.001947
6.335	0.001961
6.340	0.001927
6.345	0.001920
6.350	0.001915
6.355	0.001943
6.360	0.001956
6.365	0.001929
6.370	0.001971
6.375	0.001952
6.380	0.001947
6.385	0.001948
6.390	0.001964
6.395	0.001946
6.400	0.001961
6.405	0.001956
6.410	0.001951
6.415	0.001973
6.420	0.001967
6.425	0.001972
6.430	0.001994
6.435	0.002007
6.440	0.002021
6.445	0.002041
6.450	0.002033
6.455	0.002046
6.460	0.002072
6.465	0.002049
6.470	0.002074
6.475	0.002037
6.480	0.002050
6.485	0.002041
6.490	0.002039
6.495	0.002023
6.500	0.002063
6.505	0.002063
6.510	0.002048
6.515	0.002019
6.520	0.002068
6.525	0.002074
6.530	0.002101
6.535	0.002066
6.540	0.002080
6.545	0.002095
6.550	0.002074
6.555	0.002074
6.560	0.002086
6.565	0.002106
6.570	0.002106
6.575	0.002099
6.580	0.002126
6.585	0.002120
6.590	0.002127
6.595	0.002105
6.600	0.002153
6.605	0.002159
6.610	0.002159
6.615	0.002161
6.620	0.002154
6.625	0.002153
6.630	0.002180
6.635	0.002172
6.640	0.002146
6.645	0.002193
6.650	0.002180
6.655	0.002193
6.660	0.002179
6.665	0.002186
6.670	0.002200
6.675	0.002207
6.680	0.002181
6.685	0.002174
6.690	0.002235
6.695	0.002206
6.700	0.002213
6.705	0.002220
6.710	0.002233
6.715	0.002233
6.720	0.002226
6.725	0.002240
6.730	0.002288
6.735	0.002260
6.740	0.002287
6.745	0.002267
6.750	0.002262
6.755	0.002268
6.760	0.002321
6.765	0.002321
6.770	0.002301
6.775	0.002301
6.780	0.002294
6.785	0.002348
6.790	0.002321
6.795	0.002355
6.800	0.002348
6.805	0.002321
6.810	0.002349
6.815	0.002322
6.820	0.002343
6.825	0.002348
6.830	0.002321
6.835	0.002320
6.840	0.002307
6.845	0.002334
6.850	0.002293
6.855	0.002313
6.860	0.002314
6.865	0.002299
6.870	0.002293
6.875	0.002306
6.880	0.002321
6.885	0.002294
6.890	0.002321
6.895	0.002299
6.900	0.002320
6.905	0.002299
6.910	0.002327
6.915	0.002334
6.920	0.002320
6.925	0.002327
6.930	0.002328
6.935	0.002341
6.940	0.002328
6.945	0.002316
6.950	0.002330
6.955	0.002344
6.960	0.002356
6.965	0.002336
6.970	0.002343
6.975	0.002391
6.980	0.002357
6.985	0.002351
6.990	0.002385
6.995	0.002371
7.000	0.002378
7.005	0.002398
7.010	0.002405
7.015	0.002399
7.020	0.002385
7.025	0.002432
7.030	0.002411
7.035	0.002425
7.040	0.002404
7.045	0.002431
7.050	0.002425
7.055	0.002452
7.060	0.002459
7.065	0.002438
7.070	0.002473
7.075	0.002493
7.080	0.002467
7.085	0.002468
7.090	0.002495
7.095	0.002487
7.100	0.002480
7.105	0.002494
7.110	0.002488
7.115	0.002494
7.120	0.002535
7.125	0.002508
7.130	0.002529
7.135	0.002522
7.140	0.002528
7.145	0.002530
7.150	0.002524
7.155	0.002524
7.160	0.002516
7.165	0.002563
7.170	0.002543
7.175	0.002550
7.180	0.002557
7.185	0.002592
7.190	0.002578
7.195	0.002599
7.200	0.002592
7.205	0.002572
7.210	0.002593
7.215	0.002574
7.220	0.002567
7.225	0.002599
7.230	0.002600
7.235	0.002573
7.240	0.002621
7.245	0.002601
7.250	0.002615
7.255	0.002615
7.260	0.002615
7.265	0.002636
7.270	0.002630
7.275	0.002636
7.280	0.002638
7.285	0.002653
7.290	0.002652
7.295	0.002652
7.300	0.002701
7.305	0.002682
7.310	0.002731
7.315	0.002738
7.320	0.002739
7.325	0.002752
7.330	0.002723
7.335	0.002751
7.340	0.002753
7.345	0.002769
7.350	0.002797
7.355	0.002775
7.360	0.002773
7.365	0.002793
7.370	0.002785
7.375	0.002791
7.380	0.002798
7.385	0.002817
7.390	0.002817
7.395	0.002843
7.400	0.002849
7.405	0.002842
7.410	0.002850
7.415	0.002837
7.420	0.002851
7.425	0.002863
7.430	0.002891
7.435	0.002911
7.440	0.002932
7.445	0.002953
7.450	0.002953
7.455	0.003007
7.460	0.003001
7.465	0.003048
7.470	0.003000
7.475	0.003021
7.480	0.003043
7.485	0.003071
7.490	0.003062
7.495	0.003069
7.500	0.003075
7.505	0.003076
7.510	0.003076
7.515	0.003089
7.520	0.003068
7.525	0.003109
7.530	0.003075
7.535	0.003074
7.540	0.003061
7.545	0.003083
7.550	0.003090
7.555	0.003047
7.560	0.003074
7.565	0.003052
7.570	0.003079
7.575	0.003065
7.580	0.003100
7.585	0.003114
7.590	0.003100
7.595	0.003126
7.600	0.003120
7.605	0.003071
7.610	0.003127
7.615	0.003148
7.620	0.003121
7.625	0.003139
7.630	0.003133
7.635	0.003133
7.640	0.003154
7.645	0.003161
7.650	0.003161
7.655	0.003174
7.660	0.003214
7.665	0.003207
7.670	0.003194
7.675	0.003220
7.680	0.003235
7.685	0.003250
7.690	0.003228
7.695	0.003233
7.700	0.003261
7.705	0.003267
7.710	0.003281
7.715	0.003288
7.720	0.003315
7.725	0.003350
7.730	0.003295
7.735	0.003342
7.740	0.003342
7.745	0.003330
7.750	0.003372
7.755	0.003378
7.760	0.003377
7.765	0.003390
7.770	0.003377
7.775	0.003405
7.780	0.003426
7.785	0.003412
7.790	0.003452
7.795	0.003459
7.800	0.003445
7.805	0.003472
7.810	0.003494
7.815	0.003475
7.820	0.003503
7.825	0.003501
7.830	0.003522
7.835	0.003529
7.840	0.003530
7.845	0.003530
7.850	0.003538
7.855	0.003566
7.860	0.003573
7.865	0.003557
7.870	0.003578
7.875	0.003572
7.880	0.003607
7.885	0.003627
7.890	0.003617
7.895	0.003624
7.900	0.003617
7.905	0.003644
7.910	0.003658
7.915	0.003651
7.920	0.003692
7.925	0.003692
7.930	0.003706
7.935	0.003713
7.940	0.003733
7.945	0.003742
7.950	0.003702
7.955	0.003743
7.960	0.003748
7.965	0.003734
7.970	0.003776
7.975	0.003775
7.980	0.003810
7.985	0.003776
7.990	0.003817
7.995	0.003851
8.000	0.003831
8.005	0.003858
8.010	0.003853
8.015	0.003888
8.020	0.003854
8.025	0.003900
8.030	0.003908
8.035	0.003895
8.040	0.003942
8.045	0.003936
8.050	0.003956
8.055	0.003983
8.060	0.003997
8.065	0.004037
8.070	0.004003
8.075	0.004044
8.080	0.004005
8.085	0.004033
8.090	0.004045
8.095	0.004078
8.100	0.004071
8.105	0.004091
8.110	0.004099
8.115	0.004112
8.120	0.004119
8.125	0.004146
8.130	0.004175
8.135	0.004174
8.140	0.004167
8.145	0.004202
8.150	0.004196
8.155	0.004228
8.160	0.004234
8.165	0.004254
8.170	0.004283
8.175	0.004283
8.180	0.004331
8.185	0.004318
8.190	0.004332
8.195	0.004345
8.200	0.004374
8.205	0.004381
8.210	0.004417
8.215	0.004418
8.220	0.004404
8.225	0.004449
8.230	0.004455
8.235	0.004434
8.240	0.004522
8.245	0.004508
8.250	0.004529
8.255	0.004536
8.260	0.004570
8.265	0.004598
8.270	0.004619
8.275	0.004640
8.280	0.004615
8.285	0.004637
8.290	0.004664
8.295	0.004693
8.300	0.004683
8.305	0.004692
8.310	0.004687
8.315	0.004716
8.320	0.004749
8.325	0.004731
8.330	0.004802
8.335	0.004854
8.340	0.004831
8.345	0.004880
8.350	0.004900
8.355	0.004907
8.360	0.004946
8.365	0.004959
8.370	0.004994
8.375	0.004993
8.380	0.005008
8.385	0.005000
8.390	0.005070
8.395	0.005069
8.400	0.005124
8.405	0.005158
8.410	0.005120
8.415	0.005169
8.420	0.005182
8.425	0.005194
8.430	0.005228
8.435	0.005275
8.440	0.005255
8.445	0.005289
8.450	0.005295
8.455	0.005303
8.460	0.005336
8.465	0.005364
8.470	0.005390
8.475	0.005446
8.480	0.005435
8.485	0.005462
8.490	0.005474
8.495	0.005487
8.500	0.005508
8.505	0.005529
8.510	0.005565
8.515	0.005584
8.520	0.005633
8.525	0.005646
8.530	0.005661
8.535	0.005681
8.540	0.005695
8.545	0.005725
8.550	0.005712
8.555	0.005793
8.560	0.005786
8.565	0.005819
8.570	0.005834
8.575	0.005862
8.580	0.005883
8.585	0.005923
8.590	0.005944
8.595	0.006006
8.600	0.006012
8.605	0.006054
8.610	0.006070
8.615	0.006094
8.620	0.006138
8.625	0.006130
8.630	0.006170
8.635	0.006210
8.640	0.006257
8.645	0.006311
8.650	0.006312
8.655	0.006347
8.660	0.006382
8.665	0.006446
8.670	0.006448
8.675	0.006486
8.680	0.006504
8.685	0.006547
8.690	0.006614
8.695	0.006601
8.700	0.006616
8.705	0.006700
8.710	0.006675
8.715	0.006753
8.720	0.006769
8.725	0.006800
8.730	0.006913
8.735	0.006872
8.740	0.006927
8.745	0.006957
8.750	0.007008
8.755	0.007041
8.760	0.007082
8.765	0.007078
8.770	0.007149
8.775	0.007169
8.780	0.007190
8.785	0.007261
8.790	0.007278
8.795	0.007297
8.800	0.007345
8.805	0.007403
8.810	0.007423
8.815	0.007492
8.820	0.007514
8.825	0.007535
8.830	0.007574
8.835	0.007588
8.840	0.007647
8.845	0.007717
8.850	0.007786
8.855	0.007869
8.860	0.007875
8.865	0.007974
8.870	0.007998
8.875	0.008066
8.880	0.008155
8.885	0.008203
8.890	0.008246
8.895	0.008326
8.900	0.008374
8.905	0.008429
8.910	0.008505
8.915	0.008538
8.920	0.008615
8.925	0.008662
8.930	0.008732
8.935	0.008795
8.940	0.008866
8.945	0.008951
8.950	0.008985
8.955	0.009079
8.960	0.009125
8.965	0.009224
8.970	0.009271
8.975	0.009358
8.980	0.009426
8.985	0.009523
8.990	0.009567
8.995	0.009666
9.000	0.009684
9.005	0.009732
9.010	0.009848
9.015	0.009979
9.020	0.010072
9.025	0.010165
9.030	0.010220
9.035	0.010350
9.040	0.010461
9.045	0.010530
9.050	0.010651
9.055	0.010740
9.060	0.010864
9.065	0.010924
9.070	0.011063
9.075	0.011154
9.080	0.011289
9.085	0.011364
9.090	0.011485
9.095	0.011636
9.100	0.011720
9.105	0.011858
9.110	0.011976
9.115	0.012099
9.120	0.012236
9.125	0.012359
9.130	0.012547
9.135	0.012629
9.140	0.012789
9.145	0.012942
9.150	0.013101
9.155	0.013225
9.160	0.013415
9.165	0.013627
9.170	0.013798
9.175	0.014010
9.180	0.014193
9.185	0.014385
9.190	0.014611
9.195	0.014836
9.200	0.015090
9.205	0.015322
9.210	0.015549
9.215	0.015784
9.220	0.016085
9.225	0.016313
9.230	0.016638
9.235	0.016914
9.240	0.017216
9.245	0.017539
9.250	0.017859
9.255	0.018244
9.260	0.018542
9.265	0.018942
9.270	0.019315
9.275	0.019765
9.280	0.020168
9.285	0.020636
9.290	0.021148
9.295	0.021695
9.300	0.022234
9.305	0.022862
9.310	0.023524
9.315	0.024243
9.320	0.025057
9.325	0.025905
9.330	0.026986
9.335	0.028228
9.340	0.029662
9.345	0.031412
9.350	0.033467
9.355	0.035745
9.360	0.038178
9.365	0.040635
9.370	0.042868
9.375	0.044914
9.380	0.046642
9.385	0.047831
9.390	0.048607
9.395	0.048931
9.400	0.048386
9.405	0.046856
9.410	0.044615
9.415	0.041694
9.420	0.037881
9.425	0.032599
9.430	0.025953
9.435	0.018671
9.440	0.011946
9.445	0.006559
9.450	0.002925
9.455	0.000623
9.460	-0.000595
9.465	-0.001242
9.470	-0.001531
9.475	-0.001682
9.480	-0.001806
9.485	-0.001834
9.490	-0.001854
9.495	-0.001903
9.500	-0.001910
9.505	-0.001951
9.510	-0.001923
9.515	-0.001930
9.520	-0.001903
9.525	-0.001944
9.530	-0.001951
9.535	-0.001937
9.540	-0.001951
9.545	-0.001972
9.550	-0.001972
9.555	-0.001951
9.560	-0.001979
9.565	-0.001951
9.570	-0.001965
9.575	-0.001979
9.580	-0.001958
9.585	-0.001972
9.590	-0.001986
9.595	-0.001972
9.600	-0.001972
9.605	-0.001993
9.610	-0.001986
9.615	-0.001972
9.620	-0.001993
9.625	-0.001986
9.630	-0.002013
9.635	-0.002007
9.640	-0.002013
9.645	-0.001998
9.650	-0.001991
9.655	-0.002019
9.660	-0.002012
9.665	-0.002019
9.670	-0.002019
9.675	-0.001978
9.680	-0.002012
9.685	-0.002019
9.690	-0.002026
9.695	-0.002012
9.700	-0.002026
9.705	-0.002012
9.710	-0.002033
9.715	-0.001998
9.720	-0.002005
9.725	-0.002012
9.730	-0.002026
9.735	-0.002019
9.740	-0.002012
9.745	-0.002026
9.750	-0.002033
9.755	-0.001985
9.760	-0.002019
9.765	-0.002061
9.770	-0.002033
9.775	-0.002054
9.780	-0.002054
9.785	-0.002026
9.790	-0.002033
9.795	-0.002040
9.800	-0.002026
9.805	-0.002040
9.810	-0.002027
9.815	-0.002020
9.820	-0.002034
9.825	-0.002027
9.830	-0.002027
9.835	-0.002006
9.840	-0.002061
9.845	-0.002068
9.850	-0.002041
9.855	-0.002061
9.860	-0.002027
9.865	-0.002041
9.870	-0.002068
9.875	-0.002034
9.880	-0.002020
9.885	-0.002048
9.890	-0.002034
9.895	-0.002048
9.900	-0.002041
9.905	-0.002048
9.910	-0.002062
9.915	-0.002082
9.920	-0.002027
9.925	-0.002110
9.930	-0.002062
9.935	-0.002041
9.940	-0.002082
9.945	-0.002041
9.950	-0.002020
9.955	-0.002048
9.960	-0.002082
9.965	-0.002062
9.970	-0.002062
9.975	-0.002041
9.980	-0.002076
9.985	-0.002089
9.990	-0.002083
9.995	-0.002076
10.000	-0.002062
10.005	-0.002055
10.010	-0.002076
10.015	-0.002055
10.020	-0.002062
10.025	-0.002076
10.030	-0.002083
10.035	-0.002055
10.040	-0.002083
10.045	-0.002076
10.050	-0.002056
10.055	-0.002062
10.060	-0.002083
10.065	-0.002083
10.070	-0.002049
10.075	-0.002035
10.080	-0.002063
10.085	-0.002056
10.090	-0.002097
10.095	-0.002083
10.100	-0.002090
10.105	-0.002084
10.110	-0.002084
10.115	-0.002063
10.120	-0.002097
10.125	-0.002070
10.130	-0.002077
10.135	-0.002070
10.140	-0.002104
10.145	-0.002084
10.150	-0.002070
10.155	-0.002098
10.160	-0.002077
10.165	-0.002111
10.170	-0.002118
10.175	-0.002112
10.180	-0.002125
10.185	-0.002125
10.190	-0.002118
10.195	-0.002132
10.200	-0.002050
10.205	-0.002139
10.210	-0.002098
10.215	-0.002098
10.220	-0.002119
10.225	-0.002098
10.230	-0.002098
10.235	-0.002112
10.240	-0.002126
10.245	-0.002126
10.250	-0.002132
10.255	-0.002119
10.260	-0.002126
10.265	-0.002119
10.270	-0.002146
10.275	-0.002126
10.280	-0.002112
10.285	-0.002126
10.290	-0.002112
10.295	-0.002146
10.300	-0.002146
10.305	-0.002140
10.310	-0.002146
10.315	-0.002140
10.320	-0.002153
10.325	-0.002160
10.330	-0.002181
10.335	-0.002140
10.340	-0.002160
10.345	-0.002147
10.350	-0.002126
10.355	-0.002160
10.360	-0.002153
10.365	-0.002154
10.370	-0.002174
10.375	-0.002167
10.380	-0.002188
10.385	-0.002188
10.390	-0.002160
10.395	-0.002181
10.400	-0.002167
10.405	-0.002160
10.410	-0.002147
10.415	-0.002174
10.420	-0.002167
10.425	-0.002167
10.430	-0.002188
10.435	-0.002195
10.440	-0.002175
10.445	-0.002181
10.450	-0.002168
10.455	-0.002195
10.460	-0.002202
10.465	-0.002195
10.470	-0.002223
10.475	-0.002195
10.480	-0.002209
10.485	-0.002209
10.490	-0.002230
10.495	-0.002216
10.500	-0.002223
10.505	-0.002209
10.510	-0.002216
10.515	-0.002230
10.520	-0.002223
10.525	-0.002209
10.530	-0.002223
10.535	-0.002223
10.540	-0.002216
10.545	-0.002216
10.550	-0.002209
10.555	-0.002223
10.560	-0.002223
10.565	-0.002230
10.570	-0.002251
10.575	-0.002223
10.580	-0.002216
10.585	-0.002251
10.590	-0.002216
10.595	-0.002209
10.600	-0.002244
10.605	-0.002237
10.610	-0.002251
10.615	-0.002244
10.620	-0.002251
10.625	-0.002258
10.630	-0.002244
10.635	-0.002237
10.640	-0.002258
10.645	-0.002279
10.650	-0.002237
10.655	-0.002272
10.660	-0.002272
10.665	-0.002237
10.670	-0.002244
10.675	-0.002237
10.680	-0.002265
10.685	-0.002265
10.690	-0.002251
10.695	-0.002272
10.700	-0.002272
10.705	-0.002265
10.710	-0.002286
10.715	-0.002272
10.720	-0.002258
10.725	-0.002272
10.730	-0.002258
10.735	-0.002293
10.740	-0.002300
10.745	-0.002279
10.750	-0.002286
10.755	-0.002265
10.760	-0.002307
10.765	-0.002314
10.770	-0.002314
10.775	-0.002293
10.780	-0.002293
10.785	-0.002314
10.790	-0.002320
10.795	-0.002307
10.800	-0.002300
10.805	-0.002279
10.810	-0.002314
10.815	-0.002314
10.820	-0.002286
10.825	-0.002293
10.830	-0.002293
10.835	-0.002314
10.840	-0.002342
10.845	-0.002328
10.850	-0.002307
10.855	-0.002314
10.860	-0.002307
10.865	-0.002307
10.870	-0.002307
10.875	-0.002349
10.880	-0.002335
10.885	-0.002307
10.890	-0.002307
10.895	-0.002335
10.900	-0.002328
10.905	-0.002342
10.910	-0.002370
10.915	-0.002363
10.920	-0.002349
10.925	-0.002349
10.930	-0.002328
10.935	-0.002342
10.940	-0.002383
10.945	-0.002370
10.950	-0.002370
10.955	-0.002363
10.960	-0.002377
10.965	-0.002363
10.970	-0.002363
10.975	-0.002363
10.980	-0.002356
10.985	-0.002398
10.990	-0.002377
10.995	-0.002377
11.000	-0.002349
11.005	-0.002370
11.010	-0.002350
11.015	-0.002405
11.020	-0.002384
11.025	-0.002370
11.030	-0.002384
11.035	-0.002412
11.040	-0.002370
11.045	-0.002405
11.050	-0.002377
11.055	-0.002398
11.060	-0.002405
11.065	-0.002419
11.070	-0.002398
11.075	-0.002412
11.080	-0.002384
11.085	-0.002384
11.090	-0.002398
11.095	-0.002398
11.100	-0.002399
11.105	-0.002399
11.110	-0.002412
11.115	-0.002405
11.120	-0.002419
11.125	-0.002419
11.130	-0.002392
11.135	-0.002419
11.140	-0.002406
11.145	-0.002406
11.150	-0.002392
11.155	-0.002392
11.160	-0.002420
11.165	-0.002406
11.170	-0.002441
11.175	-0.002461
11.180	-0.002440
11.185	-0.002440
11.190	-0.002447
11.195	-0.002413
11.200	-0.002413
11.205	-0.002447
11.210	-0.002461
11.215	-0.002434
11.220	-0.002441
11.225	-0.002434
11.230	-0.002475
11.235	-0.002441
11.240	-0.002441
11.245	-0.002482
11.250	-0.002427
11.255	-0.002469
11.260	-0.002434
11.265	-0.002469
11.270	-0.002455
11.275	-0.002462
11.280	-0.002469
11.285	-0.002448
11.290	-0.002496
11.295	-0.002476
11.300	-0.002503
11.305	-0.002448
11.310	-0.002490
11.315	-0.002489
11.320	-0.002483
11.325	-0.002469
11.330	-0.002503
11.335	-0.002469
11.340	-0.002469
11.345	-0.002497
11.350	-0.002497
11.355	-0.002497
11.360	-0.002455
11.365	-0.002531
11.370	-0.002511
11.375	-0.002504
11.380	-0.002476
11.385	-0.002497
11.390	-0.002517
11.395	-0.002511
11.400	-0.002504
11.405	-0.002511
11.410	-0.002497
11.415	-0.002517
11.420	-0.002476
11.425	-0.002531
11.430	-0.002524
11.435	-0.002497
11.440	-0.002518
11.445	-0.002511
11.450	-0.002511
11.455	-0.002518
11.460	-0.002531
11.465	-0.002518
11.470	-0.002504
11.475	-0.002504
11.480	-0.002511
11.485	-0.002518
11.490	-0.002504
11.495	-0.002545
11.500	-0.002552
11.505	-0.002559
11.510	-0.002532
11.515	-0.002539
11.520	-0.002545
11.525	-0.002532
11.530	-0.002539
11.535	-0.002518
11.540	-0.002559
11.545	-0.002553
11.550	-0.002504
11.555	-0.002518
11.560	-0.002553
11.565	-0.002546
11.570	-0.002567
11.575	-0.002553
11.580	-0.002546
11.585	-0.002560
11.590	-0.002587
11.595	-0.002560
11.600	-0.002546
11.605	-0.002573
11.610	-0.002573
11.615	-0.002567
11.620	-0.002567
11.625	-0.002601
11.630	-0.002560
11.635	-0.002594
11.640	-0.002581
11.645	-0.002587
11.650	-0.002580
11.655	-0.002581
11.660	-0.002560
11.665	-0.002601
11.670	-0.002588
11.675	-0.002595
11.680	-0.002622
11.685	-0.002595
11.690	-0.002581
11.695	-0.002602
11.700	-0.002609
11.705	-0.002623
11.710	-0.002602
11.715	-0.002602
11.720	-0.002643
11.725	-0.002588
11.730	-0.002636
11.735	-0.002615
11.740	-0.002581
11.745	-0.002616
11.750	-0.002629
11.755	-0.002602
11.760	-0.002636
11.765	-0.002616
11.770	-0.002644
11.775	-0.002630
11.780	-0.002623
11.785	-0.002630
11.790	-0.002623
11.795	-0.002664
11.800	-0.002651
11.805	-0.002657
11.810	-0.002671
11.815	-0.002637
11.820	-0.002657
11.825	-0.002644
11.830	-0.002630
11.835	-0.002665
11.840	-0.002630
11.845	-0.002672
11.850	-0.002665
11.855	-0.002665
11.860	-0.002658
11.865	-0.002651
11.870	-0.002678
11.875	-0.002637
11.880	-0.002651
11.885	-0.002665
11.890	-0.002651
11.895	-0.002679
11.900	-0.002665
11.905	-0.002686
11.910	-0.002651
11.915	-0.002700
11.920	-0.002679
11.925	-0.002672
11.930	-0.002679
11.935	-0.002665
11.940	-0.002679
11.945	-0.002679
11.950	-0.002672
11.955	-0.002672
11.960	-0.002734
11.965	-0.002721
11.970	-0.002728
11.975	-0.002714
11.980	-0.002679
11.985	-0.002755
11.990	-0.002714
11.995	-0.002707
12.000	-0.002700
12.005	-0.002735
12.010	-0.002707
12.015	-0.002728
12.020	-0.002735
12.025	-0.002728
12.030	-0.002728
12.035	-0.002735
12.040	-0.002728
12.045	-0.002693
12.050	-0.002714
12.055	-0.002714
12.060	-0.002749
12.065	-0.002728
12.070	-0.002700
12.075	-0.002728
12.080	-0.002742
12.085	-0.002707
12.090	-0.002749
12.095	-0.002776
12.100	-0.002735
12.105	-0.002742
12.110	-0.002742
12.115	-0.002783
12.120	-0.002742
12.125	-0.002769
12.130	-0.002762
12.135	-0.002742
12.140	-0.002742
12.145	-0.002804
12.150	-0.002762
12.155	-0.002763
12.160	-0.002797
12.165	-0.002742
12.170	-0.002777
12.175	-0.002777
12.180	-0.002790
12.185	-0.002811
12.190	-0.002784
12.195	-0.002783
12.200	-0.002790
12.205	-0.002790
12.210	-0.002777
12.215	-0.002784
12.220	-0.002797
12.225	-0.002790
12.230	-0.002797
12.235	-0.002818
12.240	-0.002818
12.245	-0.002784
12.250	-0.002797
12.255	-0.002790
12.260	-0.002818
12.265	-0.002797
12.270	-0.002804
12.275	-0.002783
12.280	-0.002797
12.285	-0.002804
12.290	-0.002811
12.295	-0.002818
12.300	-0.002804
12.305	-0.002825
12.310	-0.002818
12.315	-0.002825
12.320	-0.002852
12.325	-0.002825
12.330	-0.002852
12.335	-0.002825
12.340	-0.002845
12.345	-0.002811
12.350	-0.002866
12.355	-0.002818
12.360	-0.002866
12.365	-0.002852
12.370	-0.002859
12.375	-0.002852
12.380	-0.002866
12.385	-0.002859
12.390	-0.002859
12.395	-0.002887
12.400	-0.002859
12.405	-0.002852
12.410	-0.002859
12.415	-0.002866
12.420	-0.002873
12.425	-0.002866
12.430	-0.002873
12.435	-0.002853
12.440	-0.002866
12.445	-0.002880
12.450	-0.002866
12.455	-0.002880
12.460	-0.002873
12.465	-0.002900
12.470	-0.002859
12.475	-0.002873
12.480	-0.002900
12.485	-0.002907
12.490	-0.002886
12.495	-0.002893
12.500	-0.002914
12.505	-0.002921
12.510	-0.002921
12.515	-0.002914
12.520	-0.002907
12.525	-0.002948
12.530	-0.002893
12.535	-0.002900
12.540	-0.002935
12.545	-0.002914
12.550	-0.002921
12.555	-0.002914
12.560	-0.002921
12.565	-0.002921
12.570	-0.002949
12.575	-0.002921
12.580	-0.002921
12.585	-0.002928
12.590	-0.002941
12.595	-0.002955
12.600	-0.002969
12.605	-0.002955
12.610	-0.002928
12.615	-0.002942
12.620	-0.002941
12.625	-0.002962
12.630	-0.002948
12.635	-0.002976
12.640	-0.002956
12.645	-0.002976
12.650	-0.002962
12.655	-0.002962
12.660	-0.002989
12.665	-0.002955
12.670	-0.002996
12.675	-0.002969
12.680	-0.002962
12.685	-0.002969
12.690	-0.002948
12.695	-0.002969
12.700	-0.002969
12.705	-0.002990
12.710	-0.002997
12.715	-0.002983
12.720	-0.002996
12.725	-0.003010
12.730	-0.003024
12.735	-0.003017
12.740	-0.002962
12.745	-0.003003
12.750	-0.003044
12.755	-0.003038
12.760	-0.002989
12.765	-0.002997
12.770	-0.003038
12.775	-0.003024
12.780	-0.003024
12.785	-0.003037
12.790	-0.003024
12.795	-0.003038
12.800	-0.003010
12.805	-0.003038
12.810	-0.003010
12.815	-0.003017
12.820	-0.003031
12.825	-0.003058
12.830	-0.003031
12.835	-0.003011
12.840	-0.003045
12.845	-0.003045
12.850	-0.003058
12.855	-0.003024
12.860	-0.003079
12.865	-0.003038
12.870	-0.003059
12.875	-0.003072
12.880	-0.003038
12.885	-0.003072
12.890	-0.003086
12.895	-0.003045
12.900	-0.003066
12.905	-0.003080
12.910	-0.003073
12.915	-0.003072
12.920	-0.003079
12.925	-0.003100
12.930	-0.003073
12.935	-0.003100
12.940	-0.003100
12.945	-0.003100
12.950	-0.003086
12.955	-0.003079
12.960	-0.003079
12.965	-0.003107
12.970	-0.003114
12.975	-0.003100
12.980	-0.003093
12.985	-0.003127
12.990	-0.003093
12.995	-0.003121
13.000	-0.003127
13.005	-0.003114
13.010	-0.003121
13.015	-0.003114
13.020	-0.003120
13.025	-0.003107
13.030	-0.003121
13.035	-0.003107
13.040	-0.003128
13.045	-0.003148
13.050	-0.003162
13.055	-0.003162
13.060	-0.003155
13.065	-0.003141
13.070	-0.003127
13.075	-0.003114
13.080	-0.003141
13.085	-0.003155
13.090	-0.003162
13.095	-0.003135
13.100	-0.003128
13.105	-0.003156
13.110	-0.003162
13.115	-0.003155
13.120	-0.003169
13.125	-0.003135
13.130	-0.003183
13.135	-0.003162
13.140	-0.003169
13.145	-0.003156
13.150	-0.003128
13.155	-0.003183
13.160	-0.003210
13.165	-0.003204
13.170	-0.003149
13.175	-0.003190
13.180	-0.003170
13.185	-0.003197
13.190	-0.003204
13.195	-0.003197
13.200	-0.003149
13.205	-0.003184
13.210	-0.003190
13.215	-0.003191
13.220	-0.003191
13.225	-0.003156
13.230	-0.003198
13.235	-0.003171
13.240	-0.003198
13.245	-0.003219
13.250	-0.003232
13.255	-0.003191
13.260	-0.003184
13.265	-0.003219
13.270	-0.003191
13.275	-0.003178
13.280	-0.003199
13.285	-0.003219
13.290	-0.003219
13.295	-0.003233
13.300	-0.003220
13.305	-0.003247
13.310	-0.003226
13.315	-0.003226
13.320	-0.003219
13.325	-0.003212
13.330	-0.003240
13.335	-0.003227
13.340	-0.003226
13.345	-0.003240
13.350	-0.003261
13.355	-0.003275
13.360	-0.003227
13.365	-0.003241
13.370	-0.003242
13.375	-0.003262
13.380	-0.003262
13.385	-0.003275
13.390	-0.003282
13.395	-0.003269
13.400	-0.003296
13.405	-0.003255
13.410	-0.003262
13.415	-0.003296
13.420	-0.003282
13.425	-0.003276
13.430	-0.003283
13.435	-0.003324
13.440	-0.003283
13.445	-0.003338
13.450	-0.003318
13.455	-0.003339
13.460	-0.003381
13.465	-0.003392
13.470	-0.003398
13.475	-0.003290
13.480	-0.003152
13.485	-0.003147
13.490	-0.003197
13.495	-0.003320
13.500	-0.003366
13.505	-0.003355
13.510	-0.003346
13.515	-0.003284
13.520	-0.003325
13.525	-0.003318
13.530	-0.003311
13.535	-0.003311
13.540	-0.003339
13.545	-0.003325
13.550	-0.003297
13.555	-0.003331
13.560	-0.003318
13.565	-0.003332
13.570	-0.003346
13.575	-0.003366
13.580	-0.003325
13.585	-0.003359
13.590	-0.003366
13.595	-0.003332
13.600	-0.003345
13.605	-0.003359
13.610	-0.003325
13.615	-0.003352
13.620	-0.003373
13.625	-0.003332
13.630	-0.003353
13.635	-0.003360
13.640	-0.003381
13.645	-0.003359
13.650	-0.003373
13.655	-0.003367
13.660	-0.003387
13.665	-0.003380
13.670	-0.003346
13.675	-0.003360
13.680	-0.003394
13.685	-0.003414
13.690	-0.003380
13.695	-0.003414
13.700	-0.003387
13.705	-0.003388
13.710	-0.003414
13.715	-0.003408
13.720	-0.003401
13.725	-0.003421
13.730	-0.003421
13.735	-0.003387
13.740	-0.003421
13.745	-0.003401
13.750	-0.003414
13.755	-0.003421
13.760	-0.003400
13.765	-0.003408
13.770	-0.003408
13.775	-0.003422
13.780	-0.003442
13.785	-0.003448
13.790	-0.003449
13.795	-0.003428
13.800	-0.003435
13.805	-0.003428
13.810	-0.003455
13.815	-0.003435
13.820	-0.003448
13.825	-0.003441
13.830	-0.003448
13.835	-0.003463
13.840	-0.003463
13.845	-0.003476
13.850	-0.003455
13.855	-0.003462
13.860	-0.003455
13.865	-0.003476
13.870	-0.003476
13.875	-0.003462
13.880	-0.003441
13.885	-0.003489
13.890	-0.003510
13.895	-0.003455
13.900	-0.003456
13.905	-0.003511
13.910	-0.003510
13.915	-0.003490
13.920	-0.003476
13.925	-0.003510
13.930	-0.003504
13.935	-0.003469
13.940	-0.003503
13.945	-0.003483
13.950	-0.003510
13.955	-0.003524
13.960	-0.003531
13.965	-0.003476
13.970	-0.003490
13.975	-0.003531
13.980	-0.003524
13.985	-0.003531
13.990	-0.003510
13.995	-0.003510
14.000	-0.003510
14.005	-0.003538
14.010	-0.003531
14.015	-0.003518
14.020	-0.003566
14.025	-0.003524
14.030	-0.003518
14.035	-0.003532
14.040	-0.003511
14.045	-0.003545
14.050	-0.003559
14.055	-0.003552
14.060	-0.003566
14.065	-0.003538
14.070	-0.003580
14.075	-0.003538
14.080	-0.003538
14.085	-0.003566
14.090	-0.003545
14.095	-0.003580
14.100	-0.003559
14.105	-0.003560
14.110	-0.003573
14.115	-0.003559
14.120	-0.003593
14.125	-0.003600
14.130	-0.003600
14.135	-0.003573
14.140	-0.003552
14.145	-0.003587
14.150	-0.003566
14.155	-0.003621
14.160	-0.003580
14.165	-0.003594
14.170	-0.003615
14.175	-0.003601
14.180	-0.003594
14.185	-0.003628
14.190	-0.003587
14.195	-0.003594
14.200	-0.003587
14.205	-0.003601
14.210	-0.003587
14.215	-0.003628
14.220	-0.003628
14.225	-0.003621
14.230	-0.003635
14.235	-0.003622
14.240	-0.003622
14.245	-0.003628
14.250	-0.003615
14.255	-0.003608
14.260	-0.003642
14.265	-0.003615
14.270	-0.003621
14.275	-0.003649
14.280	-0.003594
14.285	-0.003656
14.290	-0.003670
14.295	-0.003615
14.300	-0.003678
14.305	-0.003671
14.310	-0.003663
14.315	-0.003663
14.320	-0.003670
14.325	-0.003643
14.330	-0.003650
14.335	-0.003698
14.340	-0.003691
14.345	-0.003684
14.350	-0.003698
14.355	-0.003663
14.360	-0.003684
14.365	-0.003698
14.370	-0.003685
14.375	-0.003691
14.380	-0.003705
14.385	-0.003677
14.390	-0.003705
14.395	-0.003746
14.400	-0.003698
14.405	-0.003671
14.410	-0.003698
14.415	-0.003726
14.420	-0.003726
14.425	-0.003733
14.430	-0.003733
14.435	-0.003720
14.440	-0.003713
14.445	-0.003733
14.450	-0.003726
14.455	-0.003733
14.460	-0.003753
14.465	-0.003740
14.470	-0.003726
14.475	-0.003754
14.480	-0.003747
14.485	-0.003747
14.490	-0.003760
14.495	-0.003733
14.500	-0.003775
14.505	-0.003768
14.510	-0.003760
14.515	-0.003767
14.520	-0.003767
14.525	-0.003760
14.530	-0.003781
14.535	-0.003795
14.540	-0.003781
14.545	-0.003788
14.550	-0.003809
14.555	-0.003809
14.560	-0.003802
14.565	-0.003789
14.570	-0.003810
14.575	-0.003796
14.580	-0.003816
14.585	-0.003795
14.590	-0.003816
14.595	-0.003810
14.600	-0.003803
14.605	-0.003830
14.610	-0.003796
14.615	-0.003830
14.620	-0.003803
14.625	-0.003830
14.630	-0.003837
14.635	-0.003838
14.640	-0.003872
14.645	-0.003858
14.650	-0.003837
14.655	-0.003837
14.660	-0.003844
14.665	-0.003844
14.670	-0.003831
14.675	-0.003872
14.680	-0.003858
14.685	-0.003852
14.690	-0.003858
14.695	-0.003873
14.700	-0.003873
14.705	-0.003894
14.710	-0.003852
14.715	-0.003893
14.720	-0.003873
14.725	-0.003880
14.730	-0.003873
14.735	-0.003846
14.740	-0.003908
14.745	-0.003880
14.750	-0.003887
14.755	-0.003873
14.760	-0.003880
14.765	-0.003895
14.770	-0.003902
14.775	-0.003922
14.780	-0.003915
14.785	-0.003915
14.790	-0.003929
14.795	-0.003929
14.800	-0.003936
14.805	-0.003895
14.810	-0.003908
14.815	-0.003916
14.820	-0.003957
14.825	-0.003964
14.830	-0.003917
14.835	-0.003945
14.840	-0.003958
14.845	-0.003923
14.850	-0.003917
14.855	-0.003930
14.860	-0.003938
14.865	-0.003945
14.870	-0.003959
14.875	-0.003958
14.880	-0.003944
14.885	-0.003944
14.890	-0.003958
14.895	-0.003938
14.900	-0.003966
14.905	-0.004007
14.910	-0.003965
14.915	-0.003972
14.920	-0.003944
14.925	-0.003979
14.930	-0.003986
14.935	-0.004007
14.940	-0.003979
14.945	-0.003993
14.950	-0.004020
14.955	-0.004006
14.960	-0.003966
14.965	-0.003980
14.970	-0.004021
14.975	-0.004020
14.980	-0.003999
14.985	-0.004034
14.990	-0.004006
14.995	-0.004013
15.000	-0.004006
15.005	-0.004013
15.010	-0.004027
15.015	-0.003999
15.020	-0.004006
15.025	-0.004040
15.030	-0.004000
15.035	-0.004042
15.040	-0.004041
15.045	-0.004054
15.050	-0.004054
15.055	-0.004040
15.060	-0.004061
15.065	-0.004047
15.070	-0.004020
15.075	-0.004047
15.080	-0.004054
15.085	-0.004041
15.090	-0.004047
15.095	-0.004089
15.100	-0.004062
15.105	-0.004076
15.110	-0.004068
15.115	-0.004075
15.120	-0.004096
15.125	-0.004089
15.130	-0.004103
15.135	-0.004089
15.140	-0.004089
15.145	-0.004075
15.150	-0.004082
15.155	-0.004096
15.160	-0.004123
15.165	-0.004138
15.170	-0.004118
15.175	-0.004124
15.180	-0.004124
15.185	-0.004124
15.190	-0.004117
15.195	-0.004145
15.200	-0.004110
15.205	-0.004104
15.210	-0.004159
15.215	-0.004118
15.220	-0.004138
15.225	-0.004145
15.230	-0.004146
15.235	-0.004146
15.240	-0.004159
15.245	-0.004145
15.250	-0.004145
15.255	-0.004194
15.260	-0.004194
15.265	-0.004167
15.270	-0.004167
15.275	-0.004160
15.280	-0.004153
15.285	-0.004167
15.290	-0.004181
15.295	-0.004174
15.300	-0.004175
15.305	-0.004189
15.310	-0.004181
15.315	-0.004202
15.320	-0.004222
15.325	-0.004188
15.330	-0.004222
15.335	-0.004216
15.340	-0.004223
15.345	-0.004223
15.350	-0.004189
15.355	-0.004216
15.360	-0.004224
15.365	-0.004245
15.370	-0.004211
15.375	-0.004238
15.380	-0.004244
15.385	-0.004238
15.390	-0.004224
15.395	-0.004251
15.400	-0.004265
15.405	-0.004265
15.410	-0.004231
15.415	-0.004238
15.420	-0.004259
15.425	-0.004272
15.430	-0.004252
15.435	-0.004260
15.440	-0.004307
15.445	-0.004286
15.450	-0.004286
15.455	-0.004293
15.460	-0.004301
15.465	-0.004314
15.470	-0.004308
15.475	-0.004280
15.480	-0.004294
15.485	-0.004273
15.490	-0.004307
15.495	-0.004295
15.500	-0.004309
15.505	-0.004309
15.510	-0.004322
15.515	-0.004342
15.520	-0.004315
15.525	-0.004308
15.530	-0.004328
15.535	-0.004342
15.540	-0.004314
15.545	-0.004335
15.550	-0.004328
15.555	-0.004328
15.560	-0.004370
15.565	-0.004336
15.570	-0.004364
15.575	-0.004363
15.580	-0.004369
15.585	-0.004356
15.590	-0.004362
15.595	-0.004349
15.600	-0.004356
15.605	-0.004363
15.610	-0.004383
15.615	-0.004342
15.620	-0.004370
15.625	-0.004363
15.630	-0.004398
15.635	-0.004385
15.640	-0.004391
15.645	-0.004384
15.650	-0.004390
15.655	-0.004418
15.660	-0.004390
15.665	-0.004411
15.670	-0.004411
15.675	-0.004404
15.680	-0.004431
15.685	-0.004404
15.690	-0.004403
15.695	-0.004418
15.700	-0.004460
15.705	-0.004425
15.710	-0.004424
15.715	-0.004444
15.720	-0.004451
15.725	-0.004444
15.730	-0.004410
15.735	-0.004417
15.740	-0.004424
15.745	-0.004438
15.750	-0.004445
15.755	-0.004424
15.760	-0.004439
15.765	-0.004453
15.770	-0.004480
15.775	-0.004465
15.780	-0.004493
15.785	-0.004466
15.790	-0.004507
15.795	-0.004514
15.800	-0.004466
15.805	-0.004472
15.810	-0.004479
15.815	-0.004500
15.820	-0.004478
15.825	-0.004500
15.830	-0.004500
15.835	-0.004515
15.840	-0.004527
15.845	-0.004507
15.850	-0.004527
15.855	-0.004520
15.860	-0.004520
15.865	-0.004513
15.870	-0.004541
15.875	-0.004541
15.880	-0.004527
15.885	-0.004534
15.890	-0.004541
15.895	-0.004541
15.900	-0.004583
15.905	-0.004542
15.910	-0.004561
15.915	-0.004583
15.920	-0.004562
15.925	-0.004569
15.930	-0.004576
15.935	-0.004569
15.940	-0.004555
15.945	-0.004583
15.950	-0.004576
15.955	-0.004589
15.960	-0.004590
15.965	-0.004583
15.970	-0.004611
15.975	-0.004590
15.980	-0.004589
15.985	-0.004589
15.990	-0.004596
15.995	-0.004596
16.000	-0.004582
16.005	-0.004610
16.010	-0.004589
16.015	-0.004617
16.020	-0.004624
16.025	-0.004638
16.030	-0.004618
16.035	-0.004632
16.040	-0.004659
16.045	-0.004624
16.050	-0.004597
16.055	-0.004646
16.060	-0.004652
16.065	-0.004645
16.070	-0.004666
16.075	-0.004667
16.080	-0.004659
16.085	-0.004680
16.090	-0.004680
16.095	-0.004660
16.100	-0.004640
16.105	-0.004688
16.110	-0.004714
16.115	-0.004714
16.120	-0.004687
16.125	-0.004694
16.130	-0.004715
16.135	-0.004687
16.140	-0.004735
16.145	-0.004715
16.150	-0.004694
16.155	-0.004687
16.160	-0.004750
16.165	-0.004709
16.170	-0.004750
16.175	-0.004756
16.180	-0.004736
16.185	-0.004757
16.190	-0.004715
16.195	-0.004750
16.200	-0.004756
16.205	-0.004742
16.210	-0.004743
16.215	-0.004771
16.220	-0.004756
16.225	-0.004736
16.230	-0.004771
16.235	-0.004772
16.240	-0.004799
16.245	-0.004764
16.250	-0.004777
16.255	-0.004777
16.260	-0.004763
16.265	-0.004798
16.270	-0.004785
16.275	-0.004792
16.280	-0.004785
16.285	-0.004806
16.290	-0.004813
16.295	-0.004820
16.300	-0.004814
16.305	-0.004814
16.310	-0.004813
16.315	-0.004861
16.320	-0.004841
16.325	-0.004848
16.330	-0.004827
16.335	-0.004841
16.340	-0.004848
16.345	-0.004862
16.350	-0.004855
16.355	-0.004875
16.360	-0.004868
16.365	-0.004870
16.370	-0.004884
16.375	-0.004855
16.380	-0.004862
16.385	-0.004890
16.390	-0.004896
16.395	-0.004890
16.400	-0.004924
16.405	-0.004917
16.410	-0.004917
16.415	-0.004904
16.420	-0.004890
16.425	-0.004918
16.430	-0.004905
16.435	-0.004912
16.440	-0.004938
16.445	-0.004876
16.450	-0.004925
16.455	-0.004904
16.460	-0.004918
16.465	-0.004932
16.470	-0.004911
16.475	-0.004945
16.480	-0.004938
16.485	-0.004959
16.490	-0.004958
16.495	-0.004960
16.500	-0.004967
16.505	-0.004952
16.510	-0.004993
16.515	-0.004973
16.520	-0.004986
16.525	-0.004965
16.530	-0.005006
16.535	-0.004965
16.540	-0.004972
16.545	-0.004972
16.550	-0.005000
16.555	-0.004993
16.560	-0.005014
16.565	-0.005063
16.570	-0.005015
16.575	-0.005027
16.580	-0.005020
16.585	-0.004993
16.590	-0.005042
16.595	-0.005035
16.600	-0.005069
16.605	-0.005014
16.610	-0.005042
16.615	-0.005021
16.620	-0.005034
16.625	-0.005055
16.630	-0.005029
16.635	-0.005057
16.640	-0.005035
16.645	-0.005069
16.650	-0.005069
16.655	-0.005090
16.660	-0.005097
16.665	-0.005077
16.670	-0.005084
16.675	-0.005077
16.680	-0.005132
16.685	-0.005105
16.690	-0.005112
16.695	-0.005113
16.700	-0.005100
16.705	-0.005141
16.710	-0.005147
16.715	-0.005140
16.720	-0.005134
16.725	-0.005154
16.730	-0.005154
16.735	-0.005134
16.740	-0.005134
16.745	-0.005148
16.750	-0.005169
16.755	-0.005162
16.760	-0.005142
16.765	-0.005178
16.770	-0.005171
16.775	-0.005177
16.780	-0.005226
16.785	-0.005205
16.790	-0.005226
16.795	-0.005205
16.800	-0.005219
16.805	-0.005192
16.810	-0.005199
16.815	-0.005234
16.820	-0.005193
16.825	-0.005242
16.830	-0.005250
16.835	-0.005250
16.840	-0.005256
16.845	-0.005228
16.850	-0.005256
16.855	-0.005257
16.860	-0.005250
16.865	-0.005251
16.870	-0.005265
16.875	-0.005273
16.880	-0.005280
16.885	-0.005273
16.890	-0.005280
16.895	-0.005322
16.900	-0.005282
16.905	-0.005282
16.910	-0.005336
16.915	-0.005315
16.920	-0.005329
16.925	-0.005315
16.930	-0.005329
16.935	-0.005350
16.940	-0.005294
16.945	-0.005329
16.950	-0.005357
16.955	-0.005343
16.960	-0.005365
16.965	-0.005345
16.970	-0.005358
16.975	-0.005350
16.980	-0.005336
16.985	-0.005377
16.990	-0.005390
16.995	-0.005349
17.000	-0.005384
17.005	-0.005364
17.010	-0.005371
17.015	-0.005356
17.020	-0.005404
17.025	-0.005425
17.030	-0.005425
17.035	-0.005433
17.040	-0.005438
17.045	-0.005444
17.050	-0.005444
17.055	-0.005430
17.060	-0.005409
17.065	-0.005457
17.070	-0.005429
17.075	-0.005457
17.080	-0.005444
17.085	-0.005464
17.090	-0.005464
17.095	-0.005466
17.100	-0.005466
17.105	-0.005465
17.110	-0.005499
17.115	-0.005485
17.120	-0.005486
17.125	-0.005479
17.130	-0.005492
17.135	-0.005499
17.140	-0.005499
17.145	-0.005499
17.150	-0.005526
17.155	-0.005526
17.160	-0.005506
17.165	-0.005507
17.170	-0.005555
17.175	-0.005505
17.180	-0.005539
17.185	-0.005546
17.190	-0.005553
17.195	-0.005560
17.200	-0.005566
17.205	-0.005560
17.210	-0.005559
17.215	-0.005567
17.220	-0.005567
17.225	-0.005582
17.230	-0.005582
17.235	-0.005562
17.240	-0.005623
17.245	-0.005589
17.250	-0.005596
17.255	-0.005595
17.260	-0.005595
17.265	-0.005610
17.270	-0.005637
17.275	-0.005630
17.280	-0.005623
17.285	-0.005636
17.290	-0.005629
17.295	-0.005645
17.300	-0.005632
17.305	-0.005638
17.310	-0.005636
17.315	-0.005658
17.320	-0.005651
17.325	-0.005664
17.330	-0.005651
17.335	-0.005672
17.340	-0.005679
17.345	-0.005686
17.350	-0.005686
17.355	-0.005714
17.360	-0.005708
17.365	-0.005709
17.370	-0.005729
17.375	-0.005714
17.380	-0.005734
17.385	-0.005721
17.390	-0.005742
17.395	-0.005721
17.400	-0.005762
17.405	-0.005742
17.410	-0.005783
17.415	-0.005755
17.420	-0.005741
17.425	-0.005749
17.430	-0.005777
17.435	-0.005763
17.440	-0.005782
17.445	-0.005789
17.450	-0.005796
17.455	-0.005796
17.460	-0.005803
17.465	-0.005796
17.470	-0.005802
17.475	-0.005789
17.480	-0.005810
17.485	-0.005803
17.490	-0.005830
17.495	-0.005818
17.500	-0.005839
17.505	-0.005844
17.510	-0.005864
17.515	-0.005871
17.520	-0.005865
17.525	-0.005844
17.530	-0.005858
17.535	-0.005886
17.540	-0.005858
17.545	-0.005906
17.550	-0.005878
17.555	-0.005927
17.560	-0.005914
17.565	-0.005888
17.570	-0.005881
17.575	-0.005921
17.580	-0.005942
17.585	-0.005943
17.590	-0.005953
17.595	-0.005920
17.600	-0.005917
17.605	-0.005915
17.610	-0.005955
17.615	-0.005948
17.620	-0.005955
17.625	-0.005996
17.630	-0.006018
17.635	-0.005998
17.640	-0.005976
17.645	-0.006010
17.650	-0.005990
17.655	-0.006003
17.660	-0.006009
17.665	-0.006044
17.670	-0.006031
17.675	-0.006038
17.680	-0.006023
17.685	-0.006009
17.690	-0.006043
17.695	-0.006051
17.700	-0.006037
17.705	-0.006037
17.710	-0.006050
17.715	-0.006064
17.720	-0.006112
17.725	-0.006091
17.730	-0.006077
17.735	-0.006077
17.740	-0.006105
17.745	-0.006097
17.750	-0.006111
17.755	-0.006145
17.760	-0.006112
17.765	-0.006161
17.770	-0.006139
17.775	-0.006123
17.780	-0.006151
17.785	-0.006158
17.790	-0.006151
17.795	-0.006178
17.800	-0.006164
17.805	-0.006171
17.810	-0.006171
17.815	-0.006205
17.820	-0.006190
17.825	-0.006225
17.830	-0.006191
17.835	-0.006226
17.840	-0.006237
17.845	-0.006202
17.850	-0.006229
17.855	-0.006237
17.860	-0.006244
17.865	-0.006243
17.870	-0.006270
17.875	-0.006229
17.880	-0.006263
17.885	-0.006298
17.890	-0.006290
17.895	-0.006284
17.900	-0.006299
17.905	-0.006290
17.910	-0.006283
17.915	-0.006304
17.920	-0.006310
17.925	-0.006303
17.930	-0.006324
17.935	-0.006318
17.940	-0.006338
17.945	-0.006338
17.950	-0.006351
17.955	-0.006330
17.960	-0.006338
17.965	-0.006354
17.970	-0.006408
17.975	-0.006380
17.980	-0.006406
17.985	-0.006374
17.990	-0.006394
17.995	-0.006401
18.000	-0.006401
18.005	-0.006428
18.010	-0.006421
18.015	-0.006428
18.020	-0.006429
18.025	-0.006451
18.030	-0.006473
18.035	-0.006431
18.040	-0.006478
18.045	-0.006459
18.050	-0.006486
18.055	-0.006458
18.060	-0.006465
18.065	-0.006479
18.070	-0.006458
18.075	-0.006494
18.080	-0.006473
18.085	-0.006507
18.090	-0.006513
18.095	-0.006536
18.100	-0.006516
18.105	-0.006522
18.110	-0.006521
18.115	-0.006562
18.120	-0.006562
18.125	-0.006561
18.130	-0.006548
18.135	-0.006541
18.140	-0.006562
18.145	-0.006583
18.150	-0.006589
18.155	-0.006596
18.160	-0.006584
18.165	-0.006606
18.170	-0.006598
18.175	-0.006645
18.180	-0.006604
18.185	-0.006632
18.190	-0.006625
18.195	-0.006653
18.200	-0.006653
18.205	-0.006654
18.210	-0.006688
18.215	-0.006709
18.220	-0.006708
18.225	-0.006694
18.230	-0.006683
18.235	-0.006669
18.240	-0.006709
18.245	-0.006744
18.250	-0.006736
18.255	-0.006723
18.260	-0.006723
18.265	-0.006731
18.270	-0.006738
18.275	-0.006759
18.280	-0.006731
18.285	-0.006751
18.290	-0.006759
18.295	-0.006788
18.300	-0.006781
18.305	-0.006787
18.310	-0.006821
18.315	-0.006821
18.320	-0.006841
18.325	-0.006827
18.330	-0.006841
18.335	-0.006828
18.340	-0.006842
18.345	-0.006849
18.350	-0.006855
18.355	-0.006861
18.360	-0.006869
18.365	-0.006884
18.370	-0.006897
18.375	-0.006896
18.380	-0.006889
18.385	-0.006931
18.390	-0.006903
18.395	-0.006918
18.400	-0.006945
18.405	-0.006939
18.410	-0.006939
18.415	-0.006973
18.420	-0.006987
18.425	-0.006988
18.430	-0.006976
18.435	-0.007018
18.440	-0.006989
18.445	-0.007031
18.450	-0.007024
18.455	-0.007023
18.460	-0.007057
18.465	-0.007045
18.470	-0.007024
18.475	-0.007073
18.480	-0.007025
18.485	-0.007066
18.490	-0.007066
18.495	-0.007103
18.500	-0.007090
18.505	-0.007082
18.510	-0.007109
18.515	-0.007110
18.520	-0.007131
18.525	-0.007131
18.530	-0.007117
18.535	-0.007146
18.540	-0.007112
18.545	-0.007174
18.550	-0.007188
18.555	-0.007153
18.560	-0.007176
18.565	-0.007157
18.570	-0.007170
18.575	-0.007183
18.580	-0.007183
18.585	-0.007217
18.590	-0.007230
18.595	-0.007239
18.600	-0.007225
18.605	-0.007280
18.610	-0.007252
18.615	-0.007271
18.620	-0.007271
18.625	-0.007287
18.630	-0.007281
18.635	-0.007309
18.640	-0.007307
18.645	-0.007321
18.650	-0.007341
18.655	-0.007335
18.660	-0.007342
18.665	-0.007343
18.670	-0.007350
18.675	-0.007371
18.680	-0.007358
18.685	-0.007379
18.690	-0.007414
18.695	-0.007402
18.700	-0.007423
18.705	-0.007420
18.710	-0.007427
18.715	-0.007435
18.720	-0.007415
18.725	-0.007443
18.730	-0.007415
18.735	-0.007470
18.740	-0.007477
18.745	-0.007477
18.750	-0.007490
18.755	-0.007482
18.760	-0.007491
18.765	-0.007499
18.770	-0.007512
18.775	-0.007546
18.780	-0.007532
18.785	-0.007565
18.790	-0.007565
18.795	-0.007593
18.800	-0.007573
18.805	-0.007574
18.810	-0.007582
18.815	-0.007609
18.820	-0.007616
18.825	-0.007625
18.830	-0.007619
18.835	-0.007660
18.840	-0.007652
18.845	-0.007653
18.850	-0.007693
18.855	-0.007680
18.860	-0.007679
18.865	-0.007681
18.870	-0.007724
18.875	-0.007712
18.880	-0.007698
18.885	-0.007734
18.890	-0.007726
18.895	-0.007770
18.900	-0.007751
18.905	-0.007792
18.910	-0.007765
18.915	-0.007799
18.920	-0.007813
18.925	-0.007794
18.930	-0.007816
18.935	-0.007829
18.940	-0.007806
18.945	-0.007846
18.950	-0.007853
18.955	-0.007846
18.960	-0.007868
18.965	-0.007843
18.970	-0.007842
18.975	-0.007884
18.980	-0.007891
18.985	-0.007951
18.990	-0.007907
18.995	-0.007927
19.000	-0.007946
19.005	-0.007911
19.010	-0.007937
19.015	-0.007957
19.020	-0.007970
19.025	-0.007993
19.030	-0.007994
19.035	-0.007986
19.040	-0.008031
19.045	-0.008024
19.050	-0.008038
19.055	-0.008017
19.060	-0.008037
19.065	-0.008059
19.070	-0.008045
19.075	-0.008086
19.080	-0.008093
19.085	-0.008120
19.090	-0.008079
19.095	-0.008135
19.100	-0.008170
19.105	-0.008134
19.110	-0.008181
19.115	-0.008168
19.120	-0.008175
19.125	-0.008183
19.130	-0.008224
19.135	-0.008217
19.140	-0.008246
19.145	-0.008273
19.150	-0.008266
19.155	-0.008260
19.160	-0.008274
19.165	-0.008310
19.170	-0.008314
19.175	-0.008320
19.180	-0.008313
19.185	-0.008343
19.190	-0.008350
19.195	-0.008358
19.200	-0.008413
19.205	-0.008415
19.210	-0.008395
19.215	-0.008438
19.220	-0.008439
19.225	-0.008442
19.230	-0.008471
19.235	-0.008473
19.240	-0.008492
19.245	-0.008508
19.250	-0.008516
19.255	-0.008518
19.260	-0.008567
19.265	-0.008546
19.270	-0.008531
19.275	-0.008572
19.280	-0.008579
19.285	-0.008565
19.290	-0.008628
19.295	-0.008609
19.300	-0.008609
19.305	-0.008620
19.310	-0.008633
19.315	-0.008633
19.320	-0.008660
19.325	-0.008667
19.330	-0.008679
19.335	-0.008706
19.340	-0.008748
19.345	-0.008733
19.350	-0.008725
19.355	-0.008753
19.360	-0.008746
19.365	-0.008760
19.370	-0.008757
19.375	-0.008783
19.380	-0.008830
19.385	-0.008837
19.390	-0.008808
19.395	-0.008821
19.400	-0.008835
19.405	-0.008822
19.410	-0.008857
19.415	-0.008884
19.420	-0.008898
19.425	-0.008892
19.430	-0.008913
19.435	-0.008921
19.440	-0.008937
19.445	-0.008959
19.450	-0.008992
19.455	-0.008979
19.460	-0.009014
19.465	-0.009008
19.470	-0.009063
19.475	-0.009077
19.480	-0.009075
19.485	-0.009103
19.490	-0.009133
19.495	-0.009108
19.500	-0.009122
19.505	-0.009155
19.510	-0.009147
19.515	-0.009176
19.520	-0.009164
19.525	-0.009172
19.530	-0.009214
19.535	-0.009221
19.540	-0.009208
19.545	-0.009210
19.550	-0.009251
19.555	-0.009265
19.560	-0.009287
19.565	-0.009296
19.570	-0.009328
19.575	-0.009307
19.580	-0.009326
19.585	-0.009335
19.590	-0.009378
19.595	-0.009379
19.600	-0.009381
19.605	-0.009416
19.610	-0.009428
19.615	-0.009429
19.620	-0.009436
19.625	-0.009473
19.630	-0.009482
19.635	-0.009490
19.640	-0.009513
19.645	-0.009533
19.650	-0.009547
19.655	-0.009541
19.660	-0.009547
19.665	-0.009590
19.670	-0.009586
19.675	-0.009601
19.680	-0.009600
19.685	-0.009623
19.690	-0.009660
19.695	-0.009675
19.700	-0.009653
19.705	-0.009688
19.710	-0.009710
19.715	-0.009746
19.720	-0.009745
19.725	-0.009795
19.730	-0.009782
19.735	-0.009826
19.740	-0.009832
19.745	-0.009846
19.750	-0.009872
19.755	-0.009887
19.760	-0.009917
19.765	-0.009921
19.770	-0.009946
19.775	-0.009958
19.780	-0.010018
19.785	-0.009978
19.790	-0.010000
19.795	-0.010024
19.800	-0.010048
19.805	-0.010049
19.810	-0.010103
19.815	-0.010117
19.820	-0.010130
19.825	-0.010167
19.830	-0.010177
19.835	-0.010184
19.840	-0.010238
19.845	-0.010230
19.850	-0.010259
19.855	-0.010265
19.860	-0.010266
19.865	-0.010281
19.870	-0.010317
19.875	-0.010349
19.880	-0.010368
19.885	-0.010381
19.890	-0.010395
19.895	-0.010444
19.900	-0.010455
19.905	-0.010457
19.910	-0.010489
19.915	-0.010489
19.920	-0.010522
19.925	-0.010533
19.930	-0.010565
19.935	-0.010591
19.940	-0.010583
19.945	-0.010610
19.950	-0.010636
19.955	-0.010672
19.960	-0.010667
19.965	-0.010730
19.970	-0.010761
19.975	-0.010746
19.980	-0.010780
19.985	-0.010793
19.990	-0.010811
19.995	-0.010853
20.000	-0.010867
20.005	-0.010867
20.010	-0.010936
20.015	-0.010908
20.020	-0.010970
20.025	-0.010988
20.030	-0.010982
20.035	-0.011001
20.040	-0.011048
20.045	-0.011057
20.050	-0.011118
20.055	-0.011147
20.060	-0.011175
20.065	-0.011191
20.070	-0.011212
20.075	-0.011225
20.080	-0.011232
20.085	-0.011289
20.090	-0.011306
20.095	-0.011322
20.100	-0.011343
20.105	-0.011376
20.110	-0.011403
20.115	-0.011429
20.120	-0.011458
20.125	-0.011471
20.130	-0.011514
20.135	-0.011509
20.140	-0.011524
20.145	-0.011579
20.150	-0.011586
20.155	-0.011615
20.160	-0.011661
20.165	-0.011697
20.170	-0.011708
20.175	-0.011759
20.180	-0.011766
20.185	-0.011802
20.190	-0.011832
20.195	-0.011848
20.200	-0.011889
20.205	-0.011886
20.210	-0.011951
20.215	-0.011950
20.220	-0.011957
20.225	-0.011998
20.230	-0.012060
20.235	-0.012069
20.240	-0.012096
20.245	-0.012130
20.250	-0.012179
20.255	-0.012168
20.260	-0.012199
20.265	-0.012241
20.270	-0.012259
20.275	-0.012272
20.280	-0.012319
20.285	-0.012340
20.290	-0.012410
20.295	-0.012426
20.300	-0.012425
20.305	-0.012457
20.310	-0.012511
20.315	-0.012561
20.320	-0.012572
20.325	-0.012586
20.330	-0.012643
20.335	-0.012679
20.340	-0.012703
20.345	-0.012726
20.350	-0.012793
20.355	-0.012836
20.360	-0.012829
20.365	-0.012879
20.370	-0.012895
20.375	-0.012943
20.380	-0.012981
20.385	-0.013041
20.390	-0.013078
20.395	-0.013117
20.400	-0.013142
20.405	-0.013174
20.410	-0.013175
20.415	-0.013251
20.420	-0.013276
20.425	-0.013314
20.430	-0.013335
20.435	-0.013403
20.440	-0.013420
20.445	-0.013502
20.450	-0.013528
20.455	-0.013570
20.460	-0.013606
20.465	-0.013645
20.470	-0.013726
20.475	-0.013781
20.480	-0.013823
20.485	-0.013868
20.490	-0.013899
20.495	-0.013971
20.500	-0.014022
20.505	-0.014073
20.510	-0.014122
20.515	-0.014135
20.520	-0.014145
20.525	-0.014184
20.530	-0.014224
20.535	-0.014278
20.540	-0.014322
20.545	-0.014382
20.550	-0.014393
20.555	-0.014437
20.560	-0.014510
20.565	-0.014526
20.570	-0.014578
20.575	-0.014613
20.580	-0.014611
20.585	-0.014697
20.590	-0.014739
20.595	-0.014794
20.600	-0.014805
20.605	-0.014889
20.610	-0.014897
20.615	-0.014998
20.620	-0.015004
20.625	-0.015115
20.630	-0.015189
20.635	-0.015239
20.640	-0.015289
20.645	-0.015364
20.650	-0.015445
20.655	-0.015473
20.660	-0.015529
20.665	-0.015628
20.670	-0.015680
20.675	-0.015708
20.680	-0.015768
20.685	-0.015841
20.690	-0.015895
20.695	-0.015962
20.700	-0.016041
20.705	-0.016086
20.710	-0.016159
20.715	-0.016218
20.720	-0.016265
20.725	-0.016364
20.730	-0.016414
20.735	-0.016475
20.740	-0.016532
20.745	-0.016596
20.750	-0.016673
20.755	-0.016715
20.760	-0.016812
20.765	-0.016906
20.770	-0.017009
20.775	-0.017116
20.780	-0.017213
20.785	-0.017284
20.790	-0.017394
20.795	-0.017462
20.800	-0.017560
20.805	-0.017669
20.810	-0.017734
20.815	-0.017818
20.820	-0.017907
20.825	-0.018014
20.830	-0.018092
20.835	-0.018226
20.840	-0.018300
20.845	-0.018412
20.850	-0.018480
20.855	-0.018590
20.860	-0.018657
20.865	-0.018740
20.870	-0.018871
20.875	-0.018987
20.880	-0.019115
20.885	-0.019208
20.890	-0.019329
20.895	-0.019441
20.900	-0.019560
20.905	-0.019655
20.910	-0.019708
20.915	-0.019818
20.920	-0.019923
20.925	-0.019987
20.930	-0.020107
20.935	-0.020205
20.940	-0.020321
20.945	-0.020470
20.950	-0.020586
20.955	-0.020762
20.960	-0.020829
20.965	-0.020965
20.970	-0.021123
20.975	-0.021216
20.980	-0.021351
20.985	-0.021472
20.990	-0.021576
20.995	-0.021731
21.000	-0.021939
21.005	-0.022095
21.010	-0.022224
21.015	-0.022386
21.020	-0.022516
21.025	-0.022739
21.030	-0.022890
21.035	-0.023121
21.040	-0.023351
21.045	-0.023528
21.050	-0.023759
21.055	-0.023948
21.060	-0.024152
21.065	-0.024346
21.070	-0.024528
21.075	-0.024786
21.080	-0.025057
21.085	-0.025280
21.090	-0.025499
21.095	-0.025737
21.100	-0.026019
21.105	-0.026359
21.110	-0.026619
21.115	-0.026913
21.120	-0.027162
21.125	-0.027457
21.130	-0.027841
21.135	-0.028208
21.140	-0.028639
21.145	-0.029013
21.150	-0.029092
21.155	-0.029255
21.160	-0.029627
21.165	-0.029898
21.170	-0.030372
21.175	-0.030995
21.180	-0.031435
21.185	-0.031937
21.190	-0.032526
21.195	-0.033066
21.200	-0.033612
21.205	-0.034252
21.210	-0.034771
21.215	-0.035239
21.220	-0.036039
21.225	-0.037115
21.230	-0.037804
21.235	-0.038847
21.240	-0.039497
21.245	-0.039690
21.250	-0.041468
21.255	-0.042744
21.260	-0.043034
21.265	-0.043979
21.270	-0.045126
21.275	-0.046411
21.280	-0.047337
21.285	-0.047874
21.290	-0.047903
21.295	-0.047822
21.300	-0.047372
21.305	-0.046438
21.310	-0.044847
21.315	-0.042629
21.320	-0.039831
21.325	-0.036402
21.330	-0.032547
21.335	-0.028640
21.340	-0.024652
21.345	-0.020463
21.350	-0.015801
21.355	-0.011236
21.360	-0.007333
21.365	-0.004418
21.370	-0.002497
21.375	-0.001365
21.380	-0.000755
21.385	-0.000383
21.390	-0.000262
21.395	-0.000174
21.400	-0.000147
21.405	-0.000093
21.410	-0.000080
21.415	-0.000026
21.420	-0.000019
21.425	-0.000046
21.430	-0.000032
21.435	-0.000066
21.440	-0.000013
21.445	0.000001
21.450	-0.000033
21.455	-0.000019
21.460	0.000001
21.465	0.000001
21.470	-0.000033
21.475	-0.000013
21.480	0.000007
21.485	-0.000033
21.490	0.000015
21.495	-0.000012
21.500	-0.000019
21.505	0.000001
21.510	-0.000013
21.515	0.000021
21.520	-0.000006
21.525	0.000021
21.530	-0.000020
21.535	-0.000020
21.540	0.000014
21.545	-0.000027
21.550	-0.000007
21.555	-0.000007
21.560	-0.000020
21.565	-0.000006
21.570	-0.000020
21.575	0.000020
21.580	-0.000027
21.585	0.000007
21.590	0.000041
21.595	0.000033
21.600	-0.000000
21.605	0.000020
21.610	0.000020
21.615	-0.000000
21.620	0.000020
21.625	0.000034
21.630	0.000014
21.635	-0.000007
21.640	0.000006
21.645	-0.000014
21.650	0.000013
21.655	0.000013
21.660	-0.000000
21.665	0.000033
21.670	-0.000021
21.675	0.000006
21.680	0.000033
21.685	0.000019
21.690	0.000034
21.695	0.000020
21.700	0.000006
21.705	0.000013
21.710	0.000012
21.715	-0.000021
21.720	0.000006
21.725	0.000053
21.730	0.000033
21.735	0.000026
21.740	0.000012
21.745	0.000012
21.750	0.000013
21.755	0.000020
21.760	0.000033
21.765	0.000006
21.770	-0.000001
21.775	0.000012
21.780	-0.000008
21.785	0.000026
21.790	-0.000008
21.795	0.000026
21.800	0.000026
21.805	0.000012
21.810	0.000026
21.815	0.000019
21.820	-0.000015
21.825	0.000026
21.830	0.000019
21.835	0.000032
21.840	0.000012
21.845	0.000032
21.850	0.000046
21.855	0.000018
21.860	0.000012
21.865	0.000039
21.870	0.000012
21.875	0.000039
21.880	0.000025
21.885	0.000011
21.890	0.000026
21.895	0.000040
21.900	0.000026
21.905	0.000025
21.910	0.000039
21.915	0.000025
21.920	0.000025
21.925	0.000025
21.930	0.000012
21.935	0.000032
21.940	0.000025
21.945	0.000025
21.950	0.000018
21.955	0.000039
21.960	0.000039
21.965	0.000053
21.970	0.000031
21.975	0.000032
21.980	-0.000003
21.985	-0.000009
21.990	0.000038
21.995	0.000031
22.000	0.000017
22.005	0.000018
22.010	-0.000002
22.015	0.000045
22.020	0.000018
22.025	0.000011
22.030	0.000012
22.035	0.000004
22.040	0.000024
22.045	0.000031
22.050	0.000031
22.055	0.000045
22.060	0.000024
22.065	0.000011
22.070	0.000038
22.075	0.000044
22.080	0.000024
22.085	0.000004
22.090	0.000018
22.095	-0.000009
22.100	0.000004
22.105	0.000017
22.110	0.000010
22.115	0.000051
22.120	0.000044
22.125	0.000024
22.130	0.000024
22.135	0.000037
22.140	0.000030
22.145	0.000024
22.150	0.000037
22.155	0.000024
22.160	0.000018
22.165	0.000031
22.170	0.000030
22.175	0.000044
22.180	0.000023
22.185	-0.000017
22.190	0.000010
22.195	0.000010
22.200	0.000003
22.205	0.000024
22.210	0.000030
22.215	0.000023
22.220	0.000017
22.225	0.000037
22.230	0.000044
22.235	0.000023
22.240	-0.000004
22.245	-0.000004
22.250	0.000023
22.255	0.000057
22.260	0.000003
22.265	0.000030
22.270	0.000016
22.275	0.000050
22.280	0.000036
22.285	0.000043
22.290	0.000037
22.295	0.000017
22.300	0.000023
22.305	0.000030
22.310	0.000009
22.315	0.000016
22.320	0.000036
22.325	0.000023
22.330	0.000036
22.335	0.000030
22.340	0.000029
22.345	0.000043
22.350	0.000043
22.355	0.000016
22.360	0.000016
22.365	-0.000011
22.370	0.000015
22.375	0.000009
22.380	0.000056
22.385	-0.000012
22.390	-0.000005
22.395	0.000036
22.400	-0.000012
22.405	0.000022
22.410	0.000049
22.415	0.000015
22.420	0.000022
22.425	0.000023
22.430	0.000023
22.435	0.000022
22.440	0.000022
22.445	-0.000012
22.450	0.000002
22.455	0.000015
22.460	0.000029
22.465	0.000049
22.470	0.000049
22.475	0.000015
22.480	0.000029
22.485	0.000015
22.490	0.000036
22.495	0.000036
22.500	-0.000019
22.505	-0.000012
22.510	0.000008
22.515	0.000035
22.520	0.000028
22.525	0.000048
22.530	0.000035
22.535	0.000035
22.540	0.000021
22.545	0.000021
22.550	0.000048
22.555	0.000015
22.560	0.000022
22.565	0.000022
22.570	0.000035
22.575	-0.000013
22.580	0.000028
22.585	0.000008
22.590	0.000008
22.595	0.000001
22.600	0.000028
22.605	0.000021
22.610	0.000001
22.615	0.000041
22.620	0.000021
22.625	0.000035
22.630	0.000021
22.635	-0.000013
22.640	-0.000013
22.645	0.000021
22.650	0.000027
22.655	-0.000006
22.660	-0.000006
22.665	0.000028
22.670	0.000014
22.675	0.000027
22.680	-0.000041
22.685	0.000000
22.690	-0.000006
22.695	0.000028
22.700	0.000000
22.705	0.000014
22.710	0.000054
22.715	0.000014
22.720	0.000027
22.725	-0.000007
22.730	0.000027
22.735	0.000007
22.740	0.000034
22.745	0.000007
22.750	-0.000000
22.755	0.000000
22.760	0.000021
22.765	0.000027
22.770	0.000006
22.775	0.000013
22.780	0.000006
22.785	0.000034
22.790	0.000007
22.795	0.000006
22.800	-0.000021
22.805	0.000006
22.810	-0.000014
22.815	0.000027
22.820	0.000007
22.825	0.000041
22.830	0.000055
22.835	0.000020
22.840	-0.000007
22.845	-0.000014
22.850	0.000006
22.855	-0.000034
22.860	0.000006
22.865	0.000020
22.870	0.000020
22.875	0.000013
22.880	0.000013
22.885	0.000047
22.890	-0.000007
22.895	0.000020
22.900	0.000006
22.905	-0.000001
22.910	0.000012
22.915	0.000013
22.920	-0.000035
22.925	-0.000015
22.930	0.000019
22.935	-0.000001
22.940	0.000019
22.945	0.000019
22.950	0.000005
22.955	0.000020
22.960	0.000006
22.965	0.000013
22.970	0.000012
22.975	0.000012
22.980	0.000012
22.985	0.000006
22.990	0.000026
22.995	0.000033
23.000	0.000019
23.005	0.000026
23.010	0.000005
23.015	0.000019
23.020	0.000012
23.025	-0.000001
23.030	0.000020
23.035	-0.000002
23.040	-0.000015
23.045	-0.000015
23.050	0.000012
23.055	0.000025
23.060	0.000025
23.065	0.000012
23.070	0.000018
23.075	0.000005
23.080	-0.000002
23.085	-0.000002
23.090	-0.000001
23.095	0.000019
23.100	0.000026
23.105	0.000012
23.110	0.000005
23.115	0.000019
23.120	0.000025
23.125	-0.000009
23.130	0.000005
23.135	-0.000009
23.140	0.000011
23.145	0.000032
23.150	0.000004
23.155	-0.000015
23.160	0.000012
23.165	0.000005
23.170	0.000018
23.175	0.000018
23.180	-0.000003
23.185	-0.000002
23.190	0.000018
23.195	-0.000009
23.200	0.000011
23.205	0.000025
23.210	0.000018
23.215	0.000038
23.220	0.000018
23.225	0.000025
23.230	0.000012
23.235	0.000018
23.240	-0.000009
23.245	0.000025
23.250	-0.000009
23.255	-0.000002
23.260	0.000018
23.265	-0.000003
23.270	0.000024
23.275	0.000018
23.280	0.000004
23.285	0.000004
23.290	0.000004
23.295	0.000005
23.300	-0.000003
23.305	-0.000010
23.310	-0.000017
23.315	0.000017
23.320	0.000003
23.325	0.000031
23.330	0.000017
23.335	0.000004
23.340	0.000010
23.345	0.000011
23.350	0.000010
23.355	0.000011
23.360	0.000004
23.365	-0.000016
23.370	0.000010
23.375	0.000004
23.380	-0.000003
23.385	-0.000003
23.390	-0.000003
23.395	0.000010
23.400	0.000017
23.405	0.000017
23.410	0.000010
23.415	0.000030
23.420	-0.000003
23.425	0.000051
23.430	0.000024
23.435	0.000024
23.440	0.000017
23.445	-0.000017
23.450	0.000003
23.455	0.000030
23.460	0.000023
23.465	0.000016
23.470	0.000010
23.475	-0.000004
23.480	0.000023
23.485	0.000010
23.490	-0.000010
23.495	-0.000003
23.500	0.000030
23.505	0.000016
23.510	0.000016
23.515	0.000030
23.520	-0.000017
23.525	-0.000004
23.530	0.000009
23.535	0.000030
23.540	0.000036
23.545	0.000002
23.550	-0.000011
23.555	0.000016
23.560	0.000017
23.565	0.000017
23.570	-0.000004
23.575	0.000002
23.580	-0.000025
23.585	-0.000011
23.590	0.000049
23.595	-0.000005
23.600	0.000016
23.605	0.000036
23.610	-0.000011
23.615	0.000016
23.620	0.000016
23.625	0.000010
23.630	0.000016
23.635	-0.000018
23.640	0.000002
23.645	0.000022
23.650	0.000002
23.655	0.000009
23.660	0.000036
23.665	0.000016
23.670	-0.000012
23.675	0.000002
23.680	-0.000005
23.685	0.000022
23.690	-0.000018
23.695	-0.000018
23.700	-0.000011
23.705	0.000008
23.710	0.000008
23.715	0.000022
23.720	0.000042
23.725	0.000015
23.730	-0.000006
23.735	0.000008
23.740	0.000008
23.745	0.000035
23.750	0.000035
23.755	-0.000025
23.760	0.000002
23.765	0.000002
23.770	0.000001
23.775	-0.000012
23.780	0.000022
23.785	-0.000005
23.790	0.000008
23.795	0.000002
23.800	-0.000006
23.805	0.000015
23.810	-0.000006
23.815	0.000021
23.820	0.000008
23.825	0.000002
23.830	0.000002
23.835	0.000015
23.840	0.000015
23.845	-0.000006
23.850	0.000014
23.855	0.000028
23.860	-0.000006
23.865	0.000008
23.870	0.000014
23.875	0.000001
23.880	0.000014
23.885	0.000015
23.890	-0.000019
23.895	-0.000012
23.900	-0.000019
23.905	0.000007
23.910	-0.000020
23.915	0.000028
23.920	0.000014
23.925	0.000028
23.930	0.000008
23.935	0.000008
23.940	0.000001
23.945	0.000028
23.950	0.000000
23.955	-0.000006
23.960	0.000001
23.965	-0.000013
23.970	0.000014
23.975	-0.000013
23.980	-0.000020
23.985	0.000021
23.990	0.000007
23.995	0.000034
24.000	0.000007
24.005	-0.000007
24.010	0.000014
24.015	0.000021
24.020	0.000001
24.025	0.000022
24.030	0.000014
24.035	0.000007
24.040	0.000014
24.045	0.000007
24.050	-0.000014
24.055	0.000027
24.060	0.000000
24.065	0.000020
24.070	0.000020
24.075	-0.000007
24.080	0.000027
24.085	0.000013
24.090	0.000021
24.095	-0.000027
24.100	0.000013
24.105	-0.000000
24.110	0.000027
24.115	-0.000021
24.120	-0.000021
24.125	0.000013
24.130	0.000054
24.135	-0.000014
24.140	-0.000001
24.145	0.000026
24.150	-0.000007
24.155	0.000007
24.160	0.000014
24.165	-0.000007
24.170	0.000013
24.175	-0.000001
24.180	0.000047
24.185	-0.000001
24.190	0.000033
24.195	0.000033
24.200	0.000020
24.205	0.000027
24.210	0.000020
24.215	-0.000001
24.220	0.000033
24.225	-0.000000
24.230	0.000020
24.235	0.000019
24.240	0.000012
24.245	-0.000001
24.250	-0.000028
24.255	-0.000014
24.260	0.000006
24.265	-0.000008
24.270	0.000012
24.275	-0.000015
24.280	-0.000015
24.285	-0.000008
24.290	-0.000000
24.295	-0.000007
24.300	0.000019
24.305	-0.000001
24.310	0.000006
24.315	0.000012
24.320	0.000012
24.325	0.000012
24.330	0.000012
24.335	0.000026
24.340	0.000006
24.345	-0.000022
24.350	0.000012
24.355	-0.000008
24.360	-0.000001
24.365	-0.000001
24.370	-0.000008
24.375	-0.000002
24.380	-0.000002
24.385	-0.000022
24.390	0.000012
24.395	0.000012
24.400	0.000019
24.405	0.000005
24.410	-0.000016
24.415	0.000012
24.420	-0.000022
24.425	0.000006
24.430	-0.000008
24.435	0.000005
24.440	-0.000002
24.445	-0.000009
24.450	0.000012
24.455	-0.000002
24.460	0.000012
24.465	0.000025
24.470	0.000005
24.475	0.000025
24.480	-0.000023
24.485	-0.000015
24.490	0.000019
24.495	0.000012
24.500	-0.000002
24.505	0.000004
24.510	-0.000009
24.515	0.000031
24.520	0.000031
24.525	-0.000002
24.530	-0.000023
24.535	0.000018
24.540	-0.000009
24.545	-0.000016
24.550	-0.000009
24.555	-0.000009
24.560	-0.000002
24.565	0.000011
24.570	0.000018
24.575	-0.000016
24.580	-0.000016
24.585	0.000031
24.590	-0.000009
24.595	-0.000003
24.600	-0.000010
24.605	0.000018
24.610	0.000017
24.615	0.000017
24.620	-0.000016
24.625	0.000005
24.630	0.000025
24.635	-0.000003
24.640	-0.000024
24.645	0.000004
24.650	-0.000030
24.655	0.000010
24.660	0.000031
24.665	0.000017
24.670	0.000024
24.675	0.000017
24.680	0.000017
24.685	-0.000003
24.690	0.000018
24.695	-0.000030
24.700	-0.000010
24.705	-0.000017
24.710	-0.000003
24.715	-0.000017
24.720	-0.000003
24.725	0.000024
24.730	-0.000017
24.735	0.000024
24.740	-0.000010
24.745	0.000010
24.750	0.000010
24.755	-0.000017
24.760	0.000017
24.765	0.000024
24.770	0.000010
24.775	-0.000004
24.780	0.000037
24.785	-0.000024
24.790	-0.000004
24.795	-0.000004
24.800	-0.000004
24.805	0.000003
24.810	0.000009
24.815	0.000003
24.820	-0.000017
24.825	0.000017
24.830	-0.000004
24.835	-0.000004
24.840	0.000037
24.845	-0.000004
24.850	-0.000011
24.855	0.000002
24.860	-0.000018
24.865	0.000009
24.870	0.000030
24.875	-0.000018
24.880	-0.000005
24.885	0.000036
24.890	0.000023
24.895	-0.000010
24.900	-0.000005
24.905	0.000016
24.910	0.000015
24.915	-0.000025
24.920	-0.000005
24.925	-0.000011
24.930	-0.000012
24.935	-0.000025
24.940	0.000022
24.945	0.000009
24.950	-0.000005
24.955	0.000016
24.960	0.000016
24.965	-0.000005
24.970	0.000002
24.975	0.000016
24.980	0.000022
24.985	-0.000005
24.990	0.000009
24.995	0.000002
25.000	-0.000012
25.005	0.000008
25.010	0.000015
25.015	0.000001
25.020	-0.000012
25.025	-0.000031
25.030	-0.000005
25.035	0.000008
25.040	-0.000005
25.045	-0.000005
25.050	-0.000006
25.055	0.000001
25.060	0.000001
25.065	0.000008
25.070	-0.000005
25.075	-0.000005
25.080	-0.000019
25.085	0.000036
25.090	0.000009
25.095	-0.000012
25.100	0.000008
25.105	0.000015
25.110	0.000015
25.115	0.000008
25.120	-0.000026
25.125	-0.000012
25.130	-0.000026
25.135	0.000008
25.140	-0.000026
25.145	0.000008
25.150	-0.000013
25.155	0.000015
25.160	-0.000005
25.165	-0.000012
25.170	0.000014
25.175	0.000034
25.180	0.000034
25.185	0.000001
25.190	-0.000013
25.195	0.000008
25.200	-0.000013
25.205	0.000035
25.210	0.000014
25.215	0.000007
25.220	-0.000019
25.225	-0.000026
25.230	-0.000026
25.235	0.000001
25.240	0.000000
25.245	0.000001
25.250	0.000041
25.255	0.000007
25.260	0.000001
25.265	0.000028
25.270	0.000028
25.275	0.000021
25.280	0.000020
25.285	0.000027
25.290	0.000001
25.295	-0.000033
25.300	-0.000013
25.305	0.000014
25.310	-0.000007
25.315	0.000020
25.320	-0.000007
25.325	0.000027
25.330	-0.000014
25.335	0.000020
25.340	0.000020
25.345	-0.000014
25.350	-0.000000
25.355	-0.000013
25.360	0.000000
25.365	0.000013
25.370	-0.000007
25.375	-0.000000
25.380	0.000006
25.385	-0.000027
25.390	-0.000027
25.395	0.000014
25.400	0.000013
25.405	0.000006
25.410	-0.000001
25.415	0.000013
25.420	-0.000007
25.425	0.000014
25.430	-0.000014
25.435	0.000006
25.440	0.000013
25.445	0.000006
25.450	-0.000014
25.455	0.000013
25.460	-0.000001
25.465	-0.000014
25.470	-0.000001
25.475	-0.000014
25.480	-0.000001
25.485	-0.000028
25.490	0.000000
25.495	0.000020
25.500	-0.000001
25.505	-0.000015
25.510	-0.000015
25.515	0.000019
25.520	0.000019
25.525	-0.000014
25.530	-0.000008
25.535	0.000019
25.540	-0.000008
25.545	0.000012
25.550	-0.000001
25.555	-0.000008
25.560	-0.000001
25.565	-0.000015
25.570	-0.000029
25.575	0.000006
25.580	-0.000015
25.585	-0.000015
25.590	0.000005
25.595	0.000019
25.600	0.000012
25.605	0.000012
25.610	-0.000029
25.615	0.000019
25.620	-0.000021
25.625	0.000006
25.630	-0.000001
25.635	-0.000029
25.640	0.000012
25.645	0.000019
25.650	-0.000002
25.655	0.000032
25.660	-0.000002
25.665	0.000012
25.670	-0.000008
25.675	0.000005
25.680	0.000011
25.685	-0.000002
25.690	-0.000015
25.695	-0.000015
25.700	-0.000050
25.705	-0.000002
25.710	-0.000009
25.715	-0.000009
25.720	-0.000016
25.725	-0.000023
25.730	-0.000002
25.735	-0.000003
25.740	-0.000016
25.745	-0.000016
25.750	0.000018
25.755	-0.000008
25.760	-0.000002
25.765	-0.000009
25.770	0.000004
25.775	-0.000002
25.780	-0.000003
25.785	0.000004
25.790	-0.000043
25.795	0.000004
25.800	0.000011
25.805	-0.000023
25.810	0.000004
25.815	-0.000010
25.820	0.000025
25.825	-0.000002
25.830	-0.000010
25.835	0.000004
25.840	-0.000003
25.845	-0.000017
25.850	-0.000003
25.855	0.000017
25.860	0.000004
25.865	-0.000017
25.870	0.000010
25.875	-0.000010
25.880	-0.000003
25.885	-0.000023
25.890	-0.000016
25.895	0.000018
25.900	-0.000023
25.905	0.000004
25.910	-0.000003
25.915	0.000003
25.920	-0.000010
25.925	0.000010
25.930	-0.000024
25.935	0.000017
25.940	-0.000003
25.945	0.000003
25.950	-0.000010
25.955	-0.000037
25.960	0.000004
25.965	0.000010
25.970	-0.000011
25.975	-0.000004
25.980	-0.000011
25.985	0.000010
25.990	-0.000010
25.995	-0.000017
26.000	0.000016
26.005	-0.000004
26.010	0.000003
26.015	-0.000018
26.020	0.000024
26.025	-0.000017
26.030	0.000017
26.035	-0.000017
26.040	0.000010
26.045	-0.000031
26.050	-0.000011
26.055	0.000009
26.060	0.000003
26.065	0.000023
26.070	0.000009
26.075	0.000009
26.080	0.000002
26.085	-0.000011
26.090	-0.000017
26.095	-0.000011
26.100	0.000009
26.105	-0.000025
26.110	0.000029
26.115	0.000009
26.120	0.000029
26.125	-0.000004
26.130	-0.000005
26.135	-0.000005
26.140	-0.000018
26.145	-0.000032
26.150	-0.000038
26.155	0.000003
26.160	0.000010
26.165	-0.000018
26.170	-0.000032
26.175	0.000009
26.180	-0.000012
26.185	0.000022
26.190	0.000009
26.195	0.000009
26.200	0.000002
26.205	0.000002
26.210	0.000002
26.215	0.000002
26.220	-0.000011
26.225	-0.000018
26.230	-0.000005
26.235	-0.000012
26.240	0.000022
26.245	-0.000039
26.250	-0.000033
26.255	-0.000026
26.260	0.000022
26.265	-0.000025
26.270	-0.000019
26.275	0.000002
26.280	-0.000019
26.285	0.000002
26.290	-0.000005
26.295	-0.000018
26.300	0.000008
26.305	-0.000012
26.310	0.000008
26.315	0.000002
26.320	0.000022
